,Trial_num,image_path,ground_truth,image_name,demos.thisRepN,demos.thisTrialN,demos.thisN,demos.thisIndex,block_1.thisRepN,block_1.thisTrialN,block_1.thisN,block_1.thisIndex,block_2.thisRepN,block_2.thisTrialN,block_2.thisN,block_2.thisIndex,text_3.started,text_3.stopped,Task.started,Task.stopped,text_10.started,text_10.stopped,key_resp.keys,key_resp.rt,key_resp.started,key_resp.stopped,image_2.started,image_2.stopped,text_5.started,text_5.stopped,image_3.started,image_3.stopped,text_6.started,text_6.stopped,translucency.started,translucency.stopped,see_throughness.started,see_throughness.stopped,glow.started,glow.stopped,key_resp_10.keys,key_resp_10.rt,key_resp_10.started,key_resp_10.stopped,instruction.started,instruction.stopped,text_12.started,text_12.stopped,Trial_number.started,Trial_number.stopped,image.started,image.stopped,Instruction.started,Instruction.stopped,translucency_score.response,translucency_score.rt,translucency_score.started,translucency_score.stopped,Translucency.started,Translucency.stopped,seethroughness_score.response,seethroughness_score.rt,seethroughness_score.started,seethroughness_score.stopped,SeeThroughness.started,SeeThroughness.stopped,glow_score.response,glow_score.rt,glow_score.started,glow_score.stopped,Glow.started,Glow.stopped,to_next.keys,to_next.rt,to_next.started,to_next.stopped,grading_label_left.started,grading_label_left.stopped,grading_label_right.started,grading_label_right.stopped,instruct1.started,instruct1.stopped,instruct2.started,instruct2.stopped,text_4.started,text_4.stopped,text_2.started,text_2.stopped,text_13.started,text_13.stopped,session,date,expName,psychopyVersion,frameRate
0,,,,,,,,,,,,,,,,,470.4175503,None,476.8189498,None,549.6091616,None,space,22.63248583,554.5776657,None,,,,,,,,,,,,,,,,,,,,,,,,,,,,,,,,,,,,,,,,,,,,,,,,,,,,,,,,,,,,,,,,,1,2022_Mar_24_1356,SAR-soap,2021.1.2,59.98076944
1,,,,,,,,,,,,,,,,,,,,,,,,,,,577.7044195,None,577.7044195,None,591.4755758,None,591.4755758,None,598.9915105,None,598.9915105,None,598.9915105,None,space,39.82661947,598.9915105,None,,,,,,,,,,,,,,,,,,,,,,,,,,,,,,,,,,,,,,,,,,,,,,,1,2022_Mar_24_1356,SAR-soap,2021.1.2,59.98076944
2,Demo 1,demo/Demo_IMG_0974.jpg,demo,Demo_IMG_0974.jpg,0.0,0.0,0.0,0.0,,,,,,,,,,,,,,,,,,,,,,,,,,,,,,,,,,,,,598.9915105,None,638.8368581,None,641.1697758,None,641.1697758,None,641.1697758,None,3.0,17.71774689,641.1697758,None,641.1697758,None,5.0,24.82413166,648.272416,None,641.1697758,None,6.0,29.76386373,665.544429,None,641.1697758,None,space,3.298252504,28.42905703,None,641.1697758,None,641.1697758,None,,,,,,,,,,,1,2022_Mar_24_1356,SAR-soap,2021.1.2,59.98076944
3,Demo 2,demo/Demo_IMG_1024.jpg,demo,Demo_IMG_1024.jpg,0.0,1.0,1.0,1.0,,,,,,,,,,,,,,,,,,,,,,,,,,,,,,,,,,,,,,,,,672.9799,None,672.9799,None,672.9799,None,1.0,22.63480612,672.9799,None,672.9799,None,1.0,24.45929464,695.1536373,None,672.9799,None,1.0,25.43043406,696.9870131,None,672.9799,None,space,1.881005407,25.4568237,None,672.9799,None,672.9799,None,,,,,,,,,,,1,2022_Mar_24_1356,SAR-soap,2021.1.2,59.98076944
4,Demo 3,demo/Demo_seed_80003.png,demo,Demo_seed_80003.png,0.0,2.0,2.0,2.0,,,,,,,,,,,,,,,,,,,,,,,,,,,,,,,,,,,,,,,,,700.4059374,None,700.4059374,None,700.4059374,None,3.0,6.490911203,700.4059374,None,700.4059374,None,2.0,8.548075871,706.4405935,None,700.4059374,None,5.0,10.25331009,708.5077978,None,700.4059374,None,space,1.563598647,10.27474392,None,700.4059374,None,700.4059374,None,,,,,,,,,,,1,2022_Mar_24_1356,SAR-soap,2021.1.2,59.98076944
5,Trial # 1,Group1-stimuli/group1-block1/real-group1-b1/Group1_IMG_0022.jpg,1,Group1_IMG_0022.jpg,,,,,0.0,0.0,0.0,0.0,,,,,,,,,,,,,,,,,,,,,,,,,,,,,,,,,,,,,718.9447727,None,718.9447727,None,718.9447727,None,2.0,73.2563848,718.9447727,None,718.9447727,None,1.0,74.8460098,791.7506149,None,718.9447727,None,1.0,76.75174434,793.3505615,None,718.9447727,None,space,1.38456011,76.78352638,None,718.9447727,None,718.9447727,None,712.2419287,None,712.2419287,None,712.2419287,None,,,,,1,2022_Mar_24_1356,SAR-soap,2021.1.2,59.98076944
6,Trial # 2,Group1-stimuli/group1-block1/fake-group2-b1/encoded_Group2_IMG_0386.jpg,0,encoded_Group2_IMG_0386.jpg,,,,,0.0,1.0,1.0,1.0,,,,,,,,,,,,,,,,,,,,,,,,,,,,,,,,,,,,,797.1517603,None,797.1517603,None,797.1517603,None,2.0,2.984838222,797.1517603,None,797.1517603,None,2.0,4.240876925,799.6864175,None,797.1517603,None,3.0,5.84496883,800.9525754,None,797.1517603,None,space,1.122465724,5.876715124,None,797.1517603,None,797.1517603,None,,,,,,,,,,,1,2022_Mar_24_1356,SAR-soap,2021.1.2,59.98076944
7,Trial # 3,Group1-stimuli/group1-block1/real-group1-b1/Group1_IMG_9704.jpg,1,Group1_IMG_9704.jpg,,,,,0.0,2.0,2.0,2.0,,,,,,,,,,,,,,,,,,,,,,,,,,,,,,,,,,,,,804.187798,None,804.187798,None,804.187798,None,1.0,2.009177852,804.187798,None,804.187798,None,1.0,2.699110736,805.7377947,None,804.187798,None,1.0,3.57015552,806.4381915,None,804.187798,None,space,0.154933268,3.595638619,None,804.187798,None,804.187798,None,,,,,,,,,,,1,2022_Mar_24_1356,SAR-soap,2021.1.2,59.98076944
8,Trial # 4,Group1-stimuli/group1-block1/real-group1-b1/Group1_IMG_0406.jpg,1,Group1_IMG_0406.jpg,,,,,0.0,3.0,3.0,3.0,,,,,,,,,,,,,,,,,,,,,,,,,,,,,,,,,,,,,807.9707731,None,807.9707731,None,807.9707731,None,2.0,2.665294349,807.9707731,None,807.9707731,None,2.0,4.05300125,810.1902632,None,807.9707731,None,2.0,5.592846862,811.5892148,None,807.9707731,None,space,0.160466483,5.621063142,None,807.9707731,None,807.9707731,None,,,,,,,,,,,1,2022_Mar_24_1356,SAR-soap,2021.1.2,59.98076944
9,Trial # 5,Group1-stimuli/group1-block1/fake-group2-b1/encoded_Group2_IMG_0364.jpg,0,encoded_Group2_IMG_0364.jpg,,,,,0.0,4.0,4.0,4.0,,,,,,,,,,,,,,,,,,,,,,,,,,,,,,,,,,,,,813.7901142,None,813.7901142,None,813.7901142,None,1.0,2.373947141,813.7901142,None,813.7901142,None,1.0,2.997388017,815.7082838,None,813.7901142,None,1.0,3.73501447,816.3404299,None,813.7901142,None,space,0.161421405,3.757113557,None,813.7901142,None,813.7901142,None,,,,,,,,,,,1,2022_Mar_24_1356,SAR-soap,2021.1.2,59.98076944
10,Trial # 6,Group1-stimuli/group1-block1/fake-group2-b1/encoded_Group2_IMG_0407.jpg,0,encoded_Group2_IMG_0407.jpg,,,,,0.0,5.0,5.0,5.0,,,,,,,,,,,,,,,,,,,,,,,,,,,,,,,,,,,,,817.8075168,None,817.8075168,None,817.8075168,None,1.0,1.627553067,817.8075168,None,817.8075168,None,1.0,4.816597738,818.9765152,None,817.8075168,None,2.0,6.657689939,822.1755137,None,817.8075168,None,space,0.217368164,6.681569533,None,817.8075168,None,817.8075168,None,,,,,,,,,,,1,2022_Mar_24_1356,SAR-soap,2021.1.2,59.98076944
11,Trial # 7,Group1-stimuli/group1-block1/real-group1-b1/Group1_IMG_0428.jpg,1,Group1_IMG_0428.jpg,,,,,0.0,6.0,6.0,6.0,,,,,,,,,,,,,,,,,,,,,,,,,,,,,,,,,,,,,824.7601656,None,824.7601656,None,824.7601656,None,3.0,2.391754153,824.7601656,None,824.7601656,None,3.0,3.747790129,826.6938681,None,824.7601656,None,5.0,6.487763294,828.0609901,None,824.7601656,None,space,1.055146165,5.712682374,None,824.7601656,None,824.7601656,None,,,,,,,,,,,1,2022_Mar_24_1356,SAR-soap,2021.1.2,59.98076944
12,Trial # 8,Group1-stimuli/group1-block1/fake-group2-b1/encoded_Group2_IMG_0474.jpg,0,encoded_Group2_IMG_0474.jpg,,,,,0.0,7.0,7.0,7.0,,,,,,,,,,,,,,,,,,,,,,,,,,,,,,,,,,,,,831.5625068,None,831.5625068,None,831.5625068,None,1.0,1.574658997,831.5625068,None,831.5625068,None,1.0,2.097180594,832.6795676,None,831.5625068,None,1.0,2.670642671,833.2127727,None,831.5625068,None,space,0.19123762,2.692796299,None,831.5625068,None,831.5625068,None,,,,,,,,,,,1,2022_Mar_24_1356,SAR-soap,2021.1.2,59.98076944
13,Trial # 9,Group1-stimuli/group1-block1/fake-group2-b1/encoded_Group2_IMG_1506.jpg,0,encoded_Group2_IMG_1506.jpg,,,,,0.0,8.0,8.0,8.0,,,,,,,,,,,,,,,,,,,,,,,,,,,,,,,,,,,,,834.4804655,None,834.4804655,None,834.4804655,None,5.0,6.647353079,834.4804655,None,834.4804655,None,4.0,4.620222719,837.3308408,None,834.4804655,None,3.0,8.45918059,838.6655032,None,834.4804655,None,space,0.979590218,8.019539607,None,834.4804655,None,834.4804655,None,,,,,,,,,,,1,2022_Mar_24_1356,SAR-soap,2021.1.2,59.98076944
14,Trial # 10,Group1-stimuli/group1-block1/real-group1-b1/Group1_IMG_9789.jpg,1,Group1_IMG_9789.jpg,,,,,0.0,9.0,9.0,9.0,,,,,,,,,,,,,,,,,,,,,,,,,,,,,,,,,,,,,843.5333754,None,843.5333754,None,843.5333754,None,1.0,1.541618037,843.5333754,None,843.5333754,None,1.0,2.496858887,844.6171037,None,843.5333754,None,1.0,3.169153564,845.5834554,None,843.5333754,None,space,0.200620203,3.191941859,None,843.5333754,None,843.5333754,None,,,,,,,,,,,1,2022_Mar_24_1356,SAR-soap,2021.1.2,59.98076944
15,Trial # 11,Group1-stimuli/group1-block1/real-group1-b1/Group1_IMG_9778.jpg,1,Group1_IMG_9778.jpg,,,,,0.0,10.0,10.0,10.0,,,,,,,,,,,,,,,,,,,,,,,,,,,,,,,,,,,,,846.9833367,None,846.9833367,None,846.9833367,None,3.0,1.845134315,846.9833367,None,846.9833367,None,3.0,2.834471959,848.3686718,None,846.9833367,None,3.0,3.673272773,849.3687031,None,846.9833367,None,space,0.409220136,3.700525433,None,846.9833367,None,846.9833367,None,,,,,,,,,,,1,2022_Mar_24_1356,SAR-soap,2021.1.2,59.98076944
16,Trial # 12,Group1-stimuli/group1-block1/real-group1-b1/Group1_IMG_9813.jpg,1,Group1_IMG_9813.jpg,,,,,0.0,11.0,11.0,11.0,,,,,,,,,,,,,,,,,,,,,,,,,,,,,,,,,,,,,851.1355762,None,851.1355762,None,851.1355762,None,1.0,1.44920481,851.1355762,None,851.1355762,None,1.0,2.238782668,852.1354158,None,851.1355762,None,1.0,2.711570497,852.9352531,None,851.1355762,None,space,0.184229745,2.742505104,None,851.1355762,None,851.1355762,None,,,,,,,,,,,1,2022_Mar_24_1356,SAR-soap,2021.1.2,59.98076944
17,Trial # 13,Group1-stimuli/group1-block1/real-group1-b1/Group1_IMG_0516.jpg,1,Group1_IMG_0516.jpg,,,,,0.0,12.0,12.0,12.0,,,,,,,,,,,,,,,,,,,,,,,,,,,,,,,,,,,,,854.1024717,None,854.1024717,None,854.1024717,None,4.0,3.304348178,854.1024717,None,854.1024717,None,2.0,5.143641302,856.303453,None,854.1024717,None,5.0,7.383046753,858.8043058,None,854.1024717,None,space,2.365924975,7.41707249,None,854.1024717,None,854.1024717,None,,,,,,,,,,,1,2022_Mar_24_1356,SAR-soap,2021.1.2,59.98076944
18,Trial # 14,Group1-stimuli/group1-block1/fake-group2-b1/encoded_Group2_IMG_0038.jpg,0,encoded_Group2_IMG_0038.jpg,,,,,0.0,13.0,13.0,13.0,,,,,,,,,,,,,,,,,,,,,,,,,,,,,,,,,,,,,863.9064236,None,863.9064236,None,863.9064236,None,2.0,3.383773874,863.9064236,None,863.9064236,None,1.0,5.14204026,866.8397026,None,863.9064236,None,2.0,7.180119822,868.6072658,None,863.9064236,None,space,0.282612437,7.212188642,None,863.9064236,None,863.9064236,None,,,,,,,,,,,1,2022_Mar_24_1356,SAR-soap,2021.1.2,59.98076944
19,Trial # 15,Group1-stimuli/group1-block1/real-group1-b1/Group1_IMG_5984.jpg,1,Group1_IMG_5984.jpg,,,,,0.0,14.0,14.0,14.0,,,,,,,,,,,,,,,,,,,,,,,,,,,,,,,,,,,,,871.4411819,None,871.4411819,None,871.4411819,None,1.0,1.493727056,871.4411819,None,871.4411819,None,1.0,2.282914117,872.4753364,None,871.4411819,None,1.0,2.755425173,873.2761697,None,871.4411819,None,space,0.253158834,2.780966607,None,871.4411819,None,871.4411819,None,,,,,,,,,,,1,2022_Mar_24_1356,SAR-soap,2021.1.2,59.98076944
20,Trial # 16,Group1-stimuli/group1-block1/real-group1-b1/Group1_IMG_0383.jpg,1,Group1_IMG_0383.jpg,,,,,0.0,15.0,15.0,15.0,,,,,,,,,,,,,,,,,,,,,,,,,,,,,,,,,,,,,874.5085433,None,874.5085433,None,874.5085433,None,3.0,2.505223182,874.5085433,None,874.5085433,None,2.0,4.528880128,876.5596476,None,874.5085433,None,5.0,5.501951257,878.5942954,None,874.5085433,None,space,0.339086312,5.521004626,None,874.5085433,None,874.5085433,None,,,,,,,,,,,1,2022_Mar_24_1356,SAR-soap,2021.1.2,59.98076944
21,Trial # 17,Group1-stimuli/group1-block1/fake-group2-b1/encoded_Group2_IMG_0456.jpg,0,encoded_Group2_IMG_0456.jpg,,,,,0.0,16.0,16.0,16.0,,,,,,,,,,,,,,,,,,,,,,,,,,,,,,,,,,,,,880.4268212,None,880.4268212,None,880.4268212,None,3.0,1.757774779,880.4268212,None,880.4268212,None,3.0,2.880215279,881.7272405,None,880.4268212,None,2.0,4.653144756,882.8610852,None,880.4268212,None,space,0.077851306,4.676261775,None,880.4268212,None,880.4268212,None,,,,,,,,,,,1,2022_Mar_24_1356,SAR-soap,2021.1.2,59.98076944
22,Trial # 18,Group1-stimuli/group1-block1/fake-group2-b1/encoded_Group2_IMG_8390.jpg,0,encoded_Group2_IMG_8390.jpg,,,,,0.0,17.0,17.0,17.0,,,,,,,,,,,,,,,,,,,,,,,,,,,,,,,,,,,,,885.2284369,None,885.2284369,None,885.2284369,None,2.0,5.239239872,885.2284369,None,885.2284369,None,2.0,6.810673572,889.2978446,None,885.2284369,None,6.0,7.849276714,891.5981112,None,885.2284369,None,space,0.387703613,7.869304409,None,885.2284369,None,885.2284369,None,,,,,,,,,,,1,2022_Mar_24_1356,SAR-soap,2021.1.2,59.98076944
23,Trial # 19,Group1-stimuli/group1-block1/real-group1-b1/Group1_IMG_0011.jpg,1,Group1_IMG_0011.jpg,,,,,0.0,18.0,18.0,18.0,,,,,,,,,,,,,,,,,,,,,,,,,,,,,,,,,,,,,893.5322313,None,893.5322313,None,893.5322313,None,2.0,2.298315238,893.5322313,None,893.5322313,None,2.0,3.453323439,895.3819795,None,893.5322313,None,3.0,4.593046397,896.5488204,None,893.5322313,None,space,0.161029403,4.623003757,None,893.5322313,None,893.5322313,None,,,,,,,,,,,1,2022_Mar_24_1356,SAR-soap,2021.1.2,59.98076944
24,Trial # 20,Group1-stimuli/group1-block1/fake-group2-b1/encoded_Group2_IMG_0328.jpg,0,encoded_Group2_IMG_0328.jpg,,,,,0.0,19.0,19.0,19.0,,,,,,,,,,,,,,,,,,,,,,,,,,,,,,,,,,,,,898.3503521,None,898.3503521,None,898.3503521,None,1.0,1.374202661,898.3503521,None,898.3503521,None,1.0,1.762948371,899.2663781,None,898.3503521,None,1.0,2.267749212,899.6662096,None,898.3503521,None,space,0.148982406,2.287269099,None,898.3503521,None,898.3503521,None,,,,,,,,,,,1,2022_Mar_24_1356,SAR-soap,2021.1.2,59.98076944
25,Trial # 21,Group1-stimuli/group1-block1/fake-group2-b1/encoded_Group2_IMG_0163.jpg,0,encoded_Group2_IMG_0163.jpg,,,,,0.0,20.0,20.0,20.0,,,,,,,,,,,,,,,,,,,,,,,,,,,,,,,,,,,,,900.8175318,None,900.8175318,None,900.8175318,None,4.0,2.680163379,900.8175318,None,900.8175318,None,3.0,24.22553343,902.2680174,None,900.8175318,None,4.0,25.73171412,924.6088141,None,900.8175318,None,space,1.151433716,25.75909066,None,900.8175318,None,900.8175318,None,,,,,,,,,,,1,2022_Mar_24_1356,SAR-soap,2021.1.2,59.98076944
26,Trial # 22,Group1-stimuli/group1-block1/real-group1-b1/Group1_IMG_9862.jpg,1,Group1_IMG_9862.jpg,,,,,0.0,21.0,21.0,21.0,,,,,,,,,,,,,,,,,,,,,,,,,,,,,,,,,,,,,927.7756319,None,927.7756319,None,927.7756319,None,1.0,2.183588277,927.7756319,None,927.7756319,None,1.0,2.58934977,929.0266285,None,927.7756319,None,1.0,3.19484258,929.9260118,None,927.7756319,None,space,0.909367936,3.223868985,None,927.7756319,None,927.7756319,None,,,,,,,,,,,1,2022_Mar_24_1356,SAR-soap,2021.1.2,59.98076944
27,Trial # 23,Group1-stimuli/group1-block1/fake-group2-b1/encoded_Group2_IMG_0296.jpg,0,encoded_Group2_IMG_0296.jpg,,,,,0.0,22.0,22.0,22.0,,,,,,,,,,,,,,,,,,,,,,,,,,,,,,,,,,,,,931.9427048,None,931.9427048,None,931.9427048,None,4.0,2.864683881,931.9427048,None,931.9427048,None,4.0,3.937411883,933.5448952,None,931.9427048,None,5.0,5.175776941,935.4443683,None,931.9427048,None,space,1.013446652,5.203537333,None,931.9427048,None,931.9427048,None,,,,,,,,,,,1,2022_Mar_24_1356,SAR-soap,2021.1.2,59.98076944
28,Trial # 24,Group1-stimuli/group1-block1/fake-group2-b1/encoded_Group2_IMG_0503.jpg,0,encoded_Group2_IMG_0503.jpg,,,,,0.0,23.0,23.0,23.0,,,,,,,,,,,,,,,,,,,,,,,,,,,,,,,,,,,,,938.2110068,None,938.2110068,None,938.2110068,None,4.0,3.266897389,938.2110068,None,938.2110068,None,3.0,4.238800668,939.4460336,None,938.2110068,None,4.0,5.646206733,942.0125734,None,938.2110068,None,space,0.853292991,5.675067333,None,938.2110068,None,938.2110068,None,,,,,,,,,,,1,2022_Mar_24_1356,SAR-soap,2021.1.2,59.98076944
29,Trial # 25,Group1-stimuli/group1-block1/fake-group2-b1/encoded_Group2_IMG_9804.jpg,0,encoded_Group2_IMG_9804.jpg,,,,,0.0,24.0,24.0,24.0,,,,,,,,,,,,,,,,,,,,,,,,,,,,,,,,,,,,,944.7639556,None,944.7639556,None,944.7639556,None,1.0,1.413655908,944.7639556,None,944.7639556,None,1.0,1.803063218,945.7306013,None,944.7639556,None,1.0,2.308562436,946.1316326,None,944.7639556,None,space,0.515732822,2.337073028,None,944.7639556,None,944.7639556,None,,,,,,,,,,,1,2022_Mar_24_1356,SAR-soap,2021.1.2,59.98076944
30,Trial # 26,Group1-stimuli/group1-block1/real-group1-b1/Group1_IMG_0391.jpg,1,Group1_IMG_0391.jpg,,,,,0.0,25.0,25.0,25.0,,,,,,,,,,,,,,,,,,,,,,,,,,,,,,,,,,,,,947.6806456,None,947.6806456,None,947.6806456,None,2.0,1.594699421,947.6806456,None,947.6806456,None,2.0,3.785251508,948.8162443,None,947.6806456,None,2.0,4.48939288,949.8491852,None,947.6806456,None,space,0.791754248,4.515400364,None,947.6806456,None,947.6806456,None,,,,,,,,,,,1,2022_Mar_24_1356,SAR-soap,2021.1.2,59.98076944
31,Trial # 27,Group1-stimuli/group1-block1/fake-group2-b1/encoded_Group2_IMG_3584.jpg,0,encoded_Group2_IMG_3584.jpg,,,,,0.0,26.0,26.0,26.0,,,,,,,,,,,,,,,,,,,,,,,,,,,,,,,,,,,,,953.0158135,None,953.0158135,None,953.0158135,None,2.0,2.209999748,953.0158135,None,953.0158135,None,2.0,2.767732539,954.7683275,None,953.0158135,None,2.0,4.604463417,955.334165,None,953.0158135,None,space,0.603996901,4.62827848,None,953.0158135,None,953.0158135,None,,,,,,,,,,,1,2022_Mar_24_1356,SAR-soap,2021.1.2,59.98076944
32,Trial # 28,Group1-stimuli/group1-block1/fake-group2-b1/encoded_Group2_IMG_0434.jpg,0,encoded_Group2_IMG_0434.jpg,,,,,0.0,27.0,27.0,27.0,,,,,,,,,,,,,,,,,,,,,,,,,,,,,,,,,,,,,958.3020209,None,958.3020209,None,958.3020209,None,5.0,10.30195548,958.3020209,None,958.3020209,None,5.0,3.805661902,960.2365756,None,958.3020209,None,7.0,8.613025065,961.6685787,None,958.3020209,None,space,5.99698777,5.274645714,None,958.3020209,None,958.3020209,None,,,,,,,,,,,1,2022_Mar_24_1356,SAR-soap,2021.1.2,59.98076944
33,Trial # 29,Group1-stimuli/group1-block1/fake-group2-b1/encoded_Group2_IMG_9575.jpg,0,encoded_Group2_IMG_9575.jpg,,,,,0.0,28.0,28.0,28.0,,,,,,,,,,,,,,,,,,,,,,,,,,,,,,,,,,,,,969.6059492,None,969.6059492,None,969.6059492,None,1.0,2.18362181,969.6059492,None,969.6059492,None,1.0,2.655371292,970.8885748,None,969.6059492,None,1.0,3.095467953,971.822058,None,969.6059492,None,space,0.635953515,3.126888623,None,969.6059492,None,969.6059492,None,,,,,,,,,,,1,2022_Mar_24_1356,SAR-soap,2021.1.2,59.98076944
34,Trial # 30,Group1-stimuli/group1-block1/fake-group2-b1/encoded_Group2_IMG_1025.jpg,0,encoded_Group2_IMG_1025.jpg,,,,,0.0,29.0,29.0,29.0,,,,,,,,,,,,,,,,,,,,,,,,,,,,,,,,,,,,,973.422917,None,973.422917,None,973.422917,None,1.0,1.685254834,973.422917,None,973.422917,None,1.0,2.074000903,974.6572692,None,973.422917,None,1.0,2.746244128,975.0572523,None,973.422917,None,space,0.488150892,2.779784682,None,973.422917,None,973.422917,None,,,,,,,,,,,1,2022_Mar_24_1356,SAR-soap,2021.1.2,59.98076944
35,Trial # 31,Group1-stimuli/group1-block1/real-group1-b1/Group1_IMG_0502.jpg,1,Group1_IMG_0502.jpg,,,,,0.0,30.0,30.0,30.0,,,,,,,,,,,,,,,,,,,,,,,,,,,,,,,,,,,,,976.7239342,None,976.7239342,None,976.7239342,None,4.0,1.598858268,976.7239342,None,976.7239342,None,4.0,3.089144523,977.8736117,None,976.7239342,None,5.0,4.361904197,979.3754763,None,976.7239342,None,space,0.521980432,4.390201562,None,976.7239342,None,976.7239342,None,,,,,,,,,,,1,2022_Mar_24_1356,SAR-soap,2021.1.2,59.98076944
36,Trial # 32,Group1-stimuli/group1-block1/real-group1-b1/Group1_IMG_0182.jpg,1,Group1_IMG_0182.jpg,,,,,0.0,31.0,31.0,31.0,,,,,,,,,,,,,,,,,,,,,,,,,,,,,,,,,,,,,981.6755733,None,981.6755733,None,981.6755733,None,6.0,7.487164801,981.6755733,None,981.6755733,None,6.0,7.85954094,983.2925224,None,981.6755733,None,6.0,5.297209172,984.9925897,None,981.6755733,None,space,3.677255805,5.329596752,None,981.6755733,None,981.6755733,None,,,,,,,,,,,1,2022_Mar_24_1356,SAR-soap,2021.1.2,59.98076944
37,Trial # 33,Group1-stimuli/group1-block1/fake-group2-b1/encoded_Group2_IMG_2728.jpg,0,encoded_Group2_IMG_2728.jpg,,,,,0.0,32.0,32.0,32.0,,,,,,,,,,,,,,,,,,,,,,,,,,,,,,,,,,,,,990.7114002,None,990.7114002,None,990.7114002,None,1.0,1.365108488,990.7114002,None,990.7114002,None,1.0,1.754435598,991.6283569,None,990.7114002,None,1.0,2.391069088,992.0282199,None,990.7114002,None,space,0.421696923,2.420787552,None,990.7114002,None,990.7114002,None,,,,,,,,,,,1,2022_Mar_24_1356,SAR-soap,2021.1.2,59.98076944
38,Trial # 34,Group1-stimuli/group1-block1/fake-group2-b1/encoded_Group2_IMG_4867.jpg,0,encoded_Group2_IMG_4867.jpg,,,,,0.0,33.0,33.0,33.0,,,,,,,,,,,,,,,,,,,,,,,,,,,,,,,,,,,,,993.5797335,None,993.5797335,None,993.5797335,None,3.0,1.381311379,993.5797335,None,993.5797335,None,2.0,2.904356766,994.5137924,None,993.5797335,None,4.0,4.209958253,996.0460977,None,993.5797335,None,space,0.624614877,4.237737158,None,993.5797335,None,993.5797335,None,,,,,,,,,,,1,2022_Mar_24_1356,SAR-soap,2021.1.2,59.98076944
39,Trial # 35,Group1-stimuli/group1-block1/real-group1-b1/Group1_IMG_9894.jpg,1,Group1_IMG_9894.jpg,,,,,0.0,34.0,34.0,34.0,,,,,,,,,,,,,,,,,,,,,,,,,,,,,,,,,,,,,998.4813287,None,998.4813287,None,998.4813287,None,1.0,1.467414976,998.4813287,None,998.4813287,None,1.0,1.957740985,999.4986278,None,998.4813287,None,1.0,2.39555029,999.9982238,None,998.4813287,None,space,1.291187497,2.427432202,None,998.4813287,None,998.4813287,None,,,,,,,,,,,1,2022_Mar_24_1356,SAR-soap,2021.1.2,59.98076944
40,Trial # 36,Group1-stimuli/group1-block1/fake-group2-b1/encoded_Group2_IMG_0444.jpg,0,encoded_Group2_IMG_0444.jpg,,,,,0.0,35.0,35.0,35.0,,,,,,,,,,,,,,,,,,,,,,,,,,,,,,,,,,,,,1002.214987,None,1002.214987,None,1002.214987,None,2.0,2.414137855,1002.214987,None,1002.214987,None,1.0,3.103178361,1004.183613,None,1002.214987,None,1.0,4.307285581,1004.882547,None,1002.214987,None,space,0.496395304,4.336715713,None,1002.214987,None,1002.214987,None,,,,,,,,,,,1,2022_Mar_24_1356,SAR-soap,2021.1.2,59.98076944
41,Trial # 37,Group1-stimuli/group1-block1/real-group1-b1/Group1_IMG_2656.jpg,1,Group1_IMG_2656.jpg,,,,,0.0,36.0,36.0,36.0,,,,,,,,,,,,,,,,,,,,,,,,,,,,,,,,,,,,,1007.082681,None,1007.082681,None,1007.082681,None,1.0,1.244833309,1007.082681,None,1007.082681,None,1.0,2.101965812,1007.866639,None,1007.082681,None,1.0,2.605228319,1008.734198,None,1007.082681,None,space,0.513198398,2.6322082,None,1007.082681,None,1007.082681,None,,,,,,,,,,,1,2022_Mar_24_1356,SAR-soap,2021.1.2,59.98076944
42,Trial # 38,Group1-stimuli/group1-block1/real-group1-b1/Group1_IMG_0207.jpg,1,Group1_IMG_0207.jpg,,,,,0.0,37.0,37.0,37.0,,,,,,,,,,,,,,,,,,,,,,,,,,,,,,,,,,,,,1010.268336,None,1010.268336,None,1010.268336,None,1.0,1.338816642,1010.268336,None,1010.268336,None,1.0,1.76149998,1011.151588,None,1010.268336,None,1.0,2.333739743,1011.584493,None,1010.268336,None,space,0.804380147,2.355053506,None,1010.268336,None,1010.268336,None,,,,,,,,,,,1,2022_Mar_24_1356,SAR-soap,2021.1.2,59.98076944
43,Trial # 39,Group1-stimuli/group1-block1/real-group1-b1/Group1_IMG_9638.jpg,1,Group1_IMG_9638.jpg,,,,,0.0,38.0,38.0,38.0,,,,,,,,,,,,,,,,,,,,,,,,,,,,,,,,,,,,,1013.486261,None,1013.486261,None,1013.486261,None,3.0,8.471943936,1013.486261,None,1013.486261,None,2.0,4.242483947,1015.420023,None,1013.486261,None,5.0,6.216481903,1017.285997,None,1013.486261,None,space,2.812958232,6.250720269,None,1013.486261,None,1013.486261,None,,,,,,,,,,,1,2022_Mar_24_1356,SAR-soap,2021.1.2,59.98076944
44,Trial # 40,Group1-stimuli/group1-block1/real-group1-b1/Group1_IMG_0148.jpg,1,Group1_IMG_0148.jpg,,,,,0.0,39.0,39.0,39.0,,,,,,,,,,,,,,,,,,,,,,,,,,,,,,,,,,,,,1022.58755,None,1022.58755,None,1022.58755,None,4.0,1.761590835,1022.58755,None,1022.58755,None,5.0,2.68335395,1023.889801,None,1022.58755,None,5.0,4.05495053,1024.822146,None,1022.58755,None,space,0.518473529,4.079962152,None,1022.58755,None,1022.58755,None,,,,,,,,,,,1,2022_Mar_24_1356,SAR-soap,2021.1.2,59.98076944
45,Trial # 41,Group1-stimuli/group1-block1/real-group1-b1/Group1_IMG_2891.jpg,1,Group1_IMG_2891.jpg,,,,,0.0,40.0,40.0,40.0,,,,,,,,,,,,,,,,,,,,,,,,,,,,,,,,,,,,,1027.221807,None,1027.221807,None,1027.221807,None,1.0,1.34452236,1027.221807,None,1027.221807,None,1.0,1.767396523,1028.106638,None,1027.221807,None,1.0,2.139825224,1028.540075,None,1027.221807,None,space,0.535886566,2.165510526,None,1027.221807,None,1027.221807,None,,,,,,,,,,,1,2022_Mar_24_1356,SAR-soap,2021.1.2,59.98076944
46,Trial # 42,Group1-stimuli/group1-block1/real-group1-b1/Group1_IMG_0157.jpg,1,Group1_IMG_0157.jpg,,,,,0.0,41.0,41.0,41.0,,,,,,,,,,,,,,,,,,,,,,,,,,,,,,,,,,,,,1029.974554,None,1029.974554,None,1029.974554,None,3.0,3.230946662,1029.974554,None,1029.974554,None,3.0,9.889227291,1032.758284,None,1029.974554,None,4.0,18.29649254,1039.427622,None,1029.974554,None,space,0.869766659,18.32662358,None,1029.974554,None,1029.974554,None,,,,,,,,,,,1,2022_Mar_24_1356,SAR-soap,2021.1.2,59.98076944
47,Trial # 43,Group1-stimuli/group1-block1/real-group1-b1/Group1_IMG_9833.jpg,1,Group1_IMG_9833.jpg,,,,,0.0,42.0,42.0,42.0,,,,,,,,,,,,,,,,,,,,,,,,,,,,,,,,,,,,,1049.263786,None,1049.263786,None,1049.263786,None,1.0,1.594997922,1049.263786,None,1049.263786,None,1.0,2.217852055,1050.396631,None,1049.263786,None,1.0,2.656037866,1051.030129,None,1049.263786,None,space,0.459943738,2.682191586,None,1049.263786,None,1049.263786,None,,,,,,,,,,,1,2022_Mar_24_1356,SAR-soap,2021.1.2,59.98076944
48,Trial # 44,Group1-stimuli/group1-block1/fake-group2-b1/encoded_Group2_IMG_2230.jpg,0,encoded_Group2_IMG_2230.jpg,,,,,0.0,43.0,43.0,43.0,,,,,,,,,,,,,,,,,,,,,,,,,,,,,,,,,,,,,1052.41388,None,1052.41388,None,1052.41388,None,3.0,1.56359861,1052.41388,None,1052.41388,None,5.0,2.486097679,1053.5315,None,1052.41388,None,4.0,3.625191832,1054.465541,None,1052.41388,None,space,0.484543111,3.652800875,None,1052.41388,None,1052.41388,None,,,,,,,,,,,1,2022_Mar_24_1356,SAR-soap,2021.1.2,59.98076944
49,Trial # 45,Group1-stimuli/group1-block1/real-group1-b1/Group1_IMG_9966.jpg,1,Group1_IMG_9966.jpg,,,,,0.0,44.0,44.0,44.0,,,,,,,,,,,,,,,,,,,,,,,,,,,,,,,,,,,,,1056.615261,None,1056.615261,None,1056.615261,None,2.0,2.1098891,1056.615261,None,1056.615261,None,2.0,3.366753658,1058.26568,None,1056.615261,None,7.0,4.436983073,1059.532734,None,1056.615261,None,space,0.882506902,4.462982829,None,1056.615261,None,1056.615261,None,,,,,,,,,,,1,2022_Mar_24_1356,SAR-soap,2021.1.2,59.98076944
50,Trial # 46,Group1-stimuli/group1-block1/real-group1-b1/Group1_IMG_0239.jpg,1,Group1_IMG_0239.jpg,,,,,0.0,45.0,45.0,45.0,,,,,,,,,,,,,,,,,,,,,,,,,,,,,,,,,,,,,1062.000393,None,1062.000393,None,1062.000393,None,1.0,1.382057365,1062.000393,None,1062.000393,None,1.0,2.273189298,1062.934477,None,1062.000393,None,1.0,2.810606596,1063.835268,None,1062.000393,None,space,0.515771407,2.840428763,None,1062.000393,None,1062.000393,None,,,,,,,,,,,1,2022_Mar_24_1356,SAR-soap,2021.1.2,59.98076944
51,Trial # 47,Group1-stimuli/group1-block1/fake-group2-b1/encoded_Group2_IMG_0536.jpg,0,encoded_Group2_IMG_0536.jpg,,,,,0.0,46.0,46.0,46.0,,,,,,,,,,,,,,,,,,,,,,,,,,,,,,,,,,,,,1065.384612,None,1065.384612,None,1065.384612,None,1.0,1.330005358,1065.384612,None,1065.384612,None,1.0,1.985824778,1066.268772,None,1065.384612,None,1.0,3.058067881,1066.935454,None,1065.384612,None,space,0.929440676,3.086237563,None,1065.384612,None,1065.384612,None,,,,,,,,,,,1,2022_Mar_24_1356,SAR-soap,2021.1.2,59.98076944
52,Trial # 48,Group1-stimuli/group1-block1/fake-group2-b1/encoded_Group2_IMG_0521.jpg,0,encoded_Group2_IMG_0521.jpg,,,,,0.0,47.0,47.0,47.0,,,,,,,,,,,,,,,,,,,,,,,,,,,,,,,,,,,,,1069.420068,None,1069.420068,None,1069.420068,None,3.0,1.480013431,1069.420068,None,1069.420068,None,2.0,2.302232271,1070.452574,None,1069.420068,None,4.0,3.507373996,1071.286061,None,1069.420068,None,space,0.629285528,3.535942398,None,1069.420068,None,1069.420068,None,,,,,,,,,,,1,2022_Mar_24_1356,SAR-soap,2021.1.2,59.98076944
53,Trial # 49,Group1-stimuli/group1-block1/fake-group2-b1/encoded_Group2_IMG_9924.jpg,0,encoded_Group2_IMG_9924.jpg,,,,,0.0,48.0,48.0,48.0,,,,,,,,,,,,,,,,,,,,,,,,,,,,,,,,,,,,,1073.603829,None,1073.603829,None,1073.603829,None,1.0,1.271882279,1073.603829,None,1073.603829,None,1.0,1.728095816,1074.438209,None,1073.603829,None,1.0,2.132043508,1074.904572,None,1073.603829,None,space,0.659194349,2.166690943,None,1073.603829,None,1073.603829,None,,,,,,,,,,,1,2022_Mar_24_1356,SAR-soap,2021.1.2,59.98076944
54,Trial # 50,Group1-stimuli/group1-block1/real-group1-b1/Group1_IMG_9730.jpg,1,Group1_IMG_9730.jpg,,,,,0.0,49.0,49.0,49.0,,,,,,,,,,,,,,,,,,,,,,,,,,,,,,,,,,,,,1076.471789,None,1076.471789,None,1076.471789,None,6.0,11.46319515,1076.471789,None,1076.471789,None,6.0,10.73471154,1084.624447,None,1076.471789,None,4.0,12.30746506,1085.723959,None,1076.471789,None,space,0.870104721,12.33156811,None,1076.471789,None,1076.471789,None,,,,,,,,,,,1,2022_Mar_24_1356,SAR-soap,2021.1.2,59.98076944
55,Trial # 51,Group1-stimuli/group1-block1/real-group1-b1/Group1_IMG_0053.jpg,1,Group1_IMG_0053.jpg,,,,,0.0,50.0,50.0,50.0,,,,,,,,,,,,,,,,,,,,,,,,,,,,,,,,,,,,,1089.726027,None,1089.726027,None,1089.726027,None,1.0,4.114339661,1089.726027,None,1089.726027,None,1.0,4.470986264,1093.393546,None,1089.726027,None,1.0,4.943655328,1093.760646,None,1089.726027,None,space,0.608495266,4.970603862,None,1089.726027,None,1089.726027,None,,,,,,,,,,,1,2022_Mar_24_1356,SAR-soap,2021.1.2,59.98076944
56,Trial # 52,Group1-stimuli/group1-block1/real-group1-b1/Group1_IMG_9698.jpg,1,Group1_IMG_9698.jpg,,,,,0.0,51.0,51.0,51.0,,,,,,,,,,,,,,,,,,,,,,,,,,,,,,,,,,,,,1095.361482,None,1095.361482,None,1095.361482,None,1.0,1.629604397,1095.361482,None,1095.361482,None,1.0,2.085115177,1096.544463,None,1095.361482,None,1.0,3.122077674,1097.010715,None,1095.361482,None,space,0.630876452,3.151575018,None,1095.361482,None,1095.361482,None,,,,,,,,,,,1,2022_Mar_24_1356,SAR-soap,2021.1.2,59.98076944
57,Trial # 53,Group1-stimuli/group1-block1/fake-group2-b1/encoded_Group2_IMG_0553.jpg,0,encoded_Group2_IMG_0553.jpg,,,,,0.0,52.0,52.0,52.0,,,,,,,,,,,,,,,,,,,,,,,,,,,,,,,,,,,,,1099.178897,None,1099.178897,None,1099.178897,None,1.0,10.12054329,1099.178897,None,1099.178897,None,1.0,10.77701773,1108.848218,None,1099.178897,None,1.0,11.41546756,1109.516003,None,1099.178897,None,space,0.581941202,11.44794867,None,1099.178897,None,1099.178897,None,,,,,,,,,,,1,2022_Mar_24_1356,SAR-soap,2021.1.2,59.98076944
58,Trial # 54,Group1-stimuli/group1-block1/fake-group2-b1/encoded_Group2_IMG_9758.jpg,0,encoded_Group2_IMG_9758.jpg,,,,,0.0,53.0,53.0,53.0,,,,,,,,,,,,,,,,,,,,,,,,,,,,,,,,,,,,,1111.249195,None,1111.249195,None,1111.249195,None,3.0,1.462197134,1111.249195,None,1111.249195,None,3.0,2.385625118,1112.265733,None,1111.249195,None,4.0,3.291464922,1113.199464,None,1111.249195,None,space,0.567156236,3.319155766,None,1111.249195,None,1111.249195,None,,,,,,,,,,,1,2022_Mar_24_1356,SAR-soap,2021.1.2,59.98076944
59,Trial # 55,Group1-stimuli/group1-block1/fake-group2-b1/encoded_Group2_IMG_0339.jpg,0,encoded_Group2_IMG_0339.jpg,,,,,0.0,54.0,54.0,54.0,,,,,,,,,,,,,,,,,,,,,,,,,,,,,,,,,,,,,1115.150078,None,1115.150078,None,1115.150078,None,1.0,1.513075277,1115.150078,None,1115.150078,None,1.0,2.16954227,1116.216935,None,1115.150078,None,2.0,4.041820075,1116.88385,None,1115.150078,None,space,0.994990272,3.703108276,None,1115.150078,None,1115.150078,None,,,,,,,,,,,1,2022_Mar_24_1356,SAR-soap,2021.1.2,59.98076944
60,Trial # 56,Group1-stimuli/group1-block1/real-group1-b1/Group1_IMG_0314.jpg,1,Group1_IMG_0314.jpg,,,,,0.0,55.0,55.0,55.0,,,,,,,,,,,,,,,,,,,,,,,,,,,,,,,,,,,,,1119.884613,None,1119.884613,None,1119.884613,None,1.0,1.910709094,1119.884613,None,1119.884613,None,1.0,2.567377471,1121.335816,None,1119.884613,None,1.0,3.505169105,1122.001868,None,1119.884613,None,space,0.668071112,3.530595243,None,1119.884613,None,1119.884613,None,,,,,,,,,,,1,2022_Mar_24_1356,SAR-soap,2021.1.2,59.98076944
61,Trial # 57,Group1-stimuli/group1-block1/fake-group2-b1/encoded_Group2_IMG_0532.jpg,0,encoded_Group2_IMG_0532.jpg,,,,,0.0,56.0,56.0,56.0,,,,,,,,,,,,,,,,,,,,,,,,,,,,,,,,,,,,,1124.086054,None,1124.086054,None,1124.086054,None,3.0,2.912805791,1124.086054,None,1124.086054,None,3.0,3.618387928,1126.070415,None,1124.086054,None,4.0,5.092160522,1127.270276,None,1124.086054,None,space,0.609165481,5.120595881,None,1124.086054,None,1124.086054,None,,,,,,,,,,,1,2022_Mar_24_1356,SAR-soap,2021.1.2,59.98076944
62,Trial # 58,Group1-stimuli/group1-block1/fake-group2-b1/encoded_Group2_IMG_0462.jpg,0,encoded_Group2_IMG_0462.jpg,,,,,0.0,57.0,57.0,57.0,,,,,,,,,,,,,,,,,,,,,,,,,,,,,,,,,,,,,1129.854865,None,1129.854865,None,1129.854865,None,4.0,2.096302071,1129.854865,None,1129.854865,None,4.0,3.319121504,1131.50599,None,1129.854865,None,4.0,4.724545853,1132.738524,None,1129.854865,None,space,0.7600937,4.75268964,None,1129.854865,None,1129.854865,None,,,,,,,,,,,1,2022_Mar_24_1356,SAR-soap,2021.1.2,59.98076944
63,Trial # 59,Group1-stimuli/group1-block1/real-group1-b1/Group1_IMG_0172.jpg,1,Group1_IMG_0172.jpg,,,,,0.0,58.0,58.0,58.0,,,,,,,,,,,,,,,,,,,,,,,,,,,,,,,,,,,,,1135.406441,None,1135.406441,None,1135.406441,None,1.0,2.550802319,1135.406441,None,1135.406441,None,1.0,3.038355708,1137.507623,None,1135.406441,None,1.0,4.045128796,1138.006814,None,1135.406441,None,space,0.596003889,4.076636579,None,1135.406441,None,1135.406441,None,,,,,,,,,,,1,2022_Mar_24_1356,SAR-soap,2021.1.2,59.98076944
64,Trial # 60,Group1-stimuli/group1-block1/real-group1-b1/Group1_IMG_4841.jpg,1,Group1_IMG_4841.jpg,,,,,0.0,59.0,59.0,59.0,,,,,,,,,,,,,,,,,,,,,,,,,,,,,,,,,,,,,1140.108458,None,1140.108458,None,1140.108458,None,4.0,2.851830973,1140.108458,None,1140.108458,None,4.0,4.725189382,1142.158416,None,1140.108458,None,5.0,5.598313465,1144.392358,None,1140.108458,None,space,0.775373911,5.631759192,None,1140.108458,None,1140.108458,None,,,,,,,,,,,1,2022_Mar_24_1356,SAR-soap,2021.1.2,59.98076944
65,Trial # 61,Group1-stimuli/group1-block1/fake-group2-b1/encoded_Group2_IMG_0352.jpg,0,encoded_Group2_IMG_0352.jpg,,,,,0.0,60.0,60.0,60.0,,,,,,,,,,,,,,,,,,,,,,,,,,,,,,,,,,,,,1146.543493,None,1146.543493,None,1146.543493,None,1.0,1.397713495,1146.543493,None,1146.543493,None,1.0,2.053483906,1147.492884,None,1146.543493,None,1.0,2.460569769,1148.160175,None,1146.543493,None,space,0.578687465,2.488130091,None,1146.543493,None,1146.543493,None,,,,,,,,,,,1,2022_Mar_24_1356,SAR-soap,2021.1.2,59.98076944
66,Trial # 62,Group1-stimuli/group1-block1/fake-group2-b1/encoded_Group2_IMG_9726.jpg,0,encoded_Group2_IMG_9726.jpg,,,,,0.0,61.0,61.0,61.0,,,,,,,,,,,,,,,,,,,,,,,,,,,,,,,,,,,,,1149.644496,None,1149.644496,None,1149.644496,None,4.0,2.264173704,1149.644496,None,1149.644496,None,4.0,2.83557009,1150.811222,None,1149.644496,None,3.0,3.84097888,1152.044623,None,1149.644496,None,space,0.535226813,3.868250204,None,1149.644496,None,1149.644496,None,,,,,,,,,,,1,2022_Mar_24_1356,SAR-soap,2021.1.2,59.98076944
67,Trial # 63,Group1-stimuli/group1-block1/fake-group2-b1/encoded_Group2_IMG_9785.jpg,0,encoded_Group2_IMG_9785.jpg,,,,,0.0,62.0,62.0,62.0,,,,,,,,,,,,,,,,,,,,,,,,,,,,,,,,,,,,,1154.062199,None,1154.062199,None,1154.062199,None,2.0,2.06230841,1154.062199,None,1154.062199,None,2.0,3.15216123,1155.679469,None,1154.062199,None,3.0,4.723663762,1156.780062,None,1154.062199,None,space,1.159721421,4.752858827,None,1154.062199,None,1154.062199,None,,,,,,,,,,,1,2022_Mar_24_1356,SAR-soap,2021.1.2,59.98076944
68,Trial # 64,Group1-stimuli/group1-block1/fake-group2-b1/encoded_Group2_IMG_0440.jpg,0,encoded_Group2_IMG_0440.jpg,,,,,0.0,63.0,63.0,63.0,,,,,,,,,,,,,,,,,,,,,,,,,,,,,,,,,,,,,1160.014396,None,1160.014396,None,1160.014396,None,4.0,4.833790942,1160.014396,None,1160.014396,None,4.0,6.106720717,1162.514984,None,1160.014396,None,3.0,6.611311907,1165.682775,None,1160.014396,None,space,0.685450218,6.642863253,None,1160.014396,None,1160.014396,None,,,,,,,,,,,1,2022_Mar_24_1356,SAR-soap,2021.1.2,59.98076944
69,Trial # 65,Group1-stimuli/group1-block1/fake-group2-b1/encoded_Group2_IMG_1695.jpg,0,encoded_Group2_IMG_1695.jpg,,,,,0.0,64.0,64.0,64.0,,,,,,,,,,,,,,,,,,,,,,,,,,,,,,,,,,,,,1167.366155,None,1167.366155,None,1167.366155,None,1.0,1.681343649,1167.366155,None,1167.366155,None,1.0,2.102980071,1168.601288,None,1167.366155,None,1.0,2.576113541,1169.034289,None,1167.366155,None,space,0.686212679,2.604967434,None,1167.366155,None,1167.366155,None,,,,,,,,,,,1,2022_Mar_24_1356,SAR-soap,2021.1.2,59.98076944
70,Trial # 66,Group1-stimuli/group1-block1/real-group1-b1/Group1_IMG_0552.jpg,1,Group1_IMG_0552.jpg,,,,,0.0,65.0,65.0,65.0,,,,,,,,,,,,,,,,,,,,,,,,,,,,,,,,,,,,,1170.701068,None,1170.701068,None,1170.701068,None,1.0,2.070713064,1170.701068,None,1170.701068,None,1.0,2.894317874,1172.318458,None,1170.701068,None,1.0,3.767073031,1173.1513,None,1170.701068,None,space,0.704158716,3.787376446,None,1170.701068,None,1170.701068,None,,,,,,,,,,,1,2022_Mar_24_1356,SAR-soap,2021.1.2,59.98076944
71,Trial # 67,Group1-stimuli/group1-block1/real-group1-b1/Group1_IMG_1029.jpg,1,Group1_IMG_1029.jpg,,,,,0.0,66.0,66.0,66.0,,,,,,,,,,,,,,,,,,,,,,,,,,,,,,,,,,,,,1175.269102,None,1175.269102,None,1175.269102,None,2.0,29.6012227,1175.269102,None,1175.269102,None,2.0,30.2913434,1204.411847,None,1175.269102,None,2.0,31.33051294,1205.111217,None,1175.269102,None,space,1.778614008,31.35436418,None,1175.269102,None,1175.269102,None,,,,,,,,,,,1,2022_Mar_24_1356,SAR-soap,2021.1.2,59.98076944
72,Trial # 68,Group1-stimuli/group1-block1/fake-group2-b1/encoded_Group2_IMG_6517.jpg,0,encoded_Group2_IMG_6517.jpg,,,,,0.0,67.0,67.0,67.0,,,,,,,,,,,,,,,,,,,,,,,,,,,,,,,,,,,,,1208.428741,None,1208.428741,None,1208.428741,None,1.0,2.314572541,1208.428741,None,1208.428741,None,1.0,2.837636561,1210.296064,None,1208.428741,None,1.0,3.240515942,1210.830092,None,1208.428741,None,space,0.493996289,3.269280267,None,1208.428741,None,1208.428741,None,,,,,,,,,,,1,2022_Mar_24_1356,SAR-soap,2021.1.2,59.98076944
73,Trial # 69,Group1-stimuli/group1-block1/fake-group2-b1/encoded_Group2_IMG_0002.jpg,0,encoded_Group2_IMG_0002.jpg,,,,,0.0,68.0,68.0,68.0,,,,,,,,,,,,,,,,,,,,,,,,,,,,,,,,,,,,,1212.212452,None,1212.212452,None,1212.212452,None,2.0,1.56327312,1212.212452,None,1212.212452,None,2.0,2.086917742,1213.331708,None,1212.212452,None,2.0,3.191854632,1213.864546,None,1212.212452,None,space,0.915521138,2.886560234,None,1212.212452,None,1212.212452,None,,,,,,,,,,,1,2022_Mar_24_1356,SAR-soap,2021.1.2,59.98076944
74,Trial # 70,Group1-stimuli/group1-block1/real-group1-b1/Group1_IMG_0495.jpg,1,Group1_IMG_0495.jpg,,,,,0.0,69.0,69.0,69.0,,,,,,,,,,,,,,,,,,,,,,,,,,,,,,,,,,,,,1216.064701,None,1216.064701,None,1216.064701,None,1.0,1.594485136,1216.064701,None,1216.064701,None,1.0,2.015735292,1217.198289,None,1216.064701,None,1.0,2.420909867,1217.631469,None,1216.064701,None,space,0.49954932,2.446945144,None,1216.064701,None,1216.064701,None,,,,,,,,,,,1,2022_Mar_24_1356,SAR-soap,2021.1.2,59.98076944
75,Trial # 71,Group1-stimuli/group1-block1/real-group1-b1/Group1_IMG_1391.jpg,1,Group1_IMG_1391.jpg,,,,,0.0,70.0,70.0,70.0,,,,,,,,,,,,,,,,,,,,,,,,,,,,,,,,,,,,,1219.032862,None,1219.032862,None,1219.032862,None,3.0,1.714737023,1219.032862,None,1219.032862,None,2.0,2.638087976,1220.300177,None,1219.032862,None,2.0,3.842982046,1221.233241,None,1219.032862,None,space,0.642364108,3.873216993,None,1219.032862,None,1219.032862,None,,,,,,,,,,,1,2022_Mar_24_1356,SAR-soap,2021.1.2,59.98076944
76,Trial # 72,Group1-stimuli/group1-block1/real-group1-b1/Group1_IMG_0343.jpg,1,Group1_IMG_0343.jpg,,,,,0.0,71.0,71.0,71.0,,,,,,,,,,,,,,,,,,,,,,,,,,,,,,,,,,,,,1223.600021,None,1223.600021,None,1223.600021,None,1.0,1.660234966,1223.600021,None,1223.600021,None,1.0,2.250577205,1224.800562,None,1223.600021,None,1.0,2.889861245,1225.400356,None,1223.600021,None,space,0.409623085,2.913271136,None,1223.600021,None,1223.600021,None,,,,,,,,,,,1,2022_Mar_24_1356,SAR-soap,2021.1.2,59.98076944
77,Trial # 73,Group1-stimuli/group1-block1/fake-group2-b1/encoded_Group2_IMG_9810.jpg,0,encoded_Group2_IMG_9810.jpg,,,,,0.0,72.0,72.0,72.0,,,,,,,,,,,,,,,,,,,,,,,,,,,,,,,,,,,,,1226.950753,None,1226.950753,None,1226.950753,None,1.0,1.497188555,1226.950753,None,1226.950753,None,1.0,1.954366106,1228.002002,None,1226.950753,None,1.0,2.659765974,1228.468379,None,1226.950753,None,space,0.594730303,2.686779656,None,1226.950753,None,1226.950753,None,,,,,,,,,,,1,2022_Mar_24_1356,SAR-soap,2021.1.2,59.98076944
78,Trial # 74,Group1-stimuli/group1-block1/fake-group2-b1/encoded_Group2_IMG_5900.jpg,0,encoded_Group2_IMG_5900.jpg,,,,,0.0,73.0,73.0,73.0,,,,,,,,,,,,,,,,,,,,,,,,,,,,,,,,,,,,,1230.268531,None,1230.268531,None,1230.268531,None,1.0,1.308324904,1230.268531,None,1230.268531,None,1.0,1.69842746,1231.119276,None,1230.268531,None,1.0,2.202558727,1231.519608,None,1230.268531,None,space,0.128245392,2.226173064,None,1230.268531,None,1230.268531,None,,,,,,,,,,,1,2022_Mar_24_1356,SAR-soap,2021.1.2,59.98076944
79,Trial # 75,Group1-stimuli/group1-block1/real-group1-b1/Group1_IMG_9679.jpg,1,Group1_IMG_9679.jpg,,,,,0.0,74.0,74.0,74.0,,,,,,,,,,,,,,,,,,,,,,,,,,,,,,,,,,,,,1232.652409,None,1232.652409,None,1232.652409,None,1.0,1.444090701,1232.652409,None,1232.652409,None,1.0,1.800270374,1233.63676,None,1232.652409,None,1.0,2.671589765,1234.004148,None,1232.652409,None,space,0.028899711,2.696590247,None,1232.652409,None,1232.652409,None,,,,,,,,,,,1,2022_Mar_24_1356,SAR-soap,2021.1.2,59.98076944
80,Trial # 76,Group1-stimuli/group1-block1/fake-group2-b1/encoded_Group2_IMG_4249.jpg,0,encoded_Group2_IMG_4249.jpg,,,,,0.0,75.0,75.0,75.0,,,,,,,,,,,,,,,,,,,,,,,,,,,,,,,,,,,,,1235.388023,None,1235.388023,None,1235.388023,None,4.0,1.763275096,1235.388023,None,1235.388023,None,5.0,2.851288765,1236.704241,None,1235.388023,None,3.0,3.826199905,1237.804039,None,1235.388023,None,space,0.487337996,3.853067967,None,1235.388023,None,1235.388023,None,,,,,,,,,,,1,2022_Mar_24_1356,SAR-soap,2021.1.2,59.98076944
81,Trial # 77,Group1-stimuli/group1-block1/fake-group2-b1/encoded_Group2_IMG_0174.jpg,0,encoded_Group2_IMG_0174.jpg,,,,,0.0,76.0,76.0,76.0,,,,,,,,,,,,,,,,,,,,,,,,,,,,,,,,,,,,,1239.755824,None,1239.755824,None,1239.755824,None,2.0,2.813549528,1239.755824,None,1239.755824,None,1.0,3.469093546,1242.122272,None,1239.755824,None,2.0,5.309175005,1242.788626,None,1239.755824,None,space,1.404818316,4.102758538,None,1239.755824,None,1239.755824,None,,,,,,,,,,,1,2022_Mar_24_1356,SAR-soap,2021.1.2,59.98076944
82,Trial # 78,Group1-stimuli/group1-block1/fake-group2-b1/encoded_Group2_IMG_0475.jpg,0,encoded_Group2_IMG_0475.jpg,,,,,0.0,77.0,77.0,77.0,,,,,,,,,,,,,,,,,,,,,,,,,,,,,,,,,,,,,1245.306532,None,1245.306532,None,1245.306532,None,1.0,1.429977681,1245.306532,None,1245.306532,None,1.0,1.885923967,1246.290302,None,1245.306532,None,1.0,2.457910898,1246.756736,None,1245.306532,None,space,0.14329556,2.486435747,None,1245.306532,None,1245.306532,None,,,,,,,,,,,1,2022_Mar_24_1356,SAR-soap,2021.1.2,59.98076944
83,Trial # 79,Group1-stimuli/group1-block1/fake-group2-b1/encoded_Group2_IMG_9751.jpg,0,encoded_Group2_IMG_9751.jpg,,,,,0.0,78.0,78.0,78.0,,,,,,,,,,,,,,,,,,,,,,,,,,,,,,,,,,,,,1247.973969,None,1247.973969,None,1247.973969,None,4.0,1.696398427,1247.973969,None,1247.973969,None,4.0,2.452716119,1249.226089,None,1247.973969,None,3.0,3.457084662,1249.992704,None,1247.973969,None,space,0.202763155,3.484043608,None,1247.973969,None,1247.973969,None,,,,,,,,,,,1,2022_Mar_24_1356,SAR-soap,2021.1.2,59.98076944
84,Trial # 80,Group1-stimuli/group1-block1/fake-group2-b1/encoded_Group2_IMG_0492.jpg,0,encoded_Group2_IMG_0492.jpg,,,,,0.0,79.0,79.0,79.0,,,,,,,,,,,,,,,,,,,,,,,,,,,,,,,,,,,,,1251.725943,None,1251.725943,None,1251.725943,None,1.0,1.383445262,1251.725943,None,1251.725943,None,1.0,2.240154375,1252.658849,None,1251.725943,None,1.0,2.681017032,1253.526216,None,1251.725943,None,space,0.23551065,2.710407877,None,1251.725943,None,1251.725943,None,,,,,,,,,,,1,2022_Mar_24_1356,SAR-soap,2021.1.2,59.98076944
85,Trial # 81,Group1-stimuli/group1-block1/real-group1-b1/Group1_IMG_0535.jpg,1,Group1_IMG_0535.jpg,,,,,0.0,80.0,80.0,80.0,,,,,,,,,,,,,,,,,,,,,,,,,,,,,,,,,,,,,1254.726151,None,1254.726151,None,1254.726151,None,1.0,1.163627848,1254.726151,None,1254.726151,None,1.0,1.619608312,1255.443245,None,1254.726151,None,1.0,2.058129634,1255.909971,None,1254.726151,None,space,0.196019228,2.086243732,None,1254.726151,None,1254.726151,None,,,,,,,,,,,1,2022_Mar_24_1356,SAR-soap,2021.1.2,59.98076944
86,Trial # 82,Group1-stimuli/group1-block1/real-group1-b1/Group1_IMG_0077.jpg,1,Group1_IMG_0077.jpg,,,,,0.0,81.0,81.0,81.0,,,,,,,,,,,,,,,,,,,,,,,,,,,,,,,,,,,,,1257.044124,None,1257.044124,None,1257.044124,None,5.0,3.6530802,1257.044124,None,1257.044124,None,4.0,5.209007828,1260.246212,None,1257.044124,None,6.0,6.514169085,1261.811621,None,1257.044124,None,space,1.64747284,6.04730115,None,1257.044124,None,1257.044124,None,,,,,,,,,,,1,2022_Mar_24_1356,SAR-soap,2021.1.2,59.98076944
87,Trial # 83,Group1-stimuli/group1-block1/fake-group2-b1/encoded_Group2_IMG_9702.jpg,0,encoded_Group2_IMG_9702.jpg,,,,,0.0,82.0,82.0,82.0,,,,,,,,,,,,,,,,,,,,,,,,,,,,,,,,,,,,,1264.762827,None,1264.762827,None,1264.762827,None,1.0,1.396046742,1264.762827,None,1264.762827,None,1.0,1.819335137,1265.713688,None,1264.762827,None,1.0,2.491317013,1266.146706,None,1264.762827,None,space,0.222512619,2.518085303,None,1264.762827,None,1264.762827,None,,,,,,,,,,,1,2022_Mar_24_1356,SAR-soap,2021.1.2,59.98076944
88,Trial # 84,Group1-stimuli/group1-block1/real-group1-b1/Group1_IMG_0357.jpg,1,Group1_IMG_0357.jpg,,,,,0.0,83.0,83.0,83.0,,,,,,,,,,,,,,,,,,,,,,,,,,,,,,,,,,,,,1267.547237,None,1267.547237,None,1267.547237,None,1.0,1.47742793,1267.547237,None,1267.547237,None,1.0,1.900019806,1268.565065,None,1267.547237,None,1.0,2.703991527,1268.998138,None,1267.547237,None,space,0.205345913,2.730501638,None,1267.547237,None,1267.547237,None,,,,,,,,,,,1,2022_Mar_24_1356,SAR-soap,2021.1.2,59.98076944
89,Trial # 85,Group1-stimuli/group1-block1/real-group1-b1/Group1_IMG_9772.jpg,1,Group1_IMG_9772.jpg,,,,,0.0,84.0,84.0,84.0,,,,,,,,,,,,,,,,,,,,,,,,,,,,,,,,,,,,,1270.532171,None,1270.532171,None,1270.532171,None,4.0,1.560172548,1270.532171,None,1270.532171,None,5.0,2.383128552,1271.632814,None,1270.532171,None,4.0,3.087660298,1272.465174,None,1270.532171,None,space,0.430316873,3.113587621,None,1270.532171,None,1270.532171,None,,,,,,,,,,,1,2022_Mar_24_1356,SAR-soap,2021.1.2,59.98076944
90,Trial # 86,Group1-stimuli/group1-block1/real-group1-b1/Group1_IMG_0482.jpg,1,Group1_IMG_0482.jpg,,,,,0.0,85.0,85.0,85.0,,,,,,,,,,,,,,,,,,,,,,,,,,,,,,,,,,,,,1274.09917,None,1274.09917,None,1274.09917,None,1.0,1.530325208,1274.09917,None,1274.09917,None,1.0,1.902675378,1274.833765,None,1274.09917,None,1.0,2.408987986,1275.566265,None,1274.09917,None,space,0.200336671,2.437665839,None,1274.09917,None,1274.09917,None,,,,,,,,,,,1,2022_Mar_24_1356,SAR-soap,2021.1.2,59.98076944
91,Trial # 87,Group1-stimuli/group1-block1/real-group1-b1/Group1_IMG_0299.jpg,1,Group1_IMG_0299.jpg,,,,,0.0,86.0,86.0,86.0,,,,,,,,,,,,,,,,,,,,,,,,,,,,,,,,,,,,,1276.799365,None,1276.799365,None,1276.799365,None,3.0,1.331260723,1276.799365,None,1276.799365,None,4.0,2.188340654,1277.683739,None,1276.799365,None,3.0,2.826048955,1278.550465,None,1276.799365,None,space,0.458278816,2.85666201,None,1276.799365,None,1276.799365,None,,,,,,,,,,,1,2022_Mar_24_1356,SAR-soap,2021.1.2,59.98076944
92,Trial # 88,Group1-stimuli/group1-block1/fake-group2-b1/encoded_Group2_IMG_0301.jpg,0,encoded_Group2_IMG_0301.jpg,,,,,0.0,87.0,87.0,87.0,,,,,,,,,,,,,,,,,,,,,,,,,,,,,,,,,,,,,1280.134958,None,1280.134958,None,1280.134958,None,3.0,1.511562171,1280.134958,None,1280.134958,None,4.0,2.466776392,1281.201956,None,1280.134958,None,4.0,4.406658946,1282.168479,None,1280.134958,None,space,1.254091829,3.432099787,None,1280.134958,None,1280.134958,None,,,,,,,,,,,1,2022_Mar_24_1356,SAR-soap,2021.1.2,59.98076944
93,Trial # 89,Group1-stimuli/group1-block1/fake-group2-b1/encoded_Group2_IMG_5136.jpg,0,encoded_Group2_IMG_5136.jpg,,,,,0.0,88.0,88.0,88.0,,,,,,,,,,,,,,,,,,,,,,,,,,,,,,,,,,,,,1284.852657,None,1284.852657,None,1284.852657,None,3.0,1.680264545,1284.852657,None,1284.852657,None,3.0,3.135990277,1286.086126,None,1284.852657,None,5.0,4.844317684,1287.552921,None,1284.852657,None,space,0.848876023,4.37037232,None,1284.852657,None,1284.852657,None,,,,,,,,,,,1,2022_Mar_24_1356,SAR-soap,2021.1.2,59.98076944
94,Trial # 90,Group1-stimuli/group1-block1/real-group1-b1/Group1_IMG_0460.jpg,1,Group1_IMG_0460.jpg,,,,,0.0,89.0,89.0,89.0,,,,,,,,,,,,,,,,,,,,,,,,,,,,,,,,,,,,,1290.121587,None,1290.121587,None,1290.121587,None,4.0,3.81117189,1290.121587,None,1290.121587,None,4.0,4.615629035,1291.521712,None,1290.121587,None,2.0,5.987254988,1294.289604,None,1290.121587,None,space,0.292092511,6.011569146,None,1290.121587,None,1290.121587,None,,,,,,,,,,,1,2022_Mar_24_1356,SAR-soap,2021.1.2,59.98076944
95,Trial # 91,Group1-stimuli/group1-block1/fake-group2-b1/encoded_Group2_IMG_0068.jpg,0,encoded_Group2_IMG_0068.jpg,,,,,0.0,90.0,90.0,90.0,,,,,,,,,,,,,,,,,,,,,,,,,,,,,,,,,,,,,1296.455651,None,1296.455651,None,1296.455651,None,3.0,2.950163253,1296.455651,None,1296.455651,None,4.0,4.072465666,1298.95788,None,1296.455651,None,4.0,5.410155703,1300.090797,None,1296.455651,None,space,0.274974361,5.442094314,None,1296.455651,None,1296.455651,None,,,,,,,,,,,1,2022_Mar_24_1356,SAR-soap,2021.1.2,59.98076944
96,Trial # 92,Group1-stimuli/group1-block1/real-group1-b1/Group1_IMG_0337.jpg,1,Group1_IMG_0337.jpg,,,,,0.0,91.0,91.0,91.0,,,,,,,,,,,,,,,,,,,,,,,,,,,,,,,,,,,,,1302.207249,None,1302.207249,None,1302.207249,None,1.0,1.470685554,1302.207249,None,1302.207249,None,1.0,2.06058873,1303.241384,None,1302.207249,None,1.0,2.432891018,1303.841799,None,1302.207249,None,space,0.202019638,2.468188885,None,1302.207249,None,1302.207249,None,,,,,,,,,,,1,2022_Mar_24_1356,SAR-soap,2021.1.2,59.98076944
97,Trial # 93,Group1-stimuli/group1-block1/fake-group2-b1/encoded_Group2_IMG_0346.jpg,0,encoded_Group2_IMG_0346.jpg,,,,,0.0,92.0,92.0,92.0,,,,,,,,,,,,,,,,,,,,,,,,,,,,,,,,,,,,,1304.926047,None,1304.926047,None,1304.926047,None,1.0,1.279742314,1304.926047,None,1304.926047,None,1.0,1.702845167,1305.759421,None,1304.926047,None,1.0,2.074608109,1306.19243,None,1304.926047,None,space,0.196518501,2.102612575,None,1304.926047,None,1304.926047,None,,,,,,,,,,,1,2022_Mar_24_1356,SAR-soap,2021.1.2,59.98076944
98,Trial # 94,Group1-stimuli/group1-block1/real-group1-b1/Group1_IMG_4253.jpg,1,Group1_IMG_4253.jpg,,,,,0.0,93.0,93.0,93.0,,,,,,,,,,,,,,,,,,,,,,,,,,,,,,,,,,,,,1307.258854,None,1307.258854,None,1307.258854,None,4.0,1.559592963,1307.258854,None,1307.258854,None,3.0,2.282284141,1308.361231,None,1307.258854,None,4.0,3.455478384,1309.09397,None,1307.258854,None,space,0.174649017,3.48063434,None,1307.258854,None,1307.258854,None,,,,,,,,,,,1,2022_Mar_24_1356,SAR-soap,2021.1.2,59.98076944
99,Trial # 95,Group1-stimuli/group1-block1/fake-group2-b1/encoded_Group2_IMG_9280.jpg,0,encoded_Group2_IMG_9280.jpg,,,,,0.0,94.0,94.0,94.0,,,,,,,,,,,,,,,,,,,,,,,,,,,,,,,,,,,,,1310.943377,None,1310.943377,None,1310.943377,None,2.0,2.844936895,1310.943377,None,1310.943377,None,2.0,3.903004873,1313.34469,None,1310.943377,None,6.0,5.674435149,1314.412555,None,1310.943377,None,space,0.528857699,5.701470037,None,1310.943377,None,1310.943377,None,,,,,,,,,,,1,2022_Mar_24_1356,SAR-soap,2021.1.2,59.98076944
100,Trial # 96,Group1-stimuli/group1-block1/real-group1-b1/Group1_IMG_0417.jpg,1,Group1_IMG_0417.jpg,,,,,0.0,95.0,95.0,95.0,,,,,,,,,,,,,,,,,,,,,,,,,,,,,,,,,,,,,1317.212733,None,1317.212733,None,1317.212733,None,2.0,2.980080575,1317.212733,None,1317.212733,None,3.0,4.283479083,1319.147015,None,1317.212733,None,2.0,5.42302766,1320.680463,None,1317.212733,None,space,1.055046518,5.449770177,None,1317.212733,None,1317.212733,None,,,,,,,,,,,1,2022_Mar_24_1356,SAR-soap,2021.1.2,59.98076944
101,Trial # 97,Group1-stimuli/group1-block1/fake-group2-b1/encoded_Group2_IMG_9695.jpg,0,encoded_Group2_IMG_9695.jpg,,,,,0.0,96.0,96.0,96.0,,,,,,,,,,,,,,,,,,,,,,,,,,,,,,,,,,,,,1323.731184,None,1323.731184,None,1323.731184,None,1.0,1.579867135,1323.731184,None,1323.731184,None,1.0,2.070933092,1324.865465,None,1323.731184,None,1.0,2.641030455,1325.364539,None,1323.731184,None,space,0.351018,2.669993666,None,1323.731184,None,1323.731184,None,,,,,,,,,,,1,2022_Mar_24_1356,SAR-soap,2021.1.2,59.98076944
102,Trial # 98,Group1-stimuli/group1-block1/real-group1-b1/Group1_IMG_1160.jpg,1,Group1_IMG_1160.jpg,,,,,0.0,97.0,97.0,97.0,,,,,,,,,,,,,,,,,,,,,,,,,,,,,,,,,,,,,1326.798045,None,1326.798045,None,1326.798045,None,3.0,1.698887709,1326.798045,None,1326.798045,None,3.0,2.621026572,1328.049759,None,1326.798045,None,4.0,3.626873015,1328.98372,None,1326.798045,None,space,0.035501248,3.658223074,None,1326.798045,None,1326.798045,None,,,,,,,,,,,1,2022_Mar_24_1356,SAR-soap,2021.1.2,59.98076944
103,Trial # 99,Group1-stimuli/group1-block1/real-group1-b1/Group1_IMG_0448.jpg,1,Group1_IMG_0448.jpg,,,,,0.0,98.0,98.0,98.0,,,,,,,,,,,,,,,,,,,,,,,,,,,,,,,,,,,,,1330.549894,None,1330.549894,None,1330.549894,None,3.0,1.363178206,1330.549894,None,1330.549894,None,3.0,2.019112465,1331.46711,None,1330.549894,None,2.0,3.092294621,1332.133524,None,1330.549894,None,space,0.123216277,3.120433375,None,1330.549894,None,1330.549894,None,,,,,,,,,,,1,2022_Mar_24_1356,SAR-soap,2021.1.2,59.98076944
104,Trial # 100,Group1-stimuli/group1-block1/fake-group2-b1/encoded_Group2_IMG_0393.jpg,0,encoded_Group2_IMG_0393.jpg,,,,,0.0,99.0,99.0,99.0,,,,,,,,,,,,,,,,,,,,,,,,,,,,,,,,,,,,,1333.818042,None,1333.818042,None,1333.818042,None,2.0,1.481158559,1333.818042,None,1333.818042,None,3.0,2.836895812,1334.851747,None,1333.818042,None,2.0,3.67597705,1336.218932,None,1333.818042,None,space,0.48732577,3.703771285,None,1333.818042,None,1333.818042,None,,,,,,,,,,,1,2022_Mar_24_1356,SAR-soap,2021.1.2,59.98076944
105,Trial # 101,Group1-stimuli/group1-block1/real-group1-b1/Group1_IMG_0090.jpg,1,Group1_IMG_0090.jpg,,,,,0.0,100.0,100.0,100.0,,,,,,,,,,,,,,,,,,,,,,,,,,,,,,,,,,,,,1338.051657,None,1338.051657,None,1338.051657,None,1.0,1.396738549,1338.051657,None,1338.051657,None,1.0,1.785942546,1339.003069,None,1338.051657,None,1.0,2.290882084,1339.402784,None,1338.051657,None,space,0.156325055,2.318565286,None,1338.051657,None,1338.051657,None,,,,,,,,,,,1,2022_Mar_24_1356,SAR-soap,2021.1.2,59.98076944
106,Trial # 102,Group1-stimuli/group1-block1/real-group1-b1/Group1_IMG_0310.jpg,1,Group1_IMG_0310.jpg,,,,,0.0,101.0,101.0,101.0,,,,,,,,,,,,,,,,,,,,,,,,,,,,,,,,,,,,,1340.56964,None,1340.56964,None,1340.56964,None,1.0,1.442719181,1340.56964,None,1340.56964,None,1.0,1.864519187,1341.553035,None,1340.56964,None,1.0,2.604147035,1341.986335,None,1340.56964,None,space,0.17126316,2.628485562,None,1340.56964,None,1340.56964,None,,,,,,,,,,,1,2022_Mar_24_1356,SAR-soap,2021.1.2,59.98076944
107,Trial # 103,Group1-stimuli/group1-block1/fake-group2-b1/encoded_Group2_IMG_0528.jpg,0,encoded_Group2_IMG_0528.jpg,,,,,0.0,102.0,102.0,102.0,,,,,,,,,,,,,,,,,,,,,,,,,,,,,,,,,,,,,1343.420592,None,1343.420592,None,1343.420592,None,2.0,1.951897593,1343.420592,None,1343.420592,None,2.0,2.641320912,1344.921807,None,1343.420592,None,2.0,3.312558414,1345.620868,None,1343.420592,None,space,0.58663793,3.345537213,None,1343.420592,None,1343.420592,None,,,,,,,,,,,1,2022_Mar_24_1356,SAR-soap,2021.1.2,59.98076944
108,Trial # 104,Group1-stimuli/group1-block1/fake-group2-b1/encoded_Group2_IMG_1975.jpg,0,encoded_Group2_IMG_1975.jpg,,,,,0.0,103.0,103.0,103.0,,,,,,,,,,,,,,,,,,,,,,,,,,,,,,,,,,,,,1347.37187,None,1347.37187,None,1347.37187,None,1.0,19.4192578,1347.37187,None,1347.37187,None,1.0,19.90836973,1366.344554,None,1347.37187,None,1.0,20.68034257,1366.844133,None,1347.37187,None,space,0.176558833,20.70873156,None,1347.37187,None,1347.37187,None,,,,,,,,,,,1,2022_Mar_24_1356,SAR-soap,2021.1.2,59.98076944
109,Trial # 105,Group1-stimuli/group1-block1/fake-group2-b1/encoded_Group2_IMG_0052.jpg,0,encoded_Group2_IMG_0052.jpg,,,,,0.0,104.0,104.0,104.0,,,,,,,,,,,,,,,,,,,,,,,,,,,,,,,,,,,,,1368.311577,None,1368.311577,None,1368.311577,None,1.0,1.343217948,1368.311577,None,1368.311577,None,1.0,1.76713713,1369.196169,None,1368.311577,None,1.0,2.371539632,1369.628678,None,1368.311577,None,space,0.166074649,2.396193345,None,1368.311577,None,1368.311577,None,,,,,,,,,,,1,2022_Mar_24_1356,SAR-soap,2021.1.2,59.98076944
110,Trial # 106,Group1-stimuli/group1-block1/fake-group2-b1/encoded_Group2_IMG_0225.jpg,0,encoded_Group2_IMG_0225.jpg,,,,,0.0,105.0,105.0,105.0,,,,,,,,,,,,,,,,,,,,,,,,,,,,,,,,,,,,,1370.895936,None,1370.895936,None,1370.895936,None,2.0,1.535721864,1370.895936,None,1370.895936,None,2.0,2.158330336,1371.979725,None,1370.895936,None,2.0,2.69648161,1372.612468,None,1370.895936,None,space,0.321507413,2.728430219,None,1370.895936,None,1370.895936,None,,,,,,,,,,,1,2022_Mar_24_1356,SAR-soap,2021.1.2,59.98076944
111,Trial # 107,Group1-stimuli/group1-block1/real-group1-b1/Group1_IMG_2231.jpg,1,Group1_IMG_2231.jpg,,,,,0.0,106.0,106.0,106.0,,,,,,,,,,,,,,,,,,,,,,,,,,,,,,,,,,,,,1373.980054,None,1373.980054,None,1373.980054,None,3.0,1.402891261,1373.980054,None,1373.980054,None,3.0,2.290215776,1374.931201,None,1373.980054,None,4.0,3.429464765,1375.831335,None,1373.980054,None,space,0.279001579,3.463315542,None,1373.980054,None,1373.980054,None,,,,,,,,,,,1,2022_Mar_24_1356,SAR-soap,2021.1.2,59.98076944
112,Trial # 108,Group1-stimuli/group1-block1/real-group1-b1/Group1_IMG_0217.jpg,1,Group1_IMG_0217.jpg,,,,,0.0,107.0,107.0,107.0,,,,,,,,,,,,,,,,,,,,,,,,,,,,,,,,,,,,,1377.763764,None,1377.763764,None,1377.763764,None,3.0,2.412221693,1377.763764,None,1377.763764,None,2.0,2.884512683,1379.032621,None,1377.763764,None,2.0,3.68920056,1380.199417,None,1377.763764,None,space,0.324859948,3.71363804,None,1377.763764,None,1377.763764,None,,,,,,,,,,,1,2022_Mar_24_1356,SAR-soap,2021.1.2,59.98076944
113,Trial # 109,Group1-stimuli/group1-block1/real-group1-b1/Group1_IMG_0264.jpg,1,Group1_IMG_0264.jpg,,,,,0.0,108.0,108.0,108.0,,,,,,,,,,,,,,,,,,,,,,,,,,,,,,,,,,,,,1381.832315,None,1381.832315,None,1381.832315,None,4.0,3.781304869,1381.832315,None,1381.832315,None,3.0,5.703827778,1385.168171,None,1381.832315,None,4.0,7.110965799,1387.100493,None,1381.832315,None,space,1.205875419,7.138720824,None,1381.832315,None,1381.832315,None,,,,,,,,,,,1,2022_Mar_24_1356,SAR-soap,2021.1.2,59.98076944
114,Trial # 110,Group1-stimuli/group1-block1/fake-group2-b1/encoded_Group2_IMG_0254.jpg,0,encoded_Group2_IMG_0254.jpg,,,,,0.0,109.0,109.0,109.0,,,,,,,,,,,,,,,,,,,,,,,,,,,,,,,,,,,,,1390.235,None,1390.235,None,1390.235,None,1.0,1.367404004,1390.235,None,1390.235,None,1.0,1.789941211,1391.152319,None,1390.235,None,1.0,2.461757171,1391.585189,None,1390.235,None,space,0.111098116,2.495658592,None,1390.235,None,1390.235,None,,,,,,,,,,,1,2022_Mar_24_1356,SAR-soap,2021.1.2,59.98076944
115,Trial # 111,Group1-stimuli/group1-block1/fake-group2-b1/encoded_Group2_IMG_5433.jpg,0,encoded_Group2_IMG_5433.jpg,,,,,0.0,110.0,110.0,110.0,,,,,,,,,,,,,,,,,,,,,,,,,,,,,,,,,,,,,1392.884885,None,1392.884885,None,1392.884885,None,1.0,1.785747024,1392.884885,None,1392.884885,None,1.0,2.176403129,1394.220072,None,1392.884885,None,1.0,2.914089982,1394.620406,None,1392.884885,None,space,0.265444429,2.946505474,None,1392.884885,None,1392.884885,None,,,,,,,,,,,1,2022_Mar_24_1356,SAR-soap,2021.1.2,59.98076944
116,Trial # 112,Group1-stimuli/group1-block1/real-group1-b1/Group1_IMG_0252.jpg,1,Group1_IMG_0252.jpg,,,,,0.0,111.0,111.0,111.0,,,,,,,,,,,,,,,,,,,,,,,,,,,,,,,,,,,,,1396.119966,None,1396.119966,None,1396.119966,None,2.0,4.320573491,1396.119966,None,1396.119966,None,1.0,2.09158288,1397.370774,None,1396.119966,None,1.0,3.13067819,1397.770523,None,1396.119966,None,space,1.422257176,3.165020799,None,1396.119966,None,1396.119966,None,,,,,,,,,,,1,2022_Mar_24_1356,SAR-soap,2021.1.2,59.98076944
117,Trial # 113,Group1-stimuli/group1-block1/real-group1-b1/Group1_IMG_9720.jpg,1,Group1_IMG_9720.jpg,,,,,0.0,112.0,112.0,112.0,,,,,,,,,,,,,,,,,,,,,,,,,,,,,,,,,,,,,1400.738112,None,1400.738112,None,1400.738112,None,3.0,1.94305356,1400.738112,None,1400.738112,None,4.0,2.864735935,1402.222298,None,1400.738112,None,3.0,3.971161209,1403.155954,None,1400.738112,None,space,0.274315619,3.995422316,None,1400.738112,None,1400.738112,None,,,,,,,,,,,1,2022_Mar_24_1356,SAR-soap,2021.1.2,59.98076944
118,Trial # 114,Group1-stimuli/group1-block1/fake-group2-b1/encoded_Group2_IMG_0550.jpg,0,encoded_Group2_IMG_0550.jpg,,,,,0.0,113.0,113.0,113.0,,,,,,,,,,,,,,,,,,,,,,,,,,,,,,,,,,,,,1405.039532,None,1405.039532,None,1405.039532,None,1.0,1.395434168,1405.039532,None,1405.039532,None,1.0,2.318999317,1405.990476,None,1405.039532,None,1.0,2.756828364,1406.923731,None,1405.039532,None,space,0.215139476,2.784864025,None,1405.039532,None,1405.039532,None,,,,,,,,,,,1,2022_Mar_24_1356,SAR-soap,2021.1.2,59.98076944
119,Trial # 115,Group1-stimuli/group1-block1/real-group1-b1/Group1_IMG_9915.jpg,1,Group1_IMG_9915.jpg,,,,,0.0,114.0,114.0,114.0,,,,,,,,,,,,,,,,,,,,,,,,,,,,,,,,,,,,,1408.090565,None,1408.090565,None,1408.090565,None,1.0,1.415044668,1408.090565,None,1408.090565,None,1.0,1.871407154,1409.058511,None,1408.090565,None,1.0,2.544010519,1409.524154,None,1408.090565,None,space,0.06710437,2.573113601,None,1408.090565,None,1408.090565,None,,,,,,,,,,,1,2022_Mar_24_1356,SAR-soap,2021.1.2,59.98076944
120,Trial # 116,Group1-stimuli/group1-block1/real-group1-b1/Group1_IMG_9850.jpg,1,Group1_IMG_9850.jpg,,,,,0.0,115.0,115.0,115.0,,,,,,,,,,,,,,,,,,,,,,,,,,,,,,,,,,,,,1410.791135,None,1410.791135,None,1410.791135,None,1.0,1.383629622,1410.791135,None,1410.791135,None,1.0,1.805610074,1411.724917,None,1410.791135,None,1.0,2.211275774,1412.15789,None,1410.791135,None,space,0.164852268,2.242412242,None,1410.791135,None,1410.791135,None,,,,,,,,,,,1,2022_Mar_24_1356,SAR-soap,2021.1.2,59.98076944
121,Trial # 117,Group1-stimuli/group1-block1/real-group1-b1/Group1_IMG_3579.jpg,1,Group1_IMG_3579.jpg,,,,,0.0,116.0,116.0,116.0,,,,,,,,,,,,,,,,,,,,,,,,,,,,,,,,,,,,,1413.225236,None,1413.225236,None,1413.225236,None,3.0,1.547193238,1413.225236,None,1413.225236,None,3.0,2.802310753,1414.32623,None,1413.225236,None,3.0,4.0077688,1415.592566,None,1413.225236,None,space,0.298557134,4.034548275,None,1413.225236,None,1413.225236,None,,,,,,,,,,,1,2022_Mar_24_1356,SAR-soap,2021.1.2,59.98076944
122,Trial # 118,Group1-stimuli/group1-block1/fake-group2-b1/encoded_Group2_IMG_0377.jpg,0,encoded_Group2_IMG_0377.jpg,,,,,0.0,117.0,117.0,117.0,,,,,,,,,,,,,,,,,,,,,,,,,,,,,,,,,,,,,1417.576297,None,1417.576297,None,1417.576297,None,1.0,1.295415833,1417.576297,None,1417.576297,None,1.0,1.719155671,1418.427401,None,1417.576297,None,1.0,2.156909935,1418.860385,None,1417.576297,None,space,0.133866476,2.184274063,None,1417.576297,None,1417.576297,None,,,,,,,,,,,1,2022_Mar_24_1356,SAR-soap,2021.1.2,59.98076944
123,Trial # 119,Group1-stimuli/group1-block1/real-group1-b1/Group1_IMG_0469.jpg,1,Group1_IMG_0469.jpg,,,,,0.0,118.0,118.0,118.0,,,,,,,,,,,,,,,,,,,,,,,,,,,,,,,,,,,,,1419.927266,None,1419.927266,None,1419.927266,None,1.0,1.180494524,1419.927266,None,1419.927266,None,1.0,1.603610751,1420.660778,None,1419.927266,None,1.0,2.007305378,1421.093865,None,1419.927266,None,space,0.141001505,2.036967744,None,1419.927266,None,1419.927266,None,,,,,,,,,,,1,2022_Mar_24_1356,SAR-soap,2021.1.2,59.98076944
124,Trial # 120,Group1-stimuli/group1-block1/fake-group2-b1/encoded_Group2_IMG_0100.jpg,0,encoded_Group2_IMG_0100.jpg,,,,,0.0,119.0,119.0,119.0,,,,,,,,,,,,,,,,,,,,,,,,,,,,,,,,,,,,,1422.161691,None,1422.161691,None,1422.161691,None,1.0,1.103979906,1422.161691,None,1422.161691,None,1.0,1.525599624,1422.811806,None,1422.161691,None,1.0,1.899434892,1423.244365,None,1422.161691,None,space,0.206278228,1.934614052,None,1422.161691,None,1422.161691,None,,,,,,,,,,,1,2022_Mar_24_1356,SAR-soap,2021.1.2,59.98076944
125,Trial # 121,Group1-stimuli/group1-block1/real-group1-b1/Group1_IMG_5359.jpg,1,Group1_IMG_5359.jpg,,,,,0.0,120.0,120.0,120.0,,,,,,,,,,,,,,,,,,,,,,,,,,,,,,,,,,,,,1424.346196,None,1424.346196,None,1424.346196,None,3.0,2.162371745,1424.346196,None,1424.346196,None,2.0,3.485491824,1426.062415,None,1424.346196,None,3.0,4.523776046,1427.396096,None,1424.346196,None,space,0.141427502,4.552157488,None,1424.346196,None,1424.346196,None,,,,,,,,,,,1,2022_Mar_24_1356,SAR-soap,2021.1.2,59.98076944
126,Trial # 122,Group1-stimuli/group1-block1/fake-group2-b1/encoded_Group2_IMG_0304.jpg,0,encoded_Group2_IMG_0304.jpg,,,,,0.0,121.0,121.0,121.0,,,,,,,,,,,,,,,,,,,,,,,,,,,,,,,,,,,,,1429.081247,None,1429.081247,None,1429.081247,None,4.0,1.83162349,1429.081247,None,1429.081247,None,3.0,3.053182605,1430.464421,None,1429.081247,None,3.0,4.190967,1431.697382,None,1429.081247,None,space,-0.507844706,4.220994544,None,1429.081247,None,1429.081247,None,,,,,,,,,,,1,2022_Mar_24_1356,SAR-soap,2021.1.2,59.98076944
127,Trial # 123,Group1-stimuli/group1-block1/real-group1-b1/Group1_IMG_0306.jpg,1,Group1_IMG_0306.jpg,,,,,0.0,122.0,122.0,122.0,,,,,,,,,,,,,,,,,,,,,,,,,,,,,,,,,,,,,1433.330846,None,1433.330846,None,1433.330846,None,4.0,1.899122635,1433.330846,None,1433.330846,None,4.0,2.721360378,1434.782463,None,1433.330846,None,3.0,3.52617074,1435.616377,None,1433.330846,None,space,-3.348227398,3.556269495,None,1433.330846,None,1433.330846,None,,,,,,,,,,,1,2022_Mar_24_1356,SAR-soap,2021.1.2,59.98076944
128,Trial # 124,Group1-stimuli/group1-block1/real-group1-b1/Group1_IMG_0224.jpg,1,Group1_IMG_0224.jpg,,,,,0.0,123.0,123.0,123.0,,,,,,,,,,,,,,,,,,,,,,,,,,,,,,,,,,,,,1436.915816,None,1436.915816,None,1436.915816,None,3.0,2.165451677,1436.915816,None,1436.915816,None,3.0,3.288433329,1438.635117,None,1436.915816,None,3.0,4.093483634,1439.767989,None,1436.915816,None,space,0.37949021,4.122081485,None,1436.915816,None,1436.915816,None,,,,,,,,,,,1,2022_Mar_24_1356,SAR-soap,2021.1.2,59.98076944
129,Trial # 125,Group1-stimuli/group1-block1/real-group1-b1/Group1_IMG_9889.jpg,1,Group1_IMG_9889.jpg,,,,,0.0,124.0,124.0,124.0,,,,,,,,,,,,,,,,,,,,,,,,,,,,,,,,,,,,,1441.467652,None,1441.467652,None,1441.467652,None,1.0,1.411671759,1441.467652,None,1441.467652,None,1.0,1.801437459,1442.417759,None,1441.467652,None,1.0,2.541070071,1442.817628,None,1441.467652,None,space,0.15515359,2.566039817,None,1441.467652,None,1441.467652,None,,,,,,,,,,,1,2022_Mar_24_1356,SAR-soap,2021.1.2,59.98076944
130,Trial # 126,Group1-stimuli/group1-block1/real-group1-b1/Group1_IMG_0293.jpg,1,Group1_IMG_0293.jpg,,,,,0.0,125.0,125.0,125.0,,,,,,,,,,,,,,,,,,,,,,,,,,,,,,,,,,,,,1444.218668,None,1444.218668,None,1444.218668,None,1.0,2.634052107,1444.218668,None,1444.218668,None,1.0,3.056648242,1446.402823,None,1444.218668,None,1.0,3.727227085,1446.835602,None,1444.218668,None,space,-1.771028749,3.759584397,None,1444.218668,None,1444.218668,None,,,,,,,,,,,1,2022_Mar_24_1356,SAR-soap,2021.1.2,59.98076944
131,Trial # 127,Group1-stimuli/group1-block1/fake-group2-b1/encoded_Group2_IMG_0321.jpg,0,encoded_Group2_IMG_0321.jpg,,,,,0.0,126.0,126.0,126.0,,,,,,,,,,,,,,,,,,,,,,,,,,,,,,,,,,,,,1447.986109,None,1447.986109,None,1447.986109,None,1.0,1.254636997,1447.986109,None,1447.986109,None,1.0,2.010027979,1448.803437,None,1447.986109,None,1.0,2.383439228,1449.570796,None,1447.986109,None,space,0.738685474,2.416498249,None,1447.986109,None,1447.986109,None,,,,,,,,,,,1,2022_Mar_24_1356,SAR-soap,2021.1.2,59.98076944
132,Trial # 128,Group1-stimuli/group1-block1/fake-group2-b1/encoded_Group2_IMG_0400.jpg,0,encoded_Group2_IMG_0400.jpg,,,,,0.0,127.0,127.0,127.0,,,,,,,,,,,,,,,,,,,,,,,,,,,,,,,,,,,,,1451.186473,None,1451.186473,None,1451.186473,None,3.0,1.7140048,1451.186473,None,1451.186473,None,2.0,2.4042703,1452.453914,None,1451.186473,None,3.0,2.975991312,1453.154519,None,1451.186473,None,space,0.905558147,3.004690198,None,1451.186473,None,1451.186473,None,,,,,,,,,,,1,2022_Mar_24_1356,SAR-soap,2021.1.2,59.98076944
133,Trial # 129,Group1-stimuli/group1-block1/fake-group2-b1/encoded_Group2_IMG_0443.jpg,0,encoded_Group2_IMG_0443.jpg,,,,,0.0,128.0,128.0,128.0,,,,,,,,,,,,,,,,,,,,,,,,,,,,,,,,,,,,,1455.154911,None,1455.154911,None,1455.154911,None,4.0,4.591395431,1455.154911,None,1455.154911,None,4.0,5.447619919,1459.290689,None,1455.154911,None,2.0,6.483582244,1460.15644,None,1455.154911,None,space,-1.979238724,6.505557491,None,1455.154911,None,1455.154911,None,,,,,,,,,,,1,2022_Mar_24_1356,SAR-soap,2021.1.2,59.98076944
134,Trial # 130,Group1-stimuli/group1-block1/fake-group2-b1/encoded_Group2_IMG_0542.jpg,0,encoded_Group2_IMG_0542.jpg,,,,,0.0,129.0,129.0,129.0,,,,,,,,,,,,,,,,,,,,,,,,,,,,,,,,,,,,,1461.673779,None,1461.673779,None,1461.673779,None,1.0,1.346134428,1461.673779,None,1461.673779,None,1.0,2.435647642,1462.57392,None,1461.673779,None,1.0,3.041146755,1463.674698,None,1461.673779,None,space,0.608538593,3.06875294,None,1461.673779,None,1461.673779,None,,,,,,,,,,,1,2022_Mar_24_1356,SAR-soap,2021.1.2,59.98076944
135,Trial # 131,Group1-stimuli/group1-block1/real-group1-b1/Group1_IMG_0885.jpg,1,Group1_IMG_0885.jpg,,,,,0.0,130.0,130.0,130.0,,,,,,,,,,,,,,,,,,,,,,,,,,,,,,,,,,,,,1465.408604,None,1465.408604,None,1465.408604,None,4.0,1.796705141,1465.408604,None,1465.408604,None,4.0,2.885534791,1466.75885,None,1465.408604,None,5.0,4.458782434,1467.858503,None,1465.408604,None,space,0.224492215,4.487937967,None,1465.408604,None,1465.408604,None,,,,,,,,,,,1,2022_Mar_24_1356,SAR-soap,2021.1.2,59.98076944
136,Trial # 132,Group1-stimuli/group1-block1/real-group1-b1/Group1_IMG_0375.jpg,1,Group1_IMG_0375.jpg,,,,,0.0,131.0,131.0,131.0,,,,,,,,,,,,,,,,,,,,,,,,,,,,,,,,,,,,,1470.159544,None,1470.159544,None,1470.159544,None,1.0,1.360486192,1470.159544,None,1470.159544,None,1.0,1.74993328,1471.05986,None,1470.159544,None,1.0,2.220827776,1471.459834,None,1470.159544,None,space,0.228752863,2.246474785,None,1470.159544,None,1470.159544,None,,,,,,,,,,,1,2022_Mar_24_1356,SAR-soap,2021.1.2,59.98076944
137,Trial # 133,Group1-stimuli/group1-block1/fake-group2-b1/encoded_Group2_IMG_7351.jpg,0,encoded_Group2_IMG_7351.jpg,,,,,0.0,132.0,132.0,132.0,,,,,,,,,,,,,,,,,,,,,,,,,,,,,,,,,,,,,1472.643602,None,1472.643602,None,1472.643602,None,2.0,2.314140514,1472.643602,None,1472.643602,None,2.0,3.102471334,1474.512152,None,1472.643602,None,3.0,4.209651835,1475.312093,None,1472.643602,None,space,0.248119723,4.2372537,None,1472.643602,None,1472.643602,None,,,,,,,,,,,1,2022_Mar_24_1356,SAR-soap,2021.1.2,59.98076944
138,Trial # 134,Group1-stimuli/group1-block1/fake-group2-b1/encoded_Group2_IMG_0416.jpg,0,encoded_Group2_IMG_0416.jpg,,,,,0.0,133.0,133.0,133.0,,,,,,,,,,,,,,,,,,,,,,,,,,,,,,,,,,,,,1477.211801,None,1477.211801,None,1477.211801,None,3.0,3.594293193,1477.211801,None,1477.211801,None,3.0,3.898182387,1479.096952,None,1477.211801,None,2.0,4.637838981,1480.663416,None,1477.211801,None,space,0.24739488,4.659601851,None,1477.211801,None,1477.211801,None,,,,,,,,,,,1,2022_Mar_24_1356,SAR-soap,2021.1.2,59.98076944
139,Trial # 135,Group1-stimuli/group1-block1/fake-group2-b1/encoded_Group2_IMG_0139.jpg,0,encoded_Group2_IMG_0139.jpg,,,,,0.0,134.0,134.0,134.0,,,,,,,,,,,,,,,,,,,,,,,,,,,,,,,,,,,,,1482.146143,None,1482.146143,None,1482.146143,None,1.0,1.797637802,1482.146143,None,1482.146143,None,1.0,2.186704071,1483.498131,None,1482.146143,None,1.0,2.790890213,1483.897617,None,1482.146143,None,space,0.153621801,2.820654869,None,1482.146143,None,1482.146143,None,,,,,,,,,,,1,2022_Mar_24_1356,SAR-soap,2021.1.2,59.98076944
140,Trial # 136,Group1-stimuli/group1-block1/real-group1-b1/Group1_IMG_9677.jpg,1,Group1_IMG_9677.jpg,,,,,0.0,135.0,135.0,135.0,,,,,,,,,,,,,,,,,,,,,,,,,,,,,,,,,,,,,1485.16425,None,1485.16425,None,1485.16425,None,2.0,3.151275923,1485.16425,None,1485.16425,None,1.0,1.723391672,1485.98192,None,1485.16425,None,1.0,2.396301115,1486.448332,None,1485.16425,None,space,0.96081344,2.426778447,None,1485.16425,None,1485.16425,None,,,,,,,,,,,1,2022_Mar_24_1356,SAR-soap,2021.1.2,59.98076944
141,Trial # 137,Group1-stimuli/group1-block1/fake-group2-b1/encoded_Group2_IMG_5982.jpg,0,encoded_Group2_IMG_5982.jpg,,,,,0.0,136.0,136.0,136.0,,,,,,,,,,,,,,,,,,,,,,,,,,,,,,,,,,,,,1488.566297,None,1488.566297,None,1488.566297,None,1.0,1.663729115,1488.566297,None,1488.566297,None,1.0,2.187554234,1489.783347,None,1488.566297,None,1.0,2.825997384,1490.316663,None,1488.566297,None,space,0.150354195,2.853034805,None,1488.566297,None,1488.566297,None,,,,,,,,,,,1,2022_Mar_24_1356,SAR-soap,2021.1.2,59.98076944
142,Trial # 138,Group1-stimuli/group1-block1/fake-group2-b1/encoded_Group2_IMG_1144.jpg,0,encoded_Group2_IMG_1144.jpg,,,,,0.0,137.0,137.0,137.0,,,,,,,,,,,,,,,,,,,,,,,,,,,,,,,,,,,,,1491.59977,None,1491.59977,None,1491.59977,None,4.0,1.863388304,1491.59977,None,1491.59977,None,5.0,4.020216919,1493.016447,None,1491.59977,None,5.0,5.424710326,1494.751633,None,1491.59977,None,space,0.403071005,5.451716278,None,1491.59977,None,1491.59977,None,,,,,,,,,,,1,2022_Mar_24_1356,SAR-soap,2021.1.2,59.98076944
143,Trial # 139,Group1-stimuli/group1-block1/fake-group2-b1/encoded_Group2_IMG_0315.jpg,0,encoded_Group2_IMG_0315.jpg,,,,,0.0,138.0,138.0,138.0,,,,,,,,,,,,,,,,,,,,,,,,,,,,,,,,,,,,,1497.500454,None,1497.500454,None,1497.500454,None,2.0,1.963816593,1497.500454,None,1497.500454,None,1.0,2.42133515,1499.019454,None,1497.500454,None,1.0,2.89406459,1499.486128,None,1497.500454,None,space,-2.181851028,2.921803739,None,1497.500454,None,1497.500454,None,,,,,,,,,,,1,2022_Mar_24_1356,SAR-soap,2021.1.2,59.98076944
144,Trial # 140,Group1-stimuli/group1-block1/real-group1-b1/Group1_IMG_130.jpg,1,Group1_IMG_130.jpg,,,,,0.0,139.0,139.0,139.0,,,,,,,,,,,,,,,,,,,,,,,,,,,,,,,,,,,,,1500.453064,None,1500.453064,None,1500.453064,None,4.0,1.93204174,1500.453064,None,1500.453064,None,4.0,4.022928297,1501.936726,None,1500.453064,None,2.0,6.028370845,1504.0368,None,1500.453064,None,space,-5.873785412,6.059754958,None,1500.453064,None,1500.453064,None,,,,,,,,,,,1,2022_Mar_24_1356,SAR-soap,2021.1.2,59.98076944
145,Trial # 141,Group1-stimuli/group1-block1/real-group1-b1/Group1_IMG_0024.jpg,1,Group1_IMG_0024.jpg,,,,,0.0,140.0,140.0,140.0,,,,,,,,,,,,,,,,,,,,,,,,,,,,,,,,,,,,,1506.537602,None,1506.537602,None,1506.537602,None,3.0,32.13571605,1506.537602,None,1506.537602,None,2.0,33.25906569,1538.213513,None,1506.537602,None,3.0,34.16434747,1539.348042,None,1506.537602,None,space,-33.98047311,34.18773423,None,1506.537602,None,1506.537602,None,,,,,,,,,,,1,2022_Mar_24_1356,SAR-soap,2021.1.2,59.98076944
146,Trial # 142,Group1-stimuli/group1-block1/fake-group2-b1/encoded_Group2_IMG_5012.jpg,0,encoded_Group2_IMG_5012.jpg,,,,,0.0,141.0,141.0,141.0,,,,,,,,,,,,,,,,,,,,,,,,,,,,,,,,,,,,,1540.732514,None,1540.732514,None,1540.732514,None,2.0,2.363803009,1540.732514,None,1540.732514,None,2.0,3.336566023,1541.865892,None,1540.732514,None,2.0,4.908742861,1543.632567,None,1540.732514,None,space,1.010808575,4.937579049,None,1540.732514,None,1540.732514,None,,,,,,,,,,,1,2022_Mar_24_1356,SAR-soap,2021.1.2,59.98076944
147,Trial # 143,Group1-stimuli/group1-block1/fake-group2-b1/encoded_Group2_IMG_0209.jpg,0,encoded_Group2_IMG_0209.jpg,,,,,0.0,142.0,142.0,142.0,,,,,,,,,,,,,,,,,,,,,,,,,,,,,,,,,,,,,1546.716403,None,1546.716403,None,1546.716403,None,1.0,1.279288891,1546.716403,None,1546.716403,None,1.0,1.735058091,1547.550138,None,1546.716403,None,1.0,2.341328351,1548.016436,None,1546.716403,None,space,0.473416578,2.368681371,None,1546.716403,None,1546.716403,None,,,,,,,,,,,1,2022_Mar_24_1356,SAR-soap,2021.1.2,59.98076944
148,Trial # 144,Group1-stimuli/group1-block1/real-group1-b1/Group1_IMG_0373.jpg,1,Group1_IMG_0373.jpg,,,,,0.0,143.0,143.0,143.0,,,,,,,,,,,,,,,,,,,,,,,,,,,,,,,,,,,,,1549.618494,None,1549.618494,None,1549.618494,None,2.0,1.652866029,1549.618494,None,1549.618494,None,1.0,2.109110483,1550.817722,None,1549.618494,None,1.0,2.780184452,1551.284429,None,1549.618494,None,space,0.235989236,2.814669994,None,1549.618494,None,1549.618494,None,,,,,,,,,,,1,2022_Mar_24_1356,SAR-soap,2021.1.2,59.98076944
149,Trial # 145,Group1-stimuli/group1-block1/real-group1-b1/Group1_IMG_5899.jpg,1,Group1_IMG_5899.jpg,,,,,0.0,144.0,144.0,144.0,,,,,,,,,,,,,,,,,,,,,,,,,,,,,,,,,,,,,1552.718732,None,1552.718732,None,1552.718732,None,2.0,2.285261486,1552.718732,None,1552.718732,None,1.0,2.74051877,1554.552763,None,1552.718732,None,1.0,3.178327436,1555.019435,None,1552.718732,None,space,0.173672025,3.210168792,None,1552.718732,None,1552.718732,None,,,,,,,,,,,1,2022_Mar_24_1356,SAR-soap,2021.1.2,59.98076944
150,Trial # 146,Group1-stimuli/group1-block1/real-group1-b1/Group1_IMG_0162.jpg,1,Group1_IMG_0162.jpg,,,,,0.0,145.0,145.0,145.0,,,,,,,,,,,,,,,,,,,,,,,,,,,,,,,,,,,,,1556.152596,None,1556.152596,None,1556.152596,None,4.0,1.43111182,1556.152596,None,1556.152596,None,4.0,2.154387042,1557.136453,None,1556.152596,None,4.0,3.194119016,1557.869832,None,1556.152596,None,space,0.251307435,3.223304463,None,1556.152596,None,1556.152596,None,,,,,,,,,,,1,2022_Mar_24_1356,SAR-soap,2021.1.2,59.98076944
151,Trial # 147,Group1-stimuli/group1-block1/real-group1-b1/Group1_IMG_0543.jpg,1,Group1_IMG_0543.jpg,,,,,0.0,146.0,146.0,146.0,,,,,,,,,,,,,,,,,,,,,,,,,,,,,,,,,,,,,1559.671503,None,1559.671503,None,1559.671503,None,1.0,1.351738077,1559.671503,None,1559.671503,None,1.0,2.406316501,1560.572403,None,1559.671503,None,1.0,3.245607648,1561.637522,None,1559.671503,None,space,0.147595536,3.278768938,None,1559.671503,None,1559.671503,None,,,,,,,,,,,1,2022_Mar_24_1356,SAR-soap,2021.1.2,59.98076944
152,Trial # 148,Group1-stimuli/group1-block1/fake-group2-b1/encoded_Group2_IMG_0355.jpg,0,encoded_Group2_IMG_0355.jpg,,,,,0.0,147.0,147.0,147.0,,,,,,,,,,,,,,,,,,,,,,,,,,,,,,,,,,,,,1563.121683,None,1563.121683,None,1563.121683,None,2.0,1.630555206,1563.121683,None,1563.121683,None,2.0,3.05319097,1564.306411,None,1563.121683,None,1.0,3.527307906,1565.172604,None,1563.121683,None,space,0.173168986,3.553370573,None,1563.121683,None,1563.121683,None,,,,,,,,,,,1,2022_Mar_24_1356,SAR-soap,2021.1.2,59.98076944
153,Trial # 149,Group1-stimuli/group1-block1/real-group1-b1/Group1_IMG_9765.jpg,1,Group1_IMG_9765.jpg,,,,,0.0,148.0,148.0,148.0,,,,,,,,,,,,,,,,,,,,,,,,,,,,,,,,,,,,,1566.906214,None,1566.906214,None,1566.906214,None,4.0,3.369816006,1566.906214,None,1566.906214,None,4.0,3.92544328,1569.824294,None,1566.906214,None,4.0,4.76438957,1570.39102,None,1566.906214,None,space,0.554855475,4.797659183,None,1566.906214,None,1566.906214,None,,,,,,,,,,,1,2022_Mar_24_1356,SAR-soap,2021.1.2,59.98076944
154,Trial # 150,Group1-stimuli/group1-block1/fake-group2-b1/encoded_Group2_IMG_1378.jpg,0,encoded_Group2_IMG_1378.jpg,,,,,0.0,149.0,149.0,149.0,,,,,,,,,,,,,,,,,,,,,,,,,,,,,,,,,,,,,1572.273644,None,1572.273644,None,1572.273644,None,3.0,1.448060432,1572.273644,None,1572.273644,None,3.0,2.537828093,1573.274725,None,1572.273644,None,3.0,4.04279838,1574.37515,None,1572.273644,None,space,0.191864247,4.071218638,None,1572.273644,None,1572.273644,None,,,,,,,,,,,1,2022_Mar_24_1356,SAR-soap,2021.1.2,59.98076944
155,Trial # 1,Group1-stimuli/group1-block2/fake-group2-b2/encoded_Group2_IMG_0155.jpg,0,encoded_Group2_IMG_0155.jpg,,,,,,,,,0.0,0.0,0.0,0.0,,,,,,,,,,,,,,,,,,,,,,,,,,,,,,,,,2183.563869,None,2183.563869,None,2183.563869,None,4.0,6.033516181,2183.563869,None,2183.563869,None,4.0,6.822840981,2189.148166,None,2183.563869,None,3.0,7.896018362,2189.948703,None,2183.563869,None,space,0.771304201,7.929569238,None,2183.563869,None,2183.563869,None,2173.981514,None,2173.981514,None,2173.981514,None,1576.058794,None,,,1,2022_Mar_24_1356,SAR-soap,2021.1.2,59.98076944
156,Trial # 2,Group1-stimuli/group1-block2/real-group1-b2/Group1_IMG_0519.jpg,1,Group1_IMG_0519.jpg,,,,,,,,,0.0,1.0,1.0,1.0,,,,,,,,,,,,,,,,,,,,,,,,,,,,,,,,,2192.316161,None,2192.316161,None,2192.316161,None,2.0,3.199792316,2192.316161,None,2192.316161,None,2.0,3.988361463,2195.068475,None,2192.316161,None,4.0,5.328871546,2195.867437,None,2192.316161,None,space,0.642661931,5.35662727,None,2192.316161,None,2192.316161,None,,,,,,,,,,,1,2022_Mar_24_1356,SAR-soap,2021.1.2,59.98076944
157,Trial # 3,Group1-stimuli/group1-block2/fake-group2-b2/encoded_Group2_IMG_0135.jpg,0,encoded_Group2_IMG_0135.jpg,,,,,,,,,0.0,2.0,2.0,2.0,,,,,,,,,,,,,,,,,,,,,,,,,,,,,,,,,2198.367893,None,2198.367893,None,2198.367893,None,1.0,1.429575774,2198.367893,None,2198.367893,None,1.0,2.119982971,2199.351753,None,2198.367893,None,1.0,3.159070637,2200.052647,None,2198.367893,None,space,-0.498521272,3.185913206,None,2198.367893,None,2198.367893,None,,,,,,,,,,,1,2022_Mar_24_1356,SAR-soap,2021.1.2,59.98076944
158,Trial # 4,Group1-stimuli/group1-block2/real-group1-b2/Group1_IMG_5310.jpg,1,Group1_IMG_5310.jpg,,,,,,,,,0.0,3.0,3.0,3.0,,,,,,,,,,,,,,,,,,,,,,,,,,,,,,,,,2201.585409,None,2201.585409,None,2201.585409,None,3.0,2.112153381,2201.585409,None,2201.585409,None,3.0,2.71869898,2202.703532,None,2201.585409,None,4.0,3.758020867,2203.870091,None,2201.585409,None,space,-3.684094475,3.784927976,None,2201.585409,None,2201.585409,None,,,,,,,,,,,1,2022_Mar_24_1356,SAR-soap,2021.1.2,59.98076944
159,Trial # 5,Group1-stimuli/group1-block2/real-group1-b2/Group1_IMG_0522.jpg,1,Group1_IMG_0522.jpg,,,,,,,,,0.0,4.0,4.0,4.0,,,,,,,,,,,,,,,,,,,,,,,,,,,,,,,,,2205.404417,None,2205.404417,None,2205.404417,None,2.0,1.418377148,2205.404417,None,2205.404417,None,2.0,2.040033554,2206.371775,None,2205.404417,None,3.0,3.01304851,2207.004353,None,2205.404417,None,space,-2.807721859,3.043825308,None,2205.404417,None,2205.404417,None,,,,,,,,,,,1,2022_Mar_24_1356,SAR-soap,2021.1.2,59.98076944
160,Trial # 6,Group1-stimuli/group1-block2/fake-group2-b2/encoded_Group2_IMG_0484.jpg,0,encoded_Group2_IMG_0484.jpg,,,,,,,,,0.0,5.0,5.0,5.0,,,,,,,,,,,,,,,,,,,,,,,,,,,,,,,,,2208.471358,None,2208.471358,None,2208.471358,None,1.0,1.334941599,2208.471358,None,2208.471358,None,1.0,1.792926871,2209.354982,None,2208.471358,None,1.0,2.164223008,2209.821901,None,2208.471358,None,space,0.501942354,2.197969086,None,2208.471358,None,2208.471358,None,,,,,,,,,,,1,2022_Mar_24_1356,SAR-soap,2021.1.2,59.98076944
161,Trial # 7,Group1-stimuli/group1-block2/fake-group2-b2/encoded_Group2_IMG_5948.jpg,0,encoded_Group2_IMG_5948.jpg,,,,,,,,,0.0,6.0,6.0,6.0,,,,,,,,,,,,,,,,,,,,,,,,,,,,,,,,,2211.206318,None,2211.206318,None,2211.206318,None,1.0,1.162031187,2211.206318,None,2211.206318,None,1.0,2.418094884,2211.921861,None,2211.206318,None,1.0,2.789517259,2213.188774,None,2211.206318,None,space,-0.680426304,2.818003521,None,2211.206318,None,2211.206318,None,,,,,,,,,,,1,2022_Mar_24_1356,SAR-soap,2021.1.2,59.98076944
162,Trial # 8,Group1-stimuli/group1-block2/fake-group2-b2/encoded_Group2_IMG_3591.jpg,0,encoded_Group2_IMG_3591.jpg,,,,,,,,,0.0,7.0,7.0,7.0,,,,,,,,,,,,,,,,,,,,,,,,,,,,,,,,,2214.055914,None,2214.055914,None,2214.055914,None,2.0,1.735386547,2214.055914,None,2214.055914,None,1.0,2.191653728,2215.341349,None,2214.055914,None,1.0,2.76392049,2215.80758,None,2214.055914,None,space,0.341463497,2.796731714,None,2214.055914,None,2214.055914,None,,,,,,,,,,,1,2022_Mar_24_1356,SAR-soap,2021.1.2,59.98076944
163,Trial # 9,Group1-stimuli/group1-block2/real-group1-b2/Group1_IMG_9835.jpg,1,Group1_IMG_9835.jpg,,,,,,,,,0.0,8.0,8.0,8.0,,,,,,,,,,,,,,,,,,,,,,,,,,,,,,,,,2217.30691,None,2217.30691,None,2217.30691,None,1.0,1.574287047,2217.30691,None,2217.30691,None,1.0,2.229572574,2218.425112,None,2217.30691,None,1.0,2.536743606,2219.0907,None,2217.30691,None,space,0.33997207,2.556974541,None,2217.30691,None,2217.30691,None,,,,,,,,,,,1,2022_Mar_24_1356,SAR-soap,2021.1.2,59.98076944
164,Trial # 10,Group1-stimuli/group1-block2/real-group1-b2/Group1_IMG_0556.jpg,1,Group1_IMG_0556.jpg,,,,,,,,,0.0,9.0,9.0,9.0,,,,,,,,,,,,,,,,,,,,,,,,,,,,,,,,,2220.258627,None,2220.258627,None,2220.258627,None,2.0,2.277165207,2220.258627,None,2220.258627,None,1.0,3.416437573,2221.525137,None,2220.258627,None,2.0,4.387349921,2223.225538,None,2220.258627,None,space,0.13886836,4.414174021,None,2220.258627,None,2220.258627,None,,,,,,,,,,,1,2022_Mar_24_1356,SAR-soap,2021.1.2,59.98076944
165,Trial # 11,Group1-stimuli/group1-block2/fake-group2-b2/encoded_Group2_IMG_9736.jpg,0,encoded_Group2_IMG_9736.jpg,,,,,,,,,0.0,10.0,10.0,10.0,,,,,,,,,,,,,,,,,,,,,,,,,,,,,,,,,2224.860431,None,2224.860431,None,2224.860431,None,4.0,1.965269856,2224.860431,None,2224.860431,None,4.0,3.253922142,2226.37786,None,2224.860431,None,3.0,4.160587123,2227.676724,None,2224.860431,None,space,0.31374181,4.189702897,None,2224.860431,None,2224.860431,None,,,,,,,,,,,1,2022_Mar_24_1356,SAR-soap,2021.1.2,59.98076944
166,Trial # 12,Group1-stimuli/group1-block2/real-group1-b2/Group1_IMG_9867.jpg,1,Group1_IMG_9867.jpg,,,,,,,,,0.0,11.0,11.0,11.0,,,,,,,,,,,,,,,,,,,,,,,,,,,,,,,,,2229.411131,None,2229.411131,None,2229.411131,None,1.0,1.171017376,2229.411131,None,2229.411131,None,1.0,1.560219306,2230.128673,None,2229.411131,None,1.0,1.997770689,2230.528535,None,2229.411131,None,space,0.265751148,2.032019798,None,2229.411131,None,2229.411131,None,,,,,,,,,,,1,2022_Mar_24_1356,SAR-soap,2021.1.2,59.98076944
167,Trial # 13,Group1-stimuli/group1-block2/fake-group2-b2/encoded_Group2_IMG_9886.jpg,0,encoded_Group2_IMG_9886.jpg,,,,,,,,,0.0,12.0,12.0,12.0,,,,,,,,,,,,,,,,,,,,,,,,,,,,,,,,,2231.727904,None,2231.727904,None,2231.727904,None,1.0,1.193047725,2231.727904,None,2231.727904,None,1.0,1.582612069,2232.461927,None,2231.727904,None,1.0,2.019432394,2232.862322,None,2231.727904,None,space,0.276171271,2.044712687,None,2231.727904,None,2231.727904,None,,,,,,,,,,,1,2022_Mar_24_1356,SAR-soap,2021.1.2,59.98076944
168,Trial # 14,Group1-stimuli/group1-block2/fake-group2-b2/encoded_Group2_IMG_2245.jpg,0,encoded_Group2_IMG_2245.jpg,,,,,,,,,0.0,13.0,13.0,13.0,,,,,,,,,,,,,,,,,,,,,,,,,,,,,,,,,2234.094773,None,2234.094773,None,2234.094773,None,3.0,1.493694874,2234.094773,None,2234.094773,None,3.0,2.449152408,2235.129763,None,2234.094773,None,3.0,3.421501727,2236.097084,None,2234.094773,None,space,0.17194819,3.445199115,None,2234.094773,None,2234.094773,None,,,,,,,,,,,1,2022_Mar_24_1356,SAR-soap,2021.1.2,59.98076944
169,Trial # 15,Group1-stimuli/group1-block2/fake-group2-b2/encoded_Group2_IMG_0507.jpg,0,encoded_Group2_IMG_0507.jpg,,,,,,,,,0.0,14.0,14.0,14.0,,,,,,,,,,,,,,,,,,,,,,,,,,,,,,,,,2237.763109,None,2237.763109,None,2237.763109,None,2.0,1.600438884,2237.763109,None,2237.763109,None,2.0,2.257544517,2238.913832,None,2237.763109,None,2.0,3.763334682,2239.580805,None,2237.763109,None,space,0.177672255,3.795284102,None,2237.763109,None,2237.763109,None,,,,,,,,,,,1,2022_Mar_24_1356,SAR-soap,2021.1.2,59.98076944
170,Trial # 16,Group1-stimuli/group1-block2/fake-group2-b2/encoded_Group2_IMG_0338.jpg,0,encoded_Group2_IMG_0338.jpg,,,,,,,,,0.0,15.0,15.0,15.0,,,,,,,,,,,,,,,,,,,,,,,,,,,,,,,,,2241.764335,None,2241.764335,None,2241.764335,None,1.0,2.012531886,2241.764335,None,2241.764335,None,1.0,2.701734723,2243.331873,None,2241.764335,None,1.0,3.20915213,2244.032583,None,2241.764335,None,space,0.318907515,3.235838128,None,2241.764335,None,2241.764335,None,,,,,,,,,,,1,2022_Mar_24_1356,SAR-soap,2021.1.2,59.98076944
171,Trial # 17,Group1-stimuli/group1-block2/real-group1-b2/Group1_IMG_0376.jpg,1,Group1_IMG_0376.jpg,,,,,,,,,0.0,16.0,16.0,16.0,,,,,,,,,,,,,,,,,,,,,,,,,,,,,,,,,2245.383451,None,2245.383451,None,2245.383451,None,1.0,1.477525229,2245.383451,None,2245.383451,None,1.0,1.900581453,2246.399438,None,2245.383451,None,1.0,2.640314651,2246.833721,None,2245.383451,None,space,0.221329595,2.664065982,None,2245.383451,None,2245.383451,None,,,,,,,,,,,1,2022_Mar_24_1356,SAR-soap,2021.1.2,59.98076944
172,Trial # 18,Group1-stimuli/group1-block2/real-group1-b2/Group1_IMG_9821.jpg,1,Group1_IMG_9821.jpg,,,,,,,,,0.0,17.0,17.0,17.0,,,,,,,,,,,,,,,,,,,,,,,,,,,,,,,,,2248.300206,None,2248.300206,None,2248.300206,None,1.0,1.846970099,2248.300206,None,2248.300206,None,1.0,2.236198167,2249.700773,None,2248.300206,None,1.0,2.975753215,2250.100562,None,2248.300206,None,space,0.280905099,3.001923537,None,2248.300206,None,2248.300206,None,,,,,,,,,,,1,2022_Mar_24_1356,SAR-soap,2021.1.2,59.98076944
173,Trial # 19,Group1-stimuli/group1-block2/fake-group2-b2/encoded_Group2_IMG_0388.jpg,0,encoded_Group2_IMG_0388.jpg,,,,,,,,,0.0,18.0,18.0,18.0,,,,,,,,,,,,,,,,,,,,,,,,,,,,,,,,,2251.634166,None,2251.634166,None,2251.634166,None,3.0,1.349624225,2251.634166,None,2251.634166,None,3.0,2.205439716,2252.535371,None,2251.634166,None,2.0,3.010391724,2253.401687,None,2251.634166,None,space,0.249572181,3.042207519,None,2251.634166,None,2251.634166,None,,,,,,,,,,,1,2022_Mar_24_1356,SAR-soap,2021.1.2,59.98076944
174,Trial # 20,Group1-stimuli/group1-block2/fake-group2-b2/encoded_Group2_IMG_0222.jpg,0,encoded_Group2_IMG_0222.jpg,,,,,,,,,0.0,19.0,19.0,19.0,,,,,,,,,,,,,,,,,,,,,,,,,,,,,,,,,2254.952106,None,2254.952106,None,2254.952106,None,3.0,1.531272162,2254.952106,None,2254.952106,None,2.0,2.453426936,2256.035967,None,2254.952106,None,3.0,3.591368019,2256.969755,None,2254.952106,None,space,0.228615001,3.619834266,None,2254.952106,None,2254.952106,None,,,,,,,,,,,1,2022_Mar_24_1356,SAR-soap,2021.1.2,59.98076944
175,Trial # 21,Group1-stimuli/group1-block2/fake-group2-b2/encoded_Group2_IMG_2215.jpg,0,encoded_Group2_IMG_2215.jpg,,,,,,,,,0.0,20.0,20.0,20.0,,,,,,,,,,,,,,,,,,,,,,,,,,,,,,,,,2258.820413,None,2258.820413,None,2258.820413,None,1.0,5.481587319,2258.820413,None,2258.820413,None,1.0,6.037884568,2263.854808,None,2258.820413,None,1.0,6.610056676,2264.422102,None,2258.820413,None,space,1.294654225,6.638011912,None,2258.820413,None,2258.820413,None,,,,,,,,,,,1,2022_Mar_24_1356,SAR-soap,2021.1.2,59.98076944
176,Trial # 22,Group1-stimuli/group1-block2/real-group1-b2/Group1_IMG_9760.jpg,1,Group1_IMG_9760.jpg,,,,,,,,,0.0,21.0,21.0,21.0,,,,,,,,,,,,,,,,,,,,,,,,,,,,,,,,,2266.77271,None,2266.77271,None,2266.77271,None,3.0,3.187928251,2266.77271,None,2266.77271,None,4.0,4.111046541,2269.524026,None,2266.77271,None,2.0,5.481372234,2270.457037,None,2266.77271,None,space,0.315458009,5.516721594,None,2266.77271,None,2266.77271,None,,,,,,,,,,,1,2022_Mar_24_1356,SAR-soap,2021.1.2,59.98076944
177,Trial # 23,Group1-stimuli/group1-block2/real-group1-b2/Group1_IMG_9897.jpg,1,Group1_IMG_9897.jpg,,,,,,,,,0.0,22.0,22.0,22.0,,,,,,,,,,,,,,,,,,,,,,,,,,,,,,,,,2272.657615,None,2272.657615,None,2272.657615,None,1.0,1.529716667,2272.657615,None,2272.657615,None,1.0,2.118212693,2273.74083,None,2272.657615,None,1.0,2.757921472,2274.340754,None,2272.657615,None,space,0.604003495,2.785251786,None,2272.657615,None,2272.657615,None,,,,,,,,,,,1,2022_Mar_24_1356,SAR-soap,2021.1.2,59.98076944
178,Trial # 24,Group1-stimuli/group1-block2/real-group1-b2/Group1_IMG_4250.jpg,1,Group1_IMG_4250.jpg,,,,,,,,,0.0,23.0,23.0,23.0,,,,,,,,,,,,,,,,,,,,,,,,,,,,,,,,,2276.108753,None,2276.108753,None,2276.108753,None,3.0,15.58258526,2276.108753,None,2276.108753,None,3.0,17.17275443,2291.24743,None,2276.108753,None,2.0,18.04419267,2292.847714,None,2276.108753,None,space,0.193577113,18.07138651,None,2276.108753,None,2276.108753,None,,,,,,,,,,,1,2022_Mar_24_1356,SAR-soap,2021.1.2,59.98076944
179,Trial # 25,Group1-stimuli/group1-block2/real-group1-b2/Group1_IMG_2244.jpg,1,Group1_IMG_2244.jpg,,,,,,,,,0.0,24.0,24.0,24.0,,,,,,,,,,,,,,,,,,,,,,,,,,,,,,,,,2294.413893,None,2294.413893,None,2294.413893,None,2.0,2.563627021,2294.413893,None,2294.413893,None,2.0,3.401588087,2295.916033,None,2294.413893,None,3.0,3.941992915,2297.381995,None,2294.413893,None,space,0.240281659,3.967882957,None,2294.413893,None,2294.413893,None,,,,,,,,,,,1,2022_Mar_24_1356,SAR-soap,2021.1.2,59.98076944
180,Trial # 26,Group1-stimuli/group1-block2/fake-group2-b2/encoded_Group2_IMG_0501.jpg,0,encoded_Group2_IMG_0501.jpg,,,,,,,,,0.0,25.0,25.0,25.0,,,,,,,,,,,,,,,,,,,,,,,,,,,,,,,,,2298.681658,None,2298.681658,None,2298.681658,None,3.0,1.360618893,2298.681658,None,2298.681658,None,3.0,1.950394953,2299.583923,None,2298.681658,None,2.0,2.722366506,2300.183249,None,2298.681658,None,space,0.252657115,2.747302164,None,2298.681658,None,2298.681658,None,,,,,,,,,,,1,2022_Mar_24_1356,SAR-soap,2021.1.2,59.98076944
181,Trial # 27,Group1-stimuli/group1-block2/real-group1-b2/Group1_IMG_9684.jpg,1,Group1_IMG_9684.jpg,,,,,,,,,0.0,26.0,26.0,26.0,,,,,,,,,,,,,,,,,,,,,,,,,,,,,,,,,2301.716754,None,2301.716754,None,2301.716754,None,1.0,1.343735825,2301.716754,None,2301.716754,None,1.0,1.733159794,2302.60053,None,2301.716754,None,1.0,2.104436187,2303.000531,None,2301.716754,None,space,0.196494097,2.129452679,None,2301.716754,None,2301.716754,None,,,,,,,,,,,1,2022_Mar_24_1356,SAR-soap,2021.1.2,59.98076944
182,Trial # 28,Group1-stimuli/group1-block2/real-group1-b2/Group1_IMG_1039.jpg,1,Group1_IMG_1039.jpg,,,,,,,,,0.0,27.0,27.0,27.0,,,,,,,,,,,,,,,,,,,,,,,,,,,,,,,,,2304.066686,None,2304.066686,None,2304.066686,None,3.0,1.382968995,2304.066686,None,2304.066686,None,3.0,2.138460344,2305.00178,None,2304.066686,None,3.0,3.144054851,2305.768931,None,2304.066686,None,space,0.091414246,3.172754199,None,2304.066686,None,2304.066686,None,,,,,,,,,,,1,2022_Mar_24_1356,SAR-soap,2021.1.2,59.98076944
183,Trial # 29,Group1-stimuli/group1-block2/fake-group2-b2/encoded_Group2_IMG_0251.jpg,0,encoded_Group2_IMG_0251.jpg,,,,,,,,,0.0,28.0,28.0,28.0,,,,,,,,,,,,,,,,,,,,,,,,,,,,,,,,,2307.351261,None,2307.351261,None,2307.351261,None,1.0,1.314264865,2307.351261,None,2307.351261,None,1.0,2.003170897,2308.218474,None,2307.351261,None,1.0,2.409896529,2308.919342,None,2307.351261,None,space,0.637215111,2.436027325,None,2307.351261,None,2307.351261,None,,,,,,,,,,,1,2022_Mar_24_1356,SAR-soap,2021.1.2,59.98076944
184,Trial # 30,Group1-stimuli/group1-block2/real-group1-b2/Group1_IMG_9692.jpg,1,Group1_IMG_9692.jpg,,,,,,,,,0.0,29.0,29.0,29.0,,,,,,,,,,,,,,,,,,,,,,,,,,,,,,,,,2310.486935,None,2310.486935,None,2310.486935,None,1.0,1.612549699,2310.486935,None,2310.486935,None,1.0,2.235126173,2311.636556,None,2310.486935,None,1.0,2.671991873,2312.27012,None,2310.486935,None,space,0.324077975,2.698163748,None,2310.486935,None,2310.486935,None,,,,,,,,,,,1,2022_Mar_24_1356,SAR-soap,2021.1.2,59.98076944
185,Trial # 31,Group1-stimuli/group1-block2/real-group1-b2/Group1_IMG_0512.jpg,1,Group1_IMG_0512.jpg,,,,,,,,,0.0,30.0,30.0,30.0,,,,,,,,,,,,,,,,,,,,,,,,,,,,,,,,,2313.537035,None,2313.537035,None,2313.537035,None,3.0,1.410675724,2313.537035,None,2313.537035,None,2.0,2.200445127,2314.488658,None,2313.537035,None,4.0,3.005833884,2315.288552,None,2313.537035,None,space,1.090685646,3.031210514,None,2313.537035,None,2313.537035,None,,,,,,,,,,,1,2022_Mar_24_1356,SAR-soap,2021.1.2,59.98076944
186,Trial # 32,Group1-stimuli/group1-block2/fake-group2-b2/encoded_Group2_IMG_9673.jpg,0,encoded_Group2_IMG_9673.jpg,,,,,,,,,0.0,31.0,31.0,31.0,,,,,,,,,,,,,,,,,,,,,,,,,,,,,,,,,2317.722043,None,2317.722043,None,2317.722043,None,1.0,3.314759806,2317.722043,None,2317.722043,None,1.0,4.119956603,2320.139267,None,2317.722043,None,1.0,4.557620344,2321.406232,None,2317.722043,None,space,1.372088944,4.585570172,None,2317.722043,None,2317.722043,None,,,,,,,,,,,1,2022_Mar_24_1356,SAR-soap,2021.1.2,59.98076944
187,Trial # 33,Group1-stimuli/group1-block2/fake-group2-b2/encoded_Group2_IMG_5135.jpg,0,encoded_Group2_IMG_5135.jpg,,,,,,,,,0.0,32.0,32.0,32.0,,,,,,,,,,,,,,,,,,,,,,,,,,,,,,,,,2323.739427,None,2323.739427,None,2323.739427,None,3.0,2.153082773,2323.739427,None,2323.739427,None,2.0,2.842621276,2325.441975,None,2323.739427,None,3.0,3.513201485,2326.140696,None,2323.739427,None,space,0.186734956,3.54830367,None,2323.739427,None,2323.739427,None,,,,,,,,,,,1,2022_Mar_24_1356,SAR-soap,2021.1.2,59.98076944
188,Trial # 34,Group1-stimuli/group1-block2/real-group1-b2/Group1_IMG_0396.jpg,1,Group1_IMG_0396.jpg,,,,,,,,,0.0,33.0,33.0,33.0,,,,,,,,,,,,,,,,,,,,,,,,,,,,,,,,,2327.508193,None,2327.508193,None,2327.508193,None,2.0,2.778310434,2327.508193,None,2327.508193,None,2.0,3.434130728,2329.825672,None,2327.508193,None,2.0,4.505712174,2330.492365,None,2327.508193,None,space,0.083092278,4.53259263,None,2327.508193,None,2327.508193,None,,,,,,,,,,,1,2022_Mar_24_1356,SAR-soap,2021.1.2,59.98076944
189,Trial # 35,Group1-stimuli/group1-block2/real-group1-b2/Group1_IMG_4919.jpg,1,Group1_IMG_4919.jpg,,,,,,,,,0.0,34.0,34.0,34.0,,,,,,,,,,,,,,,,,,,,,,,,,,,,,,,,,2332.175832,None,2332.175832,None,2332.175832,None,3.0,1.474274685,2332.175832,None,2332.175832,None,2.0,2.496587093,2333.193725,None,2332.175832,None,2.0,3.23666877,2334.226497,None,2332.175832,None,space,0.250043011,3.260279594,None,2332.175832,None,2332.175832,None,,,,,,,,,,,1,2022_Mar_24_1356,SAR-soap,2021.1.2,59.98076944
190,Trial # 36,Group1-stimuli/group1-block2/real-group1-b2/Group1_IMG_0449.jpg,1,Group1_IMG_0449.jpg,,,,,,,,,0.0,35.0,35.0,35.0,,,,,,,,,,,,,,,,,,,,,,,,,,,,,,,,,2335.727736,None,2335.727736,None,2335.727736,None,2.0,8.683278374,2335.727736,None,2335.727736,None,2.0,9.506841446,2343.963159,None,2335.727736,None,2.0,11.04408378,2344.796587,None,2335.727736,None,space,1.032175349,11.07457371,None,2335.727736,None,2335.727736,None,,,,,,,,,,,1,2022_Mar_24_1356,SAR-soap,2021.1.2,59.98076944
191,Trial # 37,Group1-stimuli/group1-block2/fake-group2-b2/encoded_Group2_IMG_0539.jpg,0,encoded_Group2_IMG_0539.jpg,,,,,,,,,0.0,36.0,36.0,36.0,,,,,,,,,,,,,,,,,,,,,,,,,,,,,,,,,2347.847374,None,2347.847374,None,2347.847374,None,1.0,1.664751785,2347.847374,None,2347.847374,None,1.0,2.254861644,2349.06422,None,2347.847374,None,1.0,3.126310565,2349.665522,None,2347.847374,None,space,0.102580254,3.156650969,None,2347.847374,None,2347.847374,None,,,,,,,,,,,1,2022_Mar_24_1356,SAR-soap,2021.1.2,59.98076944
192,Trial # 38,Group1-stimuli/group1-block2/real-group1-b2/Group1_IMG_0453.jpg,1,Group1_IMG_0453.jpg,,,,,,,,,0.0,37.0,37.0,37.0,,,,,,,,,,,,,,,,,,,,,,,,,,,,,,,,,2351.165964,None,2351.165964,None,2351.165964,None,2.0,1.426112494,2351.165964,None,2351.165964,None,2.0,2.216242798,2352.132205,None,2351.165964,None,2.0,2.920976485,2352.932602,None,2351.165964,None,space,0.170495188,2.944960262,None,2351.165964,None,2351.165964,None,,,,,,,,,,,1,2022_Mar_24_1356,SAR-soap,2021.1.2,59.98076944
193,Trial # 39,Group1-stimuli/group1-block2/fake-group2-b2/encoded_Group2_IMG_0318.jpg,0,encoded_Group2_IMG_0318.jpg,,,,,,,,,0.0,38.0,38.0,38.0,,,,,,,,,,,,,,,,,,,,,,,,,,,,,,,,,2354.332494,None,2354.332494,None,2354.332494,None,1.0,1.499040981,2354.332494,None,2354.332494,None,2.0,3.787717981,2355.384395,None,2354.332494,None,2.0,4.760820244,2357.684241,None,2354.332494,None,space,0.592617961,4.79090381,None,2354.332494,None,2354.332494,None,,,,,,,,,,,1,2022_Mar_24_1356,SAR-soap,2021.1.2,59.98076944
194,Trial # 40,Group1-stimuli/group1-block2/real-group1-b2/Group1_IMG_1678.jpg,1,Group1_IMG_1678.jpg,,,,,,,,,0.0,39.0,39.0,39.0,,,,,,,,,,,,,,,,,,,,,,,,,,,,,,,,,2359.751003,None,2359.751003,None,2359.751003,None,1.0,1.247703311,2359.751003,None,2359.751003,None,1.0,2.370133381,2360.552849,None,2359.751003,None,1.0,3.009090258,2361.684782,None,2359.751003,None,space,0.156878076,3.036721553,None,2359.751003,None,2359.751003,None,,,,,,,,,,,1,2022_Mar_24_1356,SAR-soap,2021.1.2,59.98076944
195,Trial # 41,Group1-stimuli/group1-block2/fake-group2-b2/encoded_Group2_IMG_0325.jpg,0,encoded_Group2_IMG_0325.jpg,,,,,,,,,0.0,40.0,40.0,40.0,,,,,,,,,,,,,,,,,,,,,,,,,,,,,,,,,2362.984947,None,2362.984947,None,2362.984947,None,1.0,1.356802642,2362.984947,None,2362.984947,None,1.0,1.946243824,2363.886374,None,2362.984947,None,1.0,2.519388918,2364.486249,None,2362.984947,None,space,0.229691888,2.541321308,None,2362.984947,None,2362.984947,None,,,,,,,,,,,1,2022_Mar_24_1356,SAR-soap,2021.1.2,59.98076944
196,Trial # 42,Group1-stimuli/group1-block2/fake-group2-b2/encoded_Group2_IMG_9935.jpg,0,encoded_Group2_IMG_9935.jpg,,,,,,,,,0.0,41.0,41.0,41.0,,,,,,,,,,,,,,,,,,,,,,,,,,,,,,,,,2365.786629,None,2365.786629,None,2365.786629,None,1.0,1.569469271,2365.786629,None,2365.786629,None,1.0,3.026061003,2366.903203,None,2365.786629,None,1.0,3.464027711,2368.369819,None,2365.786629,None,space,0.175948266,3.498544916,None,2365.786629,None,2365.786629,None,,,,,,,,,,,1,2022_Mar_24_1356,SAR-soap,2021.1.2,59.98076944
197,Trial # 43,Group1-stimuli/group1-block2/fake-group2-b2/encoded_Group2_IMG_0308.jpg,0,encoded_Group2_IMG_0308.jpg,,,,,,,,,0.0,42.0,42.0,42.0,,,,,,,,,,,,,,,,,,,,,,,,,,,,,,,,,2369.486998,None,2369.486998,None,2369.486998,None,2.0,1.615107936,2369.486998,None,2369.486998,None,3.0,2.636230074,2370.655716,None,2369.486998,None,2.0,3.742117722,2371.688223,None,2369.486998,None,space,0.01522772,3.770214781,None,2369.486998,None,2369.486998,None,,,,,,,,,,,1,2022_Mar_24_1356,SAR-soap,2021.1.2,59.98076944
198,Trial # 44,Group1-stimuli/group1-block2/real-group1-b2/Group1_IMG_0467.jpg,1,Group1_IMG_0467.jpg,,,,,,,,,0.0,43.0,43.0,43.0,,,,,,,,,,,,,,,,,,,,,,,,,,,,,,,,,2373.338395,None,2373.338395,None,2373.338395,None,3.0,1.443103806,2373.338395,None,2373.338395,None,3.0,2.267357935,2374.305691,None,2373.338395,None,3.0,2.840025853,2375.140041,None,2373.338395,None,space,0.22443235,2.864786439,None,2373.338395,None,2373.338395,None,,,,,,,,,,,1,2022_Mar_24_1356,SAR-soap,2021.1.2,59.98076944
