,Trial_num,image_path,ground_truth,image_name,demos.thisRepN,demos.thisTrialN,demos.thisN,demos.thisIndex,block_1.thisRepN,block_1.thisTrialN,block_1.thisN,block_1.thisIndex,block_2.thisRepN,block_2.thisTrialN,block_2.thisN,block_2.thisIndex,text_3.started,text_3.stopped,Task.started,Task.stopped,text_10.started,text_10.stopped,key_resp.keys,key_resp.rt,key_resp.started,key_resp.stopped,image_2.started,image_2.stopped,text_5.started,text_5.stopped,image_3.started,image_3.stopped,text_6.started,text_6.stopped,translucency.started,translucency.stopped,see_throughness.started,see_throughness.stopped,glow.started,glow.stopped,key_resp_10.keys,key_resp_10.rt,key_resp_10.started,key_resp_10.stopped,instruction.started,instruction.stopped,text_12.started,text_12.stopped,Trial_number.started,Trial_number.stopped,image.started,image.stopped,Instruction.started,Instruction.stopped,translucency_score.response,translucency_score.rt,translucency_score.started,translucency_score.stopped,Translucency.started,Translucency.stopped,seethroughness_score.response,seethroughness_score.rt,seethroughness_score.started,seethroughness_score.stopped,SeeThroughness.started,SeeThroughness.stopped,glow_score.response,glow_score.rt,glow_score.started,glow_score.stopped,Glow.started,Glow.stopped,to_next.keys,to_next.rt,to_next.started,to_next.stopped,grading_label_left.started,grading_label_left.stopped,grading_label_right.started,grading_label_right.stopped,instruct1.started,instruct1.stopped,instruct2.started,instruct2.stopped,text_4.started,text_4.stopped,text_2.started,text_2.stopped,session,date,expName,psychopyVersion,frameRate,Unnamed: 94
0,,,,,,,,,,,,,,,,,14.668187575996852,None,17.23731139296433,None,25.88863678998314,None,space,34.249509811983444,30.856591343996115,None,,,,,,,,,,,,,,,,,,,,,,,,,,,,,,,,,,,,,,,,,,,,,,,,,,,,,,,,,,,,,,,1,2022_Mar_29_1524,SAR-soap,2021.1.2,60.040468485559394,
1,,,,,,,,,,,,,,,,,,,,,,,,,,,65.60106146999169,None,65.60106146999169,None,78.42210174398497,None,78.42210174398497,None,112.4161851159879,None,112.4161851159879,None,112.4161851159879,None,space,42.16997122904286,112.4161851159879,None,,,,,,,,,,,,,,,,,,,,,,,,,,,,,,,,,,,,,,,,,,,,,1,2022_Mar_29_1524,SAR-soap,2021.1.2,60.040468485559394,
2,Demo 1,demo/Demo_IMG_0974.jpg,demo,Demo_IMG_0974.jpg,0.0,0.0,0.0,0.0,,,,,,,,,,,,,,,,,,,,,,,,,,,,,,,,,,,,,112.4161851159879,None,154.61581111396663,None,159.0959406219772,None,159.0959406219772,None,159.0959406219772,None,4.0,32.937633824010845,159.0959406219772,None,159.0959406219772,None,3.0,44.697960511024576,191.55671376595276,None,159.0959406219772,None,4.0,50.43926876800833,203.32743452198335,None,159.0959406219772,None,space,2.445419436029624,50.46337835979648,None,159.0959406219772,None,159.0959406219772,None,,,,,,,,,1,2022_Mar_29_1524,SAR-soap,2021.1.2,60.040468485559394,
3,Demo 2,demo/Demo_IMG_1024.jpg,demo,Demo_IMG_1024.jpg,0.0,1.0,1.0,1.0,,,,,,,,,,,,,,,,,,,,,,,,,,,,,,,,,,,,,,,,,212.08033277496,None,212.08033277496,None,212.08033277496,None,2.0,5.457130158960354,212.08033277496,None,212.08033277496,None,1.0,8.379381999955513,217.0814372319728,None,212.08033277496,None,1.0,17.755190333991777,220.0156685920083,None,212.08033277496,None,space,5.739804591983557,12.973716967040671,None,212.08033277496,None,212.08033277496,None,,,,,,,,,1,2022_Mar_29_1524,SAR-soap,2021.1.2,60.040468485559394,
4,Demo 3,demo/Demo_seed_80003.png,demo,Demo_seed_80003.png,0.0,2.0,2.0,2.0,,,,,,,,,,,,,,,,,,,,,,,,,,,,,,,,,,,,,,,,,230.9020195810008,None,230.9020195810008,None,230.9020195810008,None,4.0,4.643746748974081,230.9020195810008,None,230.9020195810008,None,3.0,9.80130970402388,235.08717511896972,None,230.9020195810008,None,4.0,11.841399941011332,240.25447234796596,None,230.9020195810008,None,space,6.7465825349790975,11.864504152035806,None,230.9020195810008,None,230.9020195810008,None,,,,,,,,,1,2022_Mar_29_1524,SAR-soap,2021.1.2,60.040468485559394,
5,Trial # 1,Group1-stimuli/group1-block1/real-group1-b1/Group1_IMG_0022.jpg,1,Group1_IMG_0022.jpg,,,,,0.0,0.0,0.0,0.0,,,,,,,,,,,,,,,,,,,,,,,,,,,,,,,,,,,,,263.8794274919783,None,263.8794274919783,None,263.8794274919783,None,2.0,9.151105405995622,263.8794274919783,None,263.8794274919783,None,2.0,12.040630887961017,272.5826576469699,None,263.8794274919783,None,3.0,20.34793598303804,275.48238991200924,None,263.8794274919783,None,space,1.0269822080153972,20.377401016361546,None,263.8794274919783,None,263.8794274919783,None,249.5239866329939,None,249.5239866329939,None,249.5239866329939,None,,,1,2022_Mar_29_1524,SAR-soap,2021.1.2,60.040468485559394,
6,Trial # 2,Group1-stimuli/group1-block1/fake-group2-b1/encoded_Group2_IMG_0386.jpg,0,encoded_Group2_IMG_0386.jpg,,,,,0.0,1.0,1.0,1.0,,,,,,,,,,,,,,,,,,,,,,,,,,,,,,,,,,,,,285.3180827489705,None,285.3180827489705,None,285.3180827489705,None,3.0,3.3916144800023176,285.3180827489705,None,285.3180827489705,None,2.0,5.515078380005434,288.2529230460059,None,285.3180827489705,None,2.0,8.254467784019653,290.38646662497194,None,285.3180827489705,None,space,0.5052678629872389,8.277633176592644,None,285.3180827489705,None,285.3180827489705,None,,,,,,,,,1,2022_Mar_29_1524,SAR-soap,2021.1.2,60.040468485559394,
7,Trial # 3,Group1-stimuli/group1-block1/real-group1-b1/Group1_IMG_9704.jpg,1,Group1_IMG_9704.jpg,,,,,0.0,2.0,2.0,2.0,,,,,,,,,,,,,,,,,,,,,,,,,,,,,,,,,,,,,294.15507579699624,None,294.15507579699624,None,294.15507579699624,None,1.0,9.67973965400597,294.15507579699624,None,294.15507579699624,None,1.0,19.70587557501858,303.37581146496814,None,294.15507579699624,None,1.0,22.37954878003802,313.41166610695655,None,294.15507579699624,None,space,7.885812469001394,22.40270046365913,None,294.15507579699624,None,294.15507579699624,None,,,,,,,,,1,2022_Mar_29_1524,SAR-soap,2021.1.2,60.040468485559394,
8,Trial # 4,Group1-stimuli/group1-block1/real-group1-b1/Group1_IMG_0406.jpg,1,Group1_IMG_0406.jpg,,,,,0.0,3.0,3.0,3.0,,,,,,,,,,,,,,,,,,,,,,,,,,,,,,,,,,,,,324.4808612499619,None,324.4808612499619,None,324.4808612499619,None,2.0,6.143099499982782,324.4808612499619,None,324.4808612499619,None,2.0,8.33449701598147,330.16592034796486,None,324.4808612499619,None,2.0,17.24120467301691,332.36760893597966,None,324.4808612499619,None,space,0.742790139047429,17.263024357613176,None,324.4808612499619,None,324.4808612499619,None,,,,,,,,,1,2022_Mar_29_1524,SAR-soap,2021.1.2,60.040468485559394,
9,Trial # 5,Group1-stimuli/group1-block1/fake-group2-b1/encoded_Group2_IMG_0364.jpg,0,encoded_Group2_IMG_0364.jpg,,,,,0.0,4.0,4.0,4.0,,,,,,,,,,,,,,,,,,,,,,,,,,,,,,,,,,,,,342.52018285996746,None,342.52018285996746,None,342.52018285996746,None,1.0,3.529325974988751,342.52018285996746,None,342.52018285996746,None,1.0,4.119935816968791,345.60373874299694,None,342.52018285996746,None,1.0,4.68964603805216,346.20433709200006,None,342.52018285996746,None,space,18.927540072007105,4.718103131628595,None,342.52018285996746,None,342.52018285996746,None,,,,,,,,,1,2022_Mar_29_1524,SAR-soap,2021.1.2,60.040468485559394,
10,Trial # 6,Group1-stimuli/group1-block1/fake-group2-b1/encoded_Group2_IMG_0407.jpg,0,encoded_Group2_IMG_0407.jpg,,,,,0.0,5.0,5.0,5.0,,,,,,,,,,,,,,,,,,,,,,,,,,,,,,,,,,,,,366.2101959149586,None,366.2101959149586,None,366.2101959149586,None,3.0,19.89952335896669,366.2101959149586,None,366.2101959149586,None,2.0,4.735156167997047,369.2615681469906,None,366.2101959149586,None,2.0,5.539371780992951,370.4953968609916,None,366.2101959149586,None,space,15.515879875980318,5.564518101629801,None,366.2101959149586,None,366.2101959149586,None,,,,,,,,,1,2022_Mar_29_1524,SAR-soap,2021.1.2,60.040468485559394,
11,Trial # 7,Group1-stimuli/group1-block1/real-group1-b1/Group1_IMG_0428.jpg,1,Group1_IMG_0428.jpg,,,,,0.0,6.0,6.0,6.0,,,,,,,,,,,,,,,,,,,,,,,,,,,,,,,,,,,,,387.334038319008,None,387.334038319008,None,387.334038319008,None,4.0,8.842005960992537,387.334038319008,None,387.334038319008,None,3.0,13.79900090902811,395.7199988180073,None,387.334038319008,None,3.0,15.539211485011036,400.68751794396667,None,387.334038319008,None,space,0.3972143289865926,15.561815503577236,None,387.334038319008,None,387.334038319008,None,,,,,,,,,1,2022_Mar_29_1524,SAR-soap,2021.1.2,60.040468485559394,
12,Trial # 8,Group1-stimuli/group1-block1/fake-group2-b1/encoded_Group2_IMG_0474.jpg,0,encoded_Group2_IMG_0474.jpg,,,,,0.0,7.0,7.0,7.0,,,,,,,,,,,,,,,,,,,,,,,,,,,,,,,,,,,,,403.3224878099864,None,403.3224878099864,None,403.3224878099864,None,1.0,2.6433970549842343,403.3224878099864,None,403.3224878099864,None,1.0,4.032977739989292,405.50693164096447,None,403.3224878099864,None,1.0,5.371640350029338,406.9064303379855,None,403.3224878099864,None,space,0.5951901039807126,5.395244809566066,None,403.3224878099864,None,403.3224878099864,None,,,,,,,,,1,2022_Mar_29_1524,SAR-soap,2021.1.2,60.040468485559394,
13,Trial # 9,Group1-stimuli/group1-block1/fake-group2-b1/encoded_Group2_IMG_1506.jpg,0,encoded_Group2_IMG_1506.jpg,,,,,0.0,8.0,8.0,8.0,,,,,,,,,,,,,,,,,,,,,,,,,,,,,,,,,,,,,409.3400878770044,None,409.3400878770044,None,409.3400878770044,None,5.0,8.01239104900742,409.3400878770044,None,409.3400878770044,None,4.0,10.93468499701703,416.89427570300177,None,409.3400878770044,None,3.0,12.506990906025749,419.8269182159565,None,409.3400878770044,None,space,0.2730389310163446,12.530456467648037,None,409.3400878770044,None,409.3400878770044,None,,,,,,,,,1,2022_Mar_29_1524,SAR-soap,2021.1.2,60.040468485559394,
14,Trial # 10,Group1-stimuli/group1-block1/real-group1-b1/Group1_IMG_9789.jpg,1,Group1_IMG_9789.jpg,,,,,0.0,9.0,9.0,9.0,,,,,,,,,,,,,,,,,,,,,,,,,,,,,,,,,,,,,422.19504087098176,None,422.19504087098176,None,422.19504087098176,None,1.0,1.9266253930400128,422.19504087098176,None,422.19504087098176,None,1.0,2.648842340975534,423.6614341340028,None,422.19504087098176,None,1.0,3.2207823820062917,424.3947931969888,None,422.19504087098176,None,space,0.5056974600302055,3.245080775639508,None,422.19504087098176,None,422.19504087098176,None,,,,,,,,,1,2022_Mar_29_1524,SAR-soap,2021.1.2,60.040468485559394,
15,Trial # 11,Group1-stimuli/group1-block1/real-group1-b1/Group1_IMG_9778.jpg,1,Group1_IMG_9778.jpg,,,,,0.0,10.0,10.0,10.0,,,,,,,,,,,,,,,,,,,,,,,,,,,,,,,,,,,,,425.9787548739696,None,425.9787548739696,None,425.9787548739696,None,4.0,6.765470013022423,425.9787548739696,None,425.9787548739696,None,2.0,11.873293696029576,427.94781185797183,None,425.9787548739696,None,3.0,13.377726692997385,437.4167721779668,None,425.9787548739696,None,space,0.2552941190078854,13.404238435614388,None,425.9787548739696,None,425.9787548739696,None,,,,,,,,,1,2022_Mar_29_1524,SAR-soap,2021.1.2,60.040468485559394,
16,Trial # 12,Group1-stimuli/group1-block1/real-group1-b1/Group1_IMG_9813.jpg,1,Group1_IMG_9813.jpg,,,,,0.0,11.0,11.0,11.0,,,,,,,,,,,,,,,,,,,,,,,,,,,,,,,,,,,,,439.68245891999686,None,439.68245891999686,None,439.68245891999686,None,1.0,2.543601325014606,439.68245891999686,None,439.68245891999686,None,1.0,3.0337505149655044,441.7675006729551,None,439.68245891999686,None,1.0,3.9392253019614154,442.2681751640048,None,439.68245891999686,None,space,0.258891781035345,3.963692462595645,None,439.68245891999686,None,439.68245891999686,None,,,,,,,,,1,2022_Mar_29_1524,SAR-soap,2021.1.2,60.040468485559394,
17,Trial # 13,Group1-stimuli/group1-block1/real-group1-b1/Group1_IMG_0516.jpg,1,Group1_IMG_0516.jpg,,,,,0.0,12.0,12.0,12.0,,,,,,,,,,,,,,,,,,,,,,,,,,,,,,,,,,,,,443.93404916796135,None,443.93404916796135,None,443.93404916796135,None,4.0,5.294830803992227,443.93404916796135,None,443.93404916796135,None,2.0,6.983956211013719,448.7695971949725,None,443.93404916796135,None,4.0,9.758245621982496,450.46930520498427,None,443.93404916796135,None,space,0.4059543439652771,9.78319554857444,None,443.93404916796135,None,443.93404916796135,None,,,,,,,,,1,2022_Mar_29_1524,SAR-soap,2021.1.2,60.040468485559394,
18,Trial # 14,Group1-stimuli/group1-block1/fake-group2-b1/encoded_Group2_IMG_0038.jpg,0,encoded_Group2_IMG_0038.jpg,,,,,0.0,13.0,13.0,13.0,,,,,,,,,,,,,,,,,,,,,,,,,,,,,,,,,,,,,454.1715515339747,None,454.1715515339747,None,454.1715515339747,None,3.0,6.091974117036443,454.1715515339747,None,454.1715515339747,None,2.0,9.699029099021573,459.80596001195954,None,454.1715515339747,None,2.0,13.974055570026394,463.4247966649709,None,454.1715515339747,None,space,0.4465511470334604,13.99683194665704,None,454.1715515339747,None,454.1715515339747,None,,,,,,,,,1,2022_Mar_29_1524,SAR-soap,2021.1.2,60.040468485559394,
19,Trial # 15,Group1-stimuli/group1-block1/real-group1-b1/Group1_IMG_5984.jpg,1,Group1_IMG_5984.jpg,,,,,0.0,14.0,14.0,14.0,,,,,,,,,,,,,,,,,,,,,,,,,,,,,,,,,,,,,468.6425823479658,None,468.6425823479658,None,468.6425823479658,None,1.0,2.0467810449772514,468.6425823479658,None,468.6425823479658,None,1.0,2.668564520019572,470.2426222669892,None,468.6425823479658,None,1.0,3.274011442961637,470.87590045295656,None,468.6425823479658,None,space,0.479365763021633,3.300762450613547,None,468.6425823479658,None,468.6425823479658,None,,,,,,,,,1,2022_Mar_29_1524,SAR-soap,2021.1.2,60.040468485559394,
20,Trial # 16,Group1-stimuli/group1-block1/real-group1-b1/Group1_IMG_0383.jpg,1,Group1_IMG_0383.jpg,,,,,0.0,15.0,15.0,15.0,,,,,,,,,,,,,,,,,,,,,,,,,,,,,,,,,,,,,472.4767071889946,None,472.4767071889946,None,472.4767071889946,None,4.0,3.840214099967852,472.4767071889946,None,472.4767071889946,None,2.0,7.297868334979283,475.8609213919845,None,472.4767071889946,None,3.0,11.406205423001666,479.3292109959875,None,472.4767071889946,None,space,0.2284428889979608,11.427213042567018,None,472.4767071889946,None,472.4767071889946,None,,,,,,,,,1,2022_Mar_29_1524,SAR-soap,2021.1.2,60.040468485559394,
21,Trial # 17,Group1-stimuli/group1-block1/fake-group2-b1/encoded_Group2_IMG_0456.jpg,0,encoded_Group2_IMG_0456.jpg,,,,,0.0,16.0,16.0,16.0,,,,,,,,,,,,,,,,,,,,,,,,,,,,,,,,,,,,,484.163176315953,None,484.163176315953,None,484.163176315953,None,4.0,3.46147286798805,484.163176315953,None,484.163176315953,None,2.0,8.852408085949719,487.1656382289948,None,484.163176315953,None,3.0,10.925703143002464,492.5667094310047,None,484.163176315953,None,space,0.2982104370021261,10.949009629664944,None,484.163176315953,None,484.163176315953,None,,,,,,,,,1,2022_Mar_29_1524,SAR-soap,2021.1.2,60.040468485559394,
22,Trial # 18,Group1-stimuli/group1-block1/fake-group2-b1/encoded_Group2_IMG_8390.jpg,0,encoded_Group2_IMG_8390.jpg,,,,,0.0,17.0,17.0,17.0,,,,,,,,,,,,,,,,,,,,,,,,,,,,,,,,,,,,,495.4165566329612,None,495.4165566329612,None,495.4165566329612,None,5.0,3.615463134949096,495.4165566329612,None,495.4165566329612,None,3.0,8.472181158023886,498.5849548080005,None,495.4165566329612,None,4.0,10.2771590850316,503.4531639000052,None,495.4165566329612,None,space,0.6056555639952421,10.305946365639102,None,495.4165566329612,None,495.4165566329612,None,,,,,,,,,1,2022_Mar_29_1524,SAR-soap,2021.1.2,60.040468485559394,
23,Trial # 19,Group1-stimuli/group1-block1/real-group1-b1/Group1_IMG_0011.jpg,1,Group1_IMG_0011.jpg,,,,,0.0,18.0,18.0,18.0,,,,,,,,,,,,,,,,,,,,,,,,,,,,,,,,,,,,,506.3862063519773,None,506.3862063519773,None,506.3862063519773,None,5.0,2.692480021971278,506.3862063519773,None,506.3862063519773,None,3.0,6.150242105999496,508.62141670298297,None,506.3862063519773,None,4.0,7.490344599995296,512.0891499319696,None,506.3862063519773,None,space,0.2210706709884107,7.511460308625828,None,506.3862063519773,None,506.3862063519773,None,,,,,,,,,1,2022_Mar_29_1524,SAR-soap,2021.1.2,60.040468485559394,
24,Trial # 20,Group1-stimuli/group1-block1/fake-group2-b1/encoded_Group2_IMG_0328.jpg,0,encoded_Group2_IMG_0328.jpg,,,,,0.0,19.0,19.0,19.0,,,,,,,,,,,,,,,,,,,,,,,,,,,,,,,,,,,,,514.1395609600004,None,514.1395609600004,None,514.1395609600004,None,2.0,4.413605484005529,514.1395609600004,None,514.1395609600004,None,1.0,5.95262004295364,518.1078868579934,None,514.1395609600004,None,2.0,8.26107544201659,519.657586227986,None,514.1395609600004,None,space,0.2117713760235346,8.287508607667405,None,514.1395609600004,None,514.1395609600004,None,,,,,,,,,1,2022_Mar_29_1524,SAR-soap,2021.1.2,60.040468485559394,
25,Trial # 21,Group1-stimuli/group1-block1/fake-group2-b1/encoded_Group2_IMG_0163.jpg,0,encoded_Group2_IMG_0163.jpg,,,,,0.0,20.0,20.0,20.0,,,,,,,,,,,,,,,,,,,,,,,,,,,,,,,,,,,,,522.6756968499976,None,522.6756968499976,None,522.6756968499976,None,5.0,4.847157743002754,522.6756968499976,None,522.6756968499976,None,3.0,7.437139143992681,527.0783046029974,None,522.6756968499976,None,3.0,10.643759225029498,528.7445165859535,None,522.6756968499976,None,space,1.715801592974458,10.671512297645677,None,522.6756968499976,None,522.6756968499976,None,,,,,,,,,1,2022_Mar_29_1524,SAR-soap,2021.1.2,60.040468485559394,
26,Trial # 22,Group1-stimuli/group1-block1/real-group1-b1/Group1_IMG_9862.jpg,1,Group1_IMG_9862.jpg,,,,,0.0,21.0,21.0,21.0,,,,,,,,,,,,,,,,,,,,,,,,,,,,,,,,,,,,,535.1125439119642,None,535.1125439119642,None,535.1125439119642,None,2.0,4.278968070982955,535.1125439119642,None,535.1125439119642,None,1.0,6.235253387945704,538.9305356819532,None,535.1125439119642,None,1.0,8.707514156994876,540.8975168089964,None,535.1125439119642,None,space,1.9274743909481915,7.132272208633367,None,535.1125439119642,None,535.1125439119642,None,,,,,,,,,1,2022_Mar_29_1524,SAR-soap,2021.1.2,60.040468485559394,
27,Trial # 23,Group1-stimuli/group1-block1/fake-group2-b1/encoded_Group2_IMG_0296.jpg,0,encoded_Group2_IMG_0296.jpg,,,,,0.0,22.0,22.0,22.0,,,,,,,,,,,,,,,,,,,,,,,,,,,,,,,,,,,,,544.1820132340072,None,544.1820132340072,None,544.1820132340072,None,5.0,2.447188970982097,544.1820132340072,None,544.1820132340072,None,4.0,9.705687321024016,546.1823284159764,None,544.1820132340072,None,4.0,11.912052046973258,553.4526323449682,None,544.1820132340072,None,space,0.8234453329932876,11.94049196265405,None,544.1820132340072,None,544.1820132340072,None,,,,,,,,,1,2022_Mar_29_1524,SAR-soap,2021.1.2,60.040468485559394,
28,Trial # 24,Group1-stimuli/group1-block1/fake-group2-b1/encoded_Group2_IMG_0503.jpg,0,encoded_Group2_IMG_0503.jpg,,,,,0.0,23.0,23.0,23.0,,,,,,,,,,,,,,,,,,,,,,,,,,,,,,,,,,,,,556.9702066349564,None,556.9702066349564,None,556.9702066349564,None,5.0,2.6316298869787715,556.9702066349564,None,556.9702066349564,None,3.0,4.687827968969941,559.1538525389624,None,556.9702066349564,None,4.0,13.063050145981832,561.2201850939891,None,556.9702066349564,None,space,0.7097352950368077,13.091485031647608,None,556.9702066349564,None,556.9702066349564,None,,,,,,,,,1,2022_Mar_29_1524,SAR-soap,2021.1.2,60.040468485559394,
29,Trial # 25,Group1-stimuli/group1-block1/fake-group2-b1/encoded_Group2_IMG_9804.jpg,0,encoded_Group2_IMG_9804.jpg,,,,,0.0,24.0,24.0,24.0,,,,,,,,,,,,,,,,,,,,,,,,,,,,,,,,,,,,,570.8061528219841,None,570.8061528219841,None,570.8061528219841,None,1.0,2.764862031966913,570.8061528219841,None,570.8061528219841,None,1.0,3.25483205501223,573.1245413660072,None,570.8061528219841,None,1.0,3.592868516978342,573.6244247189607,None,570.8061528219841,None,space,0.3493770330096595,3.622009934624657,None,570.8061528219841,None,570.8061528219841,None,,,,,,,,,1,2022_Mar_29_1524,SAR-soap,2021.1.2,60.040468485559394,
30,Trial # 26,Group1-stimuli/group1-block1/real-group1-b1/Group1_IMG_0391.jpg,1,Group1_IMG_0391.jpg,,,,,0.0,25.0,25.0,25.0,,,,,,,,,,,,,,,,,,,,,,,,,,,,,,,,,,,,,574.8249132299679,None,574.8249132299679,None,574.8249132299679,None,3.0,7.911201631010044,574.8249132299679,None,574.8249132299679,None,3.0,3.681797783006914,576.558531505987,None,574.8249132299679,None,3.0,5.82168150797952,578.0591202669893,None,574.8249132299679,None,space,2.306675814965274,5.842822920589242,None,574.8249132299679,None,574.8249132299679,None,,,,,,,,,1,2022_Mar_29_1524,SAR-soap,2021.1.2,60.040468485559394,
31,Trial # 27,Group1-stimuli/group1-block1/fake-group2-b1/encoded_Group2_IMG_3584.jpg,0,encoded_Group2_IMG_3584.jpg,,,,,0.0,26.0,26.0,26.0,,,,,,,,,,,,,,,,,,,,,,,,,,,,,,,,,,,,,583.0280415989691,None,583.0280415989691,None,583.0280415989691,None,4.0,2.242897677992005,583.0280415989691,None,583.0280415989691,None,2.0,4.534128365979996,584.8118503929581,None,583.0280415989691,None,3.0,5.072185998025816,587.1123521369882,None,583.0280415989691,None,space,0.2295069050160236,5.0954017175827175,None,583.0280415989691,None,583.0280415989691,None,,,,,,,,,1,2022_Mar_29_1524,SAR-soap,2021.1.2,60.040468485559394,
32,Trial # 28,Group1-stimuli/group1-block1/fake-group2-b1/encoded_Group2_IMG_0434.jpg,0,encoded_Group2_IMG_0434.jpg,,,,,0.0,27.0,27.0,27.0,,,,,,,,,,,,,,,,,,,,,,,,,,,,,,,,,,,,,588.3802287579747,None,588.3802287579747,None,588.3802287579747,None,6.0,2.743281127011869,588.3802287579747,None,588.3802287579747,None,5.0,6.235243887989782,590.6633781569544,None,588.3802287579747,None,6.0,7.505343461001757,594.164025164966,None,588.3802287579747,None,space,0.1564296939759515,7.530652193643618,None,588.3802287579747,None,588.3802287579747,None,,,,,,,,,1,2022_Mar_29_1524,SAR-soap,2021.1.2,60.040468485559394,
33,Trial # 29,Group1-stimuli/group1-block1/fake-group2-b1/encoded_Group2_IMG_9575.jpg,0,encoded_Group2_IMG_9575.jpg,,,,,0.0,28.0,28.0,28.0,,,,,,,,,,,,,,,,,,,,,,,,,,,,,,,,,,,,,596.0814131639781,None,596.0814131639781,None,596.0814131639781,None,2.0,3.313918984029442,596.0814131639781,None,596.0814131639781,None,2.0,4.33646422997117,598.9488440100104,None,596.0814131639781,None,1.0,5.874666509043891,599.9821919719689,None,596.0814131639781,None,space,0.9681837699608876,5.071352501690853,None,596.0814131639781,None,596.0814131639781,None,,,,,,,,,1,2022_Mar_29_1524,SAR-soap,2021.1.2,60.040468485559394,
34,Trial # 30,Group1-stimuli/group1-block1/fake-group2-b1/encoded_Group2_IMG_1025.jpg,0,encoded_Group2_IMG_1025.jpg,,,,,0.0,29.0,29.0,29.0,,,,,,,,,,,,,,,,,,,,,,,,,,,,,,,,,,,,,602.1671596249798,None,602.1671596249798,None,602.1671596249798,None,1.0,2.014781624020543,602.1671596249798,None,602.1671596249798,None,1.0,2.3713715419871733,603.7343044449808,None,602.1671596249798,None,1.0,3.143706545990426,604.100520857959,None,602.1671596249798,None,space,0.200269945024047,3.169920743617695,None,602.1671596249798,None,602.1671596249798,None,,,,,,,,,1,2022_Mar_29_1524,SAR-soap,2021.1.2,60.040468485559394,
35,Trial # 31,Group1-stimuli/group1-block1/real-group1-b1/Group1_IMG_0502.jpg,1,Group1_IMG_0502.jpg,,,,,0.0,30.0,30.0,30.0,,,,,,,,,,,,,,,,,,,,,,,,,,,,,,,,,,,,,605.567606911005,None,605.567606911005,None,605.567606911005,None,5.0,2.4931517650256865,605.567606911005,None,605.567606911005,None,3.0,6.5842744070105255,607.6020211699652,None,605.567606911005,None,5.0,7.524542230996303,611.7023829299724,None,605.567606911005,None,space,0.2066216240054927,7.547844492655713,None,605.567606911005,None,605.567606911005,None,,,,,,,,,1,2022_Mar_29_1524,SAR-soap,2021.1.2,60.040468485559394,
36,Trial # 32,Group1-stimuli/group1-block1/real-group1-b1/Group1_IMG_0182.jpg,1,Group1_IMG_0182.jpg,,,,,0.0,31.0,31.0,31.0,,,,,,,,,,,,,,,,,,,,,,,,,,,,,,,,,,,,,613.3707849409548,None,613.3707849409548,None,613.3707849409548,None,6.0,2.060577770054806,613.3707849409548,None,613.3707849409548,None,6.0,5.484655581996776,614.9705586449709,None,613.3707849409548,None,5.0,7.188654475961812,618.4059867729666,None,613.3707849409548,None,space,0.1771648050053045,7.21429624868324,None,613.3707849409548,None,613.3707849409548,None,,,,,,,,,1,2022_Mar_29_1524,SAR-soap,2021.1.2,60.040468485559394,
37,Trial # 33,Group1-stimuli/group1-block1/fake-group2-b1/encoded_Group2_IMG_2728.jpg,0,encoded_Group2_IMG_2728.jpg,,,,,0.0,32.0,32.0,32.0,,,,,,,,,,,,,,,,,,,,,,,,,,,,,,,,,,,,,620.7884952069726,None,620.7884952069726,None,620.7884952069726,None,2.0,2.98147878004238,620.7884952069726,None,620.7884952069726,None,1.0,4.970318297971971,623.3241598359891,None,620.7884952069726,None,2.0,5.9417140819714405,625.3234317660099,None,620.7884952069726,None,space,0.1929583770106546,5.970774607674684,None,620.7884952069726,None,620.7884952069726,None,,,,,,,,,1,2022_Mar_29_1524,SAR-soap,2021.1.2,60.040468485559394,
38,Trial # 34,Group1-stimuli/group1-block1/fake-group2-b1/encoded_Group2_IMG_4867.jpg,0,encoded_Group2_IMG_4867.jpg,,,,,0.0,33.0,33.0,33.0,,,,,,,,,,,,,,,,,,,,,,,,,,,,,,,,,,,,,626.9752359149861,None,626.9752359149861,None,626.9752359149861,None,4.0,2.532220408960711,626.9752359149861,None,626.9752359149861,None,4.0,6.487524476950057,629.0593915579957,None,626.9752359149861,None,5.0,8.927582997013815,630.4917196639581,None,626.9752359149861,None,space,0.830528412014246,8.388885062653571,None,626.9752359149861,None,626.9752359149861,None,,,,,,,,,1,2022_Mar_29_1524,SAR-soap,2021.1.2,60.040468485559394,
39,Trial # 35,Group1-stimuli/group1-block1/real-group1-b1/Group1_IMG_9894.jpg,1,Group1_IMG_9894.jpg,,,,,0.0,34.0,34.0,34.0,,,,,,,,,,,,,,,,,,,,,,,,,,,,,,,,,,,,,636.2264378429973,None,636.2264378429973,None,636.2264378429973,None,1.0,1.978911912010517,636.2264378429973,None,636.2264378429973,None,1.0,2.368119027989451,637.7450892360066,None,636.2264378429973,None,1.0,2.738944860000629,638.1451338189654,None,636.2264378429973,None,space,0.2994847420486621,2.7649871736066416,None,636.2264378429973,None,636.2264378429973,None,,,,,,,,,1,2022_Mar_29_1524,SAR-soap,2021.1.2,60.040468485559394,
40,Trial # 36,Group1-stimuli/group1-block1/fake-group2-b1/encoded_Group2_IMG_0444.jpg,0,encoded_Group2_IMG_0444.jpg,,,,,0.0,35.0,35.0,35.0,,,,,,,,,,,,,,,,,,,,,,,,,,,,,,,,,,,,,639.2953848780016,None,639.2953848780016,None,639.2953848780016,None,3.0,4.099097356025595,639.2953848780016,None,639.2953848780016,None,2.0,6.088102996989619,642.9461796339601,None,639.2953848780016,None,2.0,9.527583237038924,644.9460172159597,None,639.2953848780016,None,space,1.2227074629627168,9.55572483962169,None,639.2953848780016,None,639.2953848780016,None,,,,,,,,,1,2022_Mar_29_1524,SAR-soap,2021.1.2,60.040468485559394,
41,Trial # 37,Group1-stimuli/group1-block1/real-group1-b1/Group1_IMG_2656.jpg,1,Group1_IMG_2656.jpg,,,,,0.0,36.0,36.0,36.0,,,,,,,,,,,,,,,,,,,,,,,,,,,,,,,,,,,,,650.0978337139823,None,650.0978337139823,None,650.0978337139823,None,2.0,3.731425335980021,650.0978337139823,None,650.0978337139823,None,1.0,4.453320115979295,653.3830616219784,None,650.0978337139823,None,1.0,5.659020491992123,654.1157538699917,None,650.0978337139823,None,space,0.5105130969895981,5.687120450602379,None,650.0978337139823,None,650.0978337139823,None,,,,,,,,,1,2022_Mar_29_1524,SAR-soap,2021.1.2,60.040468485559394,
42,Trial # 38,Group1-stimuli/group1-block1/real-group1-b1/Group1_IMG_0207.jpg,1,Group1_IMG_0207.jpg,,,,,0.0,37.0,37.0,37.0,,,,,,,,,,,,,,,,,,,,,,,,,,,,,,,,,,,,,656.3501959359855,None,656.3501959359855,None,656.3501959359855,None,2.0,11.593151525012216,656.3501959359855,None,656.3501959359855,None,1.0,13.249479419959243,667.4872543759993,None,656.3501959359855,None,1.0,13.521785530028865,669.1537197259604,None,656.3501959359855,None,space,0.3178196450462565,13.542842958588151,None,656.3501959359855,None,656.3501959359855,None,,,,,,,,,1,2022_Mar_29_1524,SAR-soap,2021.1.2,60.040468485559394,
43,Trial # 39,Group1-stimuli/group1-block1/real-group1-b1/Group1_IMG_9638.jpg,1,Group1_IMG_9638.jpg,,,,,0.0,38.0,38.0,38.0,,,,,,,,,,,,,,,,,,,,,,,,,,,,,,,,,,,,,670.2540423239698,None,670.2540423239698,None,670.2540423239698,None,5.0,2.1247707330039702,670.2540423239698,None,670.2540423239698,None,4.0,3.746549916977529,671.921866677003,None,670.2540423239698,None,5.0,5.48726612603059,673.5563831779873,None,670.2540423239698,None,space,0.4745620799949392,5.506398243713193,None,670.2540423239698,None,670.2540423239698,None,,,,,,,,,1,2022_Mar_29_1524,SAR-soap,2021.1.2,60.040468485559394,
44,Trial # 40,Group1-stimuli/group1-block1/real-group1-b1/Group1_IMG_0148.jpg,1,Group1_IMG_0148.jpg,,,,,0.0,39.0,39.0,39.0,,,,,,,,,,,,,,,,,,,,,,,,,,,,,,,,,,,,,676.2718167589628,None,676.2718167589628,None,676.2718167589628,None,6.0,1.9959471349720843,676.2718167589628,None,676.2718167589628,None,6.0,3.652679053018801,677.8244735850021,None,676.2718167589628,None,6.0,4.358389843953773,679.4905911599635,None,676.2718167589628,None,space,1.1575311580090784,4.383519909635652,None,676.2718167589628,None,676.2718167589628,None,,,,,,,,,1,2022_Mar_29_1524,SAR-soap,2021.1.2,60.040468485559394,
45,Trial # 41,Group1-stimuli/group1-block1/real-group1-b1/Group1_IMG_2891.jpg,1,Group1_IMG_2891.jpg,,,,,0.0,40.0,40.0,40.0,,,,,,,,,,,,,,,,,,,,,,,,,,,,,,,,,,,,,681.8421304899966,None,681.8421304899966,None,681.8421304899966,None,3.0,3.813732917013113,681.8421304899966,None,681.8421304899966,None,1.0,6.436933638993651,685.2097428249544,None,681.8421304899966,None,2.0,9.343021626002155,687.8438699329854,None,681.8421304899966,None,space,0.2676649870118126,9.368925178656356,None,681.8421304899966,None,681.8421304899966,None,,,,,,,,,1,2022_Mar_29_1524,SAR-soap,2021.1.2,60.040468485559394,
46,Trial # 42,Group1-stimuli/group1-block1/real-group1-b1/Group1_IMG_0157.jpg,1,Group1_IMG_0157.jpg,,,,,0.0,41.0,41.0,41.0,,,,,,,,,,,,,,,,,,,,,,,,,,,,,,,,,,,,,691.5436325639603,None,691.5436325639603,None,691.5436325639603,None,4.0,2.344630143023096,691.5436325639603,None,691.5436325639603,None,5.0,6.602025368018076,693.4287399179884,None,691.5436325639603,None,4.0,9.006085509026889,696.5619761410053,None,691.5436325639603,None,space,0.2268480749917216,9.03087383665843,None,691.5436325639603,None,691.5436325639603,None,,,,,,,,,1,2022_Mar_29_1524,SAR-soap,2021.1.2,60.040468485559394,
47,Trial # 43,Group1-stimuli/group1-block1/real-group1-b1/Group1_IMG_9833.jpg,1,Group1_IMG_9833.jpg,,,,,0.0,42.0,42.0,42.0,,,,,,,,,,,,,,,,,,,,,,,,,,,,,,,,,,,,,700.830073147954,None,700.830073147954,None,700.830073147954,None,1.0,2.359871877997648,700.830073147954,None,700.830073147954,None,1.0,3.2822990500135347,702.7322158149909,None,700.830073147954,None,1.0,3.688535075983964,703.664565426996,None,700.830073147954,None,space,0.2348759520100429,3.710907845583279,None,700.830073147954,None,700.830073147954,None,,,,,,,,,1,2022_Mar_29_1524,SAR-soap,2021.1.2,60.040468485559394,
48,Trial # 44,Group1-stimuli/group1-block1/fake-group2-b1/encoded_Group2_IMG_2230.jpg,0,encoded_Group2_IMG_2230.jpg,,,,,0.0,43.0,43.0,43.0,,,,,,,,,,,,,,,,,,,,,,,,,,,,,,,,,,,,,704.8150257779635,None,704.8150257779635,None,704.8150257779635,None,3.0,3.831590517016594,704.8150257779635,None,704.8150257779635,None,2.0,6.735988719039597,707.0829173050006,None,704.8150257779635,None,3.0,7.40827261301456,711.1162302279845,None,704.8150257779635,None,space,0.3958481999579817,7.437001340673305,None,704.8150257779635,None,704.8150257779635,None,,,,,,,,,1,2022_Mar_29_1524,SAR-soap,2021.1.2,60.040468485559394,
49,Trial # 45,Group1-stimuli/group1-block1/real-group1-b1/Group1_IMG_9966.jpg,1,Group1_IMG_9966.jpg,,,,,0.0,44.0,44.0,44.0,,,,,,,,,,,,,,,,,,,,,,,,,,,,,,,,,,,,,712.6841047760099,None,712.6841047760099,None,712.6841047760099,None,5.0,2.6214209030149505,712.6841047760099,None,712.6841047760099,None,3.0,11.213552378991151,714.851671693963,None,712.6841047760099,None,7.0,8.750967179017607,715.8181399749592,None,712.6841047760099,None,space,4.688916546991095,8.771460603631567,None,712.6841047760099,None,712.6841047760099,None,,,,,,,,,1,2022_Mar_29_1524,SAR-soap,2021.1.2,60.040468485559394,
50,Trial # 46,Group1-stimuli/group1-block1/real-group1-b1/Group1_IMG_0239.jpg,1,Group1_IMG_0239.jpg,,,,,0.0,45.0,45.0,45.0,,,,,,,,,,,,,,,,,,,,,,,,,,,,,,,,,,,,,726.1872964350041,None,726.1872964350041,None,726.1872964350041,None,2.0,4.196188707021065,726.1872964350041,None,726.1872964350041,None,1.0,5.617366973019671,729.9228348839679,None,726.1872964350041,None,2.0,6.858450858970173,731.3561546639539,None,726.1872964350041,None,space,0.2050613320316188,6.88343045063084,None,726.1872964350041,None,726.1872964350041,None,,,,,,,,,1,2022_Mar_29_1524,SAR-soap,2021.1.2,60.040468485559394,
51,Trial # 47,Group1-stimuli/group1-block1/fake-group2-b1/encoded_Group2_IMG_0536.jpg,0,encoded_Group2_IMG_0536.jpg,,,,,0.0,46.0,46.0,46.0,,,,,,,,,,,,,,,,,,,,,,,,,,,,,,,,,,,,,733.3071213680087,None,733.3071213680087,None,733.3071213680087,None,1.0,4.349815532041248,733.3071213680087,None,733.3071213680087,None,1.0,4.771715248003602,737.2094878779608,None,733.3071213680087,None,1.0,5.209460337006021,737.6420710129896,None,733.3071213680087,None,space,0.1755696699838154,5.237730263615958,None,733.3071213680087,None,733.3071213680087,None,,,,,,,,,1,2022_Mar_29_1524,SAR-soap,2021.1.2,60.040468485559394,
52,Trial # 48,Group1-stimuli/group1-block1/fake-group2-b1/encoded_Group2_IMG_0521.jpg,0,encoded_Group2_IMG_0521.jpg,,,,,0.0,47.0,47.0,47.0,,,,,,,,,,,,,,,,,,,,,,,,,,,,,,,,,,,,,738.7592810179922,None,738.7592810179922,None,738.7592810179922,None,3.0,2.297048843000084,738.7592810179922,None,738.7592810179922,None,2.0,4.619857793033589,740.6092040119693,None,738.7592810179922,None,3.0,7.092393804981839,742.9440035090083,None,738.7592810179922,None,space,1.216754068969749,7.120826177590061,None,738.7592810179922,None,738.7592810179922,None,,,,,,,,,1,2022_Mar_29_1524,SAR-soap,2021.1.2,60.040468485559394,
53,Trial # 49,Group1-stimuli/group1-block1/fake-group2-b1/encoded_Group2_IMG_9924.jpg,0,encoded_Group2_IMG_9924.jpg,,,,,0.0,48.0,48.0,48.0,,,,,,,,,,,,,,,,,,,,,,,,,,,,,,,,,,,,,747.1287468840019,None,747.1287468840019,None,747.1287468840019,None,1.0,2.2480665399925783,747.1287468840019,None,747.1287468840019,None,1.0,2.603699751023669,748.9294989309856,None,747.1287468840019,None,1.0,3.3106539620202966,749.2948903900106,None,747.1287468840019,None,space,0.1514778679702431,3.338602901669219,None,747.1287468840019,None,747.1287468840019,None,,,,,,,,,1,2022_Mar_29_1524,SAR-soap,2021.1.2,60.040468485559394,
54,Trial # 50,Group1-stimuli/group1-block1/real-group1-b1/Group1_IMG_9730.jpg,1,Group1_IMG_9730.jpg,,,,,0.0,49.0,49.0,49.0,,,,,,,,,,,,,,,,,,,,,,,,,,,,,,,,,,,,,750.6620798920048,None,750.6620798920048,None,750.6620798920048,None,5.0,2.31088418897707,750.6620798920048,None,750.6620798920048,None,5.0,7.269665872969199,752.5139070829609,None,750.6620798920048,None,4.0,8.008633595018182,757.4816919489531,None,750.6620798920048,None,space,0.1721632619737647,8.031872074643616,None,750.6620798920048,None,750.6620798920048,None,,,,,,,,,1,2022_Mar_29_1524,SAR-soap,2021.1.2,60.040468485559394,
55,Trial # 51,Group1-stimuli/group1-block1/real-group1-b1/Group1_IMG_0053.jpg,1,Group1_IMG_0053.jpg,,,,,0.0,50.0,50.0,50.0,,,,,,,,,,,,,,,,,,,,,,,,,,,,,,,,,,,,,758.915849567973,None,758.915849567973,None,758.915849567973,None,1.0,2.8607464419910684,758.915849567973,None,758.915849567973,None,1.0,3.417765531979967,761.3159347539768,None,758.915849567973,None,1.0,4.321486419998109,761.8827991739963,None,758.915849567973,None,space,0.1636781339766457,4.348310800560284,None,758.915849567973,None,758.915849567973,None,,,,,,,,,1,2022_Mar_29_1524,SAR-soap,2021.1.2,60.040468485559394,
56,Trial # 52,Group1-stimuli/group1-block1/real-group1-b1/Group1_IMG_9698.jpg,1,Group1_IMG_9698.jpg,,,,,0.0,51.0,51.0,51.0,,,,,,,,,,,,,,,,,,,,,,,,,,,,,,,,,,,,,763.4499603249715,None,763.4499603249715,None,763.4499603249715,None,1.0,2.3110469930106774,763.4499603249715,None,763.4499603249715,None,1.0,2.8006798260030337,765.3003329379717,None,763.4499603249715,None,1.0,3.205995928961784,765.8003532550065,None,763.4499603249715,None,space,0.1955150349531322,3.2305663856095634,None,763.4499603249715,None,763.4499603249715,None,,,,,,,,,1,2022_Mar_29_1524,SAR-soap,2021.1.2,60.040468485559394,
57,Trial # 53,Group1-stimuli/group1-block1/fake-group2-b1/encoded_Group2_IMG_0553.jpg,0,encoded_Group2_IMG_0553.jpg,,,,,0.0,52.0,52.0,52.0,,,,,,,,,,,,,,,,,,,,,,,,,,,,,,,,,,,,,766.8850307269604,None,766.8850307269604,None,766.8850307269604,None,1.0,1.9644260659697463,766.8850307269604,None,766.8850307269604,None,1.0,2.9217978609958664,768.4024135099608,None,766.8850307269604,None,1.0,3.759813517972361,769.3687478379579,None,766.8850307269604,None,space,0.1450878850300796,3.788927065616008,None,766.8850307269604,None,766.8850307269604,None,,,,,,,,,1,2022_Mar_29_1524,SAR-soap,2021.1.2,60.040468485559394,
58,Trial # 54,Group1-stimuli/group1-block1/fake-group2-b1/encoded_Group2_IMG_9758.jpg,0,encoded_Group2_IMG_9758.jpg,,,,,0.0,53.0,53.0,53.0,,,,,,,,,,,,,,,,,,,,,,,,,,,,,,,,,,,,,770.8511574779986,None,770.8511574779986,None,770.8511574779986,None,4.0,2.197218633955345,770.8511574779986,None,770.8511574779986,None,3.0,2.8864966619876213,772.6039951929706,None,770.8511574779986,None,3.0,7.326467723993119,773.3037391859689,None,770.8511574779986,None,space,0.1854261829867027,7.354519048589282,None,770.8511574779986,None,770.8511574779986,None,,,,,,,,,1,2022_Mar_29_1524,SAR-soap,2021.1.2,60.040468485559394,
59,Trial # 55,Group1-stimuli/group1-block1/fake-group2-b1/encoded_Group2_IMG_0339.jpg,0,encoded_Group2_IMG_0339.jpg,,,,,0.0,54.0,54.0,54.0,,,,,,,,,,,,,,,,,,,,,,,,,,,,,,,,,,,,,778.4207088599796,None,778.4207088599796,None,778.4207088599796,None,2.0,3.6307274629944,778.4207088599796,None,778.4207088599796,None,1.0,2.603174114017748,779.8222644839552,None,778.4207088599796,None,2.0,6.175873473985121,780.5879409599584,None,778.4207088599796,None,space,0.191168726014439,6.204652084619738,None,778.4207088599796,None,778.4207088599796,None,,,,,,,,,1,2022_Mar_29_1524,SAR-soap,2021.1.2,60.040468485559394,
60,Trial # 56,Group1-stimuli/group1-block1/real-group1-b1/Group1_IMG_0314.jpg,1,Group1_IMG_0314.jpg,,,,,0.0,55.0,55.0,55.0,,,,,,,,,,,,,,,,,,,,,,,,,,,,,,,,,,,,,784.8557561030029,None,784.8557561030029,None,784.8557561030029,None,2.0,2.879248709999956,784.8557561030029,None,784.8557561030029,None,1.0,4.667208414000925,787.2743081019726,None,784.8557561030029,None,2.0,3.874729138042312,787.6741392689873,None,784.8557561030029,None,space,1.6731552329729311,3.899545391614083,None,784.8557561030029,None,784.8557561030029,None,,,,,,,,,1,2022_Mar_29_1524,SAR-soap,2021.1.2,60.040468485559394,
61,Trial # 57,Group1-stimuli/group1-block1/fake-group2-b1/encoded_Group2_IMG_0532.jpg,0,encoded_Group2_IMG_0532.jpg,,,,,0.0,56.0,56.0,56.0,,,,,,,,,,,,,,,,,,,,,,,,,,,,,,,,,,,,,790.4583841109998,None,790.4583841109998,None,790.4583841109998,None,3.0,3.983597906015348,790.4583841109998,None,790.4583841109998,None,1.0,7.4913446349673904,793.0096088569844,None,790.4583841109998,None,3.0,9.395546404004564,797.5104959440068,None,790.4583841109998,None,space,1.975566943990998,9.426463072595652,None,790.4583841109998,None,790.4583841109998,None,,,,,,,,,1,2022_Mar_29_1524,SAR-soap,2021.1.2,60.040468485559394,
62,Trial # 58,Group1-stimuli/group1-block1/fake-group2-b1/encoded_Group2_IMG_0462.jpg,0,encoded_Group2_IMG_0462.jpg,,,,,0.0,57.0,57.0,57.0,,,,,,,,,,,,,,,,,,,,,,,,,,,,,,,,,,,,,801.8951384949614,None,801.8951384949614,None,801.8951384949614,None,5.0,2.0149342040531337,801.8951384949614,None,801.8951384949614,None,4.0,4.871894694981165,803.4622455569915,None,801.8951384949614,None,5.0,7.112530866987072,806.329791488999,None,801.8951384949614,None,space,0.1753347489866428,7.14091309759533,None,801.8951384949614,None,801.8951384949614,None,,,,,,,,,1,2022_Mar_29_1524,SAR-soap,2021.1.2,60.040468485559394,
63,Trial # 59,Group1-stimuli/group1-block1/real-group1-b1/Group1_IMG_0172.jpg,1,Group1_IMG_0172.jpg,,,,,0.0,58.0,58.0,58.0,,,,,,,,,,,,,,,,,,,,,,,,,,,,,,,,,,,,,809.2642937849741,None,809.2642937849741,None,809.2642937849741,None,1.0,2.876687656971626,809.2642937849741,None,809.2642937849741,None,1.0,3.3002428829786368,811.6815530330059,None,809.2642937849741,None,1.0,4.239786778984126,812.1160749879782,None,809.2642937849741,None,space,0.24243139103055,4.264402528700884,None,809.2642937849741,None,809.2642937849741,None,,,,,,,,,1,2022_Mar_29_1524,SAR-soap,2021.1.2,60.040468485559394,
64,Trial # 60,Group1-stimuli/group1-block1/real-group1-b1/Group1_IMG_4841.jpg,1,Group1_IMG_4841.jpg,,,,,0.0,59.0,59.0,59.0,,,,,,,,,,,,,,,,,,,,,,,,,,,,,,,,,,,,,813.8160110609606,None,813.8160110609606,None,813.8160110609606,None,5.0,2.6112095049466006,813.8160110609606,None,813.8160110609606,None,4.0,4.835763298033271,815.9663215249893,None,813.8160110609606,None,6.0,6.539769623952452,818.2010634749895,None,813.8160110609606,None,space,0.2151227589929476,6.565763117629103,None,813.8160110609606,None,813.8160110609606,None,,,,,,,,,1,2022_Mar_29_1524,SAR-soap,2021.1.2,60.040468485559394,
65,Trial # 61,Group1-stimuli/group1-block1/fake-group2-b1/encoded_Group2_IMG_0352.jpg,0,encoded_Group2_IMG_0352.jpg,,,,,0.0,60.0,60.0,60.0,,,,,,,,,,,,,,,,,,,,,,,,,,,,,,,,,,,,,820.6169840079965,None,820.6169840079965,None,820.6169840079965,None,1.0,2.798625527997501,820.6169840079965,None,820.6169840079965,None,1.0,3.2534327799803577,822.9684319529915,None,820.6169840079965,None,1.0,4.258247293008026,823.4346952789929,None,820.6169840079965,None,space,0.2244550570030696,4.287017904629465,None,820.6169840079965,None,820.6169840079965,None,,,,,,,,,1,2022_Mar_29_1524,SAR-soap,2021.1.2,60.040468485559394,
66,Trial # 62,Group1-stimuli/group1-block1/fake-group2-b1/encoded_Group2_IMG_9726.jpg,0,encoded_Group2_IMG_9726.jpg,,,,,0.0,61.0,61.0,61.0,,,,,,,,,,,,,,,,,,,,,,,,,,,,,,,,,,,,,825.1514986159746,None,825.1514986159746,None,825.1514986159746,None,4.0,2.5303612829884514,825.1514986159746,None,825.1514986159746,None,4.0,7.88871242600726,827.2365155440057,None,825.1514986159746,None,3.0,10.759246383968277,832.6043923579855,None,825.1514986159746,None,space,0.1878725240239873,10.78714169759769,None,825.1514986159746,None,825.1514986159746,None,,,,,,,,,1,2022_Mar_29_1524,SAR-soap,2021.1.2,60.040468485559394,
67,Trial # 63,Group1-stimuli/group1-block1/fake-group2-b1/encoded_Group2_IMG_9785.jpg,0,encoded_Group2_IMG_9785.jpg,,,,,0.0,62.0,62.0,62.0,,,,,,,,,,,,,,,,,,,,,,,,,,,,,,,,,,,,,836.1560002819751,None,836.1560002819751,None,836.1560002819751,None,4.0,2.7484736960032023,836.1560002819751,None,836.1560002819751,None,3.0,3.670238455000799,838.4569943709648,None,836.1560002819751,None,3.0,5.675310663005803,839.3900655930047,None,836.1560002819751,None,space,2.173313668055925,5.705110297654755,None,836.1560002819751,None,836.1560002819751,None,,,,,,,,,1,2022_Mar_29_1524,SAR-soap,2021.1.2,60.040468485559394,
68,Trial # 64,Group1-stimuli/group1-block1/fake-group2-b1/encoded_Group2_IMG_0440.jpg,0,encoded_Group2_IMG_0440.jpg,,,,,0.0,63.0,63.0,63.0,,,,,,,,,,,,,,,,,,,,,,,,,,,,,,,,,,,,,844.0741438969853,None,844.0741438969853,None,844.0741438969853,None,5.0,3.7647155220038258,844.0741438969853,None,844.0741438969853,None,5.0,6.120301407994703,847.3938074979815,None,844.0741438969853,None,4.0,7.993336099025328,849.7593372259871,None,844.0741438969853,None,space,0.8721102090203203,8.022074603592046,None,844.0741438969853,None,844.0741438969853,None,,,,,,,,,1,2022_Mar_29_1524,SAR-soap,2021.1.2,60.040468485559394,
69,Trial # 65,Group1-stimuli/group1-block1/fake-group2-b1/encoded_Group2_IMG_1695.jpg,0,encoded_Group2_IMG_1695.jpg,,,,,0.0,64.0,64.0,64.0,,,,,,,,,,,,,,,,,,,,,,,,,,,,,,,,,,,,,853.0107006169856,None,853.0107006169856,None,853.0107006169856,None,1.0,2.8134607530082576,853.0107006169856,None,853.0107006169856,None,1.0,3.63597523898352,855.3788929089787,None,853.0107006169856,None,1.0,3.9420427730074152,856.2111620180076,None,853.0107006169856,None,space,0.1963081550202332,3.9677268575760536,None,853.0107006169856,None,853.0107006169856,None,,,,,,,,,1,2022_Mar_29_1524,SAR-soap,2021.1.2,60.040468485559394,
70,Trial # 66,Group1-stimuli/group1-block1/real-group1-b1/Group1_IMG_0552.jpg,1,Group1_IMG_0552.jpg,,,,,0.0,65.0,65.0,65.0,,,,,,,,,,,,,,,,,,,,,,,,,,,,,,,,,,,,,857.2125451629981,None,857.2125451629981,None,857.2125451629981,None,2.0,4.34520923497621,857.2125451629981,None,857.2125451629981,None,1.0,4.817519261036068,860.3802003649762,None,857.2125451629981,None,1.0,5.589525686984416,861.5798424499808,None,857.2125451629981,None,space,1.535905666009057,5.615383211581502,None,857.2125451629981,None,857.2125451629981,None,,,,,,,,,1,2022_Mar_29_1524,SAR-soap,2021.1.2,60.040468485559394,
71,Trial # 67,Group1-stimuli/group1-block1/real-group1-b1/Group1_IMG_1029.jpg,1,Group1_IMG_1029.jpg,,,,,0.0,66.0,66.0,66.0,,,,,,,,,,,,,,,,,,,,,,,,,,,,,,,,,,,,,864.3979174699634,None,864.3979174699634,None,864.3979174699634,None,3.0,3.3454595549847,864.3979174699634,None,864.3979174699634,None,2.0,6.003426499955822,867.2989477989613,None,864.3979174699634,None,2.0,7.474024316004943,868.9664695159881,None,864.3979174699634,None,space,0.8908745629596524,7.50102443160722,None,864.3979174699634,None,864.3979174699634,None,,,,,,,,,1,2022_Mar_29_1524,SAR-soap,2021.1.2,60.040468485559394,
72,Trial # 68,Group1-stimuli/group1-block1/fake-group2-b1/encoded_Group2_IMG_6517.jpg,0,encoded_Group2_IMG_6517.jpg,,,,,0.0,67.0,67.0,67.0,,,,,,,,,,,,,,,,,,,,,,,,,,,,,,,,,,,,,872.8176187689533,None,872.8176187689533,None,872.8176187689533,None,1.0,2.330417530029081,872.8176187689533,None,872.8176187689533,None,1.0,2.9863088009878997,874.7007606999832,None,872.8176187689533,None,1.0,3.359510412963573,875.3676602139603,None,872.8176187689533,None,space,0.197402679012157,3.386388452607207,None,872.8176187689533,None,872.8176187689533,None,,,,,,,,,1,2022_Mar_29_1524,SAR-soap,2021.1.2,60.040468485559394,
73,Trial # 69,Group1-stimuli/group1-block1/fake-group2-b1/encoded_Group2_IMG_0002.jpg,0,encoded_Group2_IMG_0002.jpg,,,,,0.0,68.0,68.0,68.0,,,,,,,,,,,,,,,,,,,,,,,,,,,,,,,,,,,,,876.4175019880058,None,876.4175019880058,None,876.4175019880058,None,2.0,3.1808168049901724,876.4175019880058,None,876.4175019880058,None,2.0,4.836866383033339,879.1524304819759,None,876.4175019880058,None,2.0,5.609559595002793,880.8193656039657,None,876.4175019880058,None,space,0.113683282979764,5.636200389591977,None,876.4175019880058,None,876.4175019880058,None,,,,,,,,,1,2022_Mar_29_1524,SAR-soap,2021.1.2,60.040468485559394,
74,Trial # 70,Group1-stimuli/group1-block1/real-group1-b1/Group1_IMG_0495.jpg,1,Group1_IMG_0495.jpg,,,,,0.0,69.0,69.0,69.0,,,,,,,,,,,,,,,,,,,,,,,,,,,,,,,,,,,,,882.2036803989904,None,882.2036803989904,None,882.2036803989904,None,1.0,2.464168490027077,882.2036803989904,None,882.2036803989904,None,1.0,2.850731077021919,884.2205046569579,None,882.2036803989904,None,1.0,3.222936252015643,884.6203020070097,None,882.2036803989904,None,space,0.1362411009613424,3.2492375265574083,None,882.2036803989904,None,882.2036803989904,None,,,,,,,,,1,2022_Mar_29_1524,SAR-soap,2021.1.2,60.040468485559394,
75,Trial # 71,Group1-stimuli/group1-block1/real-group1-b1/Group1_IMG_1391.jpg,1,Group1_IMG_1391.jpg,,,,,0.0,70.0,70.0,70.0,,,,,,,,,,,,,,,,,,,,,,,,,,,,,,,,,,,,,885.6541660089861,None,885.6541660089861,None,885.6541660089861,None,4.0,2.879115007992368,885.6541660089861,None,885.6541660089861,None,3.0,5.2853733630036,888.0721530019655,None,885.6541660089861,None,4.0,7.225252816046122,890.4883872309583,None,885.6541660089861,None,space,0.1398301619919948,7.251774523581844,None,885.6541660089861,None,885.6541660089861,None,,,,,,,,,1,2022_Mar_29_1524,SAR-soap,2021.1.2,60.040468485559394,
76,Trial # 72,Group1-stimuli/group1-block1/real-group1-b1/Group1_IMG_0343.jpg,1,Group1_IMG_0343.jpg,,,,,0.0,71.0,71.0,71.0,,,,,,,,,,,,,,,,,,,,,,,,,,,,,,,,,,,,,893.0729772649938,None,893.0729772649938,None,893.0729772649938,None,2.0,4.612206066027284,893.0729772649938,None,893.0729772649938,None,1.0,5.70288726198487,897.2411865469767,None,893.0729772649938,None,2.0,7.539843399019446,898.3412734589656,None,893.0729772649938,None,space,0.1155282249674201,7.567386743670795,None,893.0729772649938,None,893.0729772649938,None,,,,,,,,,1,2022_Mar_29_1524,SAR-soap,2021.1.2,60.040468485559394,
77,Trial # 73,Group1-stimuli/group1-block1/fake-group2-b1/encoded_Group2_IMG_9810.jpg,0,encoded_Group2_IMG_9810.jpg,,,,,0.0,72.0,72.0,72.0,,,,,,,,,,,,,,,,,,,,,,,,,,,,,,,,,,,,,900.7917492970008,None,900.7917492970008,None,900.7917492970008,None,1.0,2.413811366946902,900.7917492970008,None,900.7917492970008,None,1.0,2.770036011992488,902.7605787859648,None,900.7917492970008,None,1.0,3.1425257099908777,903.126292372006,None,900.7917492970008,None,space,0.3180779819958843,3.1690230106469244,None,900.7917492970008,None,900.7917492970008,None,,,,,,,,,1,2022_Mar_29_1524,SAR-soap,2021.1.2,60.040468485559394,
78,Trial # 74,Group1-stimuli/group1-block1/fake-group2-b1/encoded_Group2_IMG_5900.jpg,0,encoded_Group2_IMG_5900.jpg,,,,,0.0,73.0,73.0,73.0,,,,,,,,,,,,,,,,,,,,,,,,,,,,,,,,,,,,,904.3275595349842,None,904.3275595349842,None,904.3275595349842,None,2.0,10.644151568005327,904.3275595349842,None,904.3275595349842,None,1.0,13.31822216400178,913.263610109978,None,904.3275595349842,None,2.0,11.855217984004412,913.729604705004,None,904.3275595349842,None,space,2.1937551419832744,11.87920708762249,None,904.3275595349842,None,904.3275595349842,None,,,,,,,,,1,2022_Mar_29_1524,SAR-soap,2021.1.2,60.040468485559394,
79,Trial # 75,Group1-stimuli/group1-block1/real-group1-b1/Group1_IMG_9679.jpg,1,Group1_IMG_9679.jpg,,,,,0.0,74.0,74.0,74.0,,,,,,,,,,,,,,,,,,,,,,,,,,,,,,,,,,,,,918.4152098110062,None,918.4152098110062,None,918.4152098110062,None,1.0,6.197153649001848,918.4152098110062,None,918.4152098110062,None,1.0,6.5865653079818,924.1662816139868,None,918.4152098110062,None,1.0,6.925611459999345,924.5661700139754,None,918.4152098110062,None,space,0.1838601239724084,6.950894753623288,None,918.4152098110062,None,918.4152098110062,None,,,,,,,,,1,2022_Mar_29_1524,SAR-soap,2021.1.2,60.040468485559394,
80,Trial # 76,Group1-stimuli/group1-block1/fake-group2-b1/encoded_Group2_IMG_4249.jpg,0,encoded_Group2_IMG_4249.jpg,,,,,0.0,75.0,75.0,75.0,,,,,,,,,,,,,,,,,,,,,,,,,,,,,,,,,,,,,925.5832530629704,None,925.5832530629704,None,925.5832530629704,None,5.0,2.6649976629996672,925.5832530629704,None,925.5832530629704,None,5.0,3.98738589102868,927.8016505059786,None,925.5832530629704,None,6.0,5.059761985030491,929.1341040389962,None,925.5832530629704,None,space,0.2022635369794443,5.088076952612028,None,925.5832530629704,None,925.5832530629704,None,,,,,,,,,1,2022_Mar_29_1524,SAR-soap,2021.1.2,60.040468485559394,
81,Trial # 77,Group1-stimuli/group1-block1/fake-group2-b1/encoded_Group2_IMG_0174.jpg,0,encoded_Group2_IMG_0174.jpg,,,,,0.0,76.0,76.0,76.0,,,,,,,,,,,,,,,,,,,,,,,,,,,,,,,,,,,,,930.9181916459928,None,930.9181916459928,None,930.9181916459928,None,3.0,4.865082172967959,930.9181916459928,None,930.9181916459928,None,2.0,5.753907895006705,935.3364838999696,None,930.9181916459928,None,1.0,8.66167821601266,936.2366277200052,None,930.9181916459928,None,space,1.513589164998848,8.688846563571133,None,930.9181916459928,None,930.9181916459928,None,,,,,,,,,1,2022_Mar_29_1524,SAR-soap,2021.1.2,60.040468485559394,
82,Trial # 78,Group1-stimuli/group1-block1/fake-group2-b1/encoded_Group2_IMG_0475.jpg,0,encoded_Group2_IMG_0475.jpg,,,,,0.0,77.0,77.0,77.0,,,,,,,,,,,,,,,,,,,,,,,,,,,,,,,,,,,,,941.1539682889706,None,941.1539682889706,None,941.1539682889706,None,1.0,2.4003927699523047,941.1539682889706,None,941.1539682889706,None,1.0,2.8058287200401537,943.122991028009,None,941.1539682889706,None,1.0,3.1778325450140983,943.5230949189864,None,941.1539682889706,None,space,0.1855981079861521,3.207177741569467,None,941.1539682889706,None,941.1539682889706,None,,,,,,,,,1,2022_Mar_29_1524,SAR-soap,2021.1.2,60.040468485559394,
83,Trial # 79,Group1-stimuli/group1-block1/fake-group2-b1/encoded_Group2_IMG_9751.jpg,0,encoded_Group2_IMG_9751.jpg,,,,,0.0,78.0,78.0,78.0,,,,,,,,,,,,,,,,,,,,,,,,,,,,,,,,,,,,,944.5726832569926,None,944.5726832569926,None,944.5726832569926,None,4.0,2.461302882991731,944.5726832569926,None,944.5726832569926,None,3.0,6.120036331994925,946.5896617670078,None,944.5726832569926,None,3.0,7.526408382982481,950.2572469459848,None,944.5726832569926,None,space,0.1693547980394214,7.551992767606862,None,944.5726832569926,None,944.5726832569926,None,,,,,,,,,1,2022_Mar_29_1524,SAR-soap,2021.1.2,60.040468485559394,
84,Trial # 80,Group1-stimuli/group1-block1/fake-group2-b1/encoded_Group2_IMG_0492.jpg,0,encoded_Group2_IMG_0492.jpg,,,,,0.0,79.0,79.0,79.0,,,,,,,,,,,,,,,,,,,,,,,,,,,,,,,,,,,,,952.3424291349947,None,952.3424291349947,None,952.3424291349947,None,1.0,1.947829127020668,952.3424291349947,None,952.3424291349947,None,1.0,2.4033254489768296,953.8425496799756,None,952.3424291349947,None,1.0,3.5072813319857232,954.3086134779732,None,952.3424291349947,None,space,1.570528302981984,3.534862504573539,None,952.3424291349947,None,952.3424291349947,None,,,,,,,,,1,2022_Mar_29_1524,SAR-soap,2021.1.2,60.040468485559394,
85,Trial # 81,Group1-stimuli/group1-block1/real-group1-b1/Group1_IMG_0535.jpg,1,Group1_IMG_0535.jpg,,,,,0.0,80.0,80.0,80.0,,,,,,,,,,,,,,,,,,,,,,,,,,,,,,,,,,,,,957.4927601909732,None,957.4927601909732,None,957.4927601909732,None,2.0,2.378392881015316,957.4927601909732,None,957.4927601909732,None,1.0,3.4682599760126323,959.4268037329894,None,957.4927601909732,None,1.0,4.573011157044675,960.5273598249768,None,957.4927601909732,None,space,0.7519308249466121,4.601163410639856,None,957.4927601909732,None,957.4927601909732,None,,,,,,,,,1,2022_Mar_29_1524,SAR-soap,2021.1.2,60.040468485559394,
86,Trial # 82,Group1-stimuli/group1-block1/real-group1-b1/Group1_IMG_0077.jpg,1,Group1_IMG_0077.jpg,,,,,0.0,81.0,81.0,81.0,,,,,,,,,,,,,,,,,,,,,,,,,,,,,,,,,,,,,962.895338731003,None,962.895338731003,None,962.895338731003,None,6.0,2.745203064987436,962.895338731003,None,962.895338731003,None,5.0,5.568531982018612,965.1799655180076,None,962.895338731003,None,6.0,9.074872943980154,968.0128167209914,None,962.895338731003,None,space,0.161448600993026,9.100463172595482,None,962.895338731003,None,962.895338731003,None,,,,,,,,,1,2022_Mar_29_1524,SAR-soap,2021.1.2,60.040468485559394,
87,Trial # 83,Group1-stimuli/group1-block1/fake-group2-b1/encoded_Group2_IMG_9702.jpg,0,encoded_Group2_IMG_9702.jpg,,,,,0.0,82.0,82.0,82.0,,,,,,,,,,,,,,,,,,,,,,,,,,,,,,,,,,,,,972.1643826509826,None,972.1643826509826,None,972.1643826509826,None,1.0,2.39739738102071,972.1643826509826,None,972.1643826509826,None,1.0,3.119703106000088,974.1158763719724,None,972.1643826509826,None,1.0,3.457481151970569,974.8484657399822,None,972.1643826509826,None,space,0.1335205800132826,3.485808103636373,None,972.1643826509826,None,972.1643826509826,None,,,,,,,,,1,2022_Mar_29_1524,SAR-soap,2021.1.2,60.040468485559394,
88,Trial # 84,Group1-stimuli/group1-block1/real-group1-b1/Group1_IMG_0357.jpg,1,Group1_IMG_0357.jpg,,,,,0.0,83.0,83.0,83.0,,,,,,,,,,,,,,,,,,,,,,,,,,,,,,,,,,,,,975.8149242139772,None,975.8149242139772,None,975.8149242139772,None,2.0,2.513043084007222,975.8149242139772,None,975.8149242139772,None,1.0,4.135960461979266,977.867501551984,None,975.8149242139772,None,1.0,4.607849204039667,979.49927204696,None,975.8149242139772,None,space,0.308594266010914,4.632233097625431,None,975.8149242139772,None,975.8149242139772,None,,,,,,,,,1,2022_Mar_29_1524,SAR-soap,2021.1.2,60.040468485559394,
89,Trial # 85,Group1-stimuli/group1-block1/real-group1-b1/Group1_IMG_9772.jpg,1,Group1_IMG_9772.jpg,,,,,0.0,84.0,84.0,84.0,,,,,,,,,,,,,,,,,,,,,,,,,,,,,,,,,,,,,980.799500678957,None,980.799500678957,None,980.799500678957,None,4.0,3.277895277016796,980.799500678957,None,980.799500678957,None,4.0,7.735677467018831,983.6191997060088,None,980.799500678957,None,5.0,8.773469284991734,984.418343051977,None,980.799500678957,None,space,0.1400650970172137,8.799386180646252,None,980.799500678957,None,980.799500678957,None,,,,,,,,,1,2022_Mar_29_1524,SAR-soap,2021.1.2,60.040468485559394,
90,Trial # 86,Group1-stimuli/group1-block1/real-group1-b1/Group1_IMG_0482.jpg,1,Group1_IMG_0482.jpg,,,,,0.0,85.0,85.0,85.0,,,,,,,,,,,,,,,,,,,,,,,,,,,,,,,,,,,,,989.7857516389922,None,989.7857516389922,None,989.7857516389922,None,1.0,1.9118954210425727,989.7857516389922,None,989.7857516389922,None,1.0,2.768321134033613,991.2367296110024,None,989.7857516389922,None,1.0,3.107602424977813,992.104548592004,None,989.7857516389922,None,space,0.2302767079672776,3.131940451683477,None,989.7857516389922,None,989.7857516389922,None,,,,,,,,,1,2022_Mar_29_1524,SAR-soap,2021.1.2,60.040468485559394,
91,Trial # 87,Group1-stimuli/group1-block1/real-group1-b1/Group1_IMG_0299.jpg,1,Group1_IMG_0299.jpg,,,,,0.0,86.0,86.0,86.0,,,,,,,,,,,,,,,,,,,,,,,,,,,,,,,,,,,,,993.1710011049872,None,993.1710011049872,None,993.1710011049872,None,5.0,3.560987662989646,993.1710011049872,None,993.1710011049872,None,5.0,4.451530373014975,996.2714734979672,None,993.1710011049872,None,6.0,5.823502332961652,997.1726624509902,None,993.1710011049872,None,space,0.0716994130052626,5.8485037526115775,None,993.1710011049872,None,993.1710011049872,None,,,,,,,,,1,2022_Mar_29_1524,SAR-soap,2021.1.2,60.040468485559394,
92,Trial # 88,Group1-stimuli/group1-block1/fake-group2-b1/encoded_Group2_IMG_0301.jpg,0,encoded_Group2_IMG_0301.jpg,,,,,0.0,87.0,87.0,87.0,,,,,,,,,,,,,,,,,,,,,,,,,,,,,,,,,,,,,999.1221827819828,None,999.1221827819828,None,999.1221827819828,None,5.0,3.647130388999358,999.1221827819828,None,999.1221827819828,None,5.0,4.404065665032249,1002.3247128530056,None,999.1221827819828,None,5.0,4.909757223969791,1003.0915303549846,None,999.1221827819828,None,space,0.1077792950090952,4.937102991621941,None,999.1221827819828,None,999.1221827819828,None,,,,,,,,,1,2022_Mar_29_1524,SAR-soap,2021.1.2,60.040468485559394,
93,Trial # 89,Group1-stimuli/group1-block1/fake-group2-b1/encoded_Group2_IMG_5136.jpg,0,encoded_Group2_IMG_5136.jpg,,,,,0.0,88.0,88.0,88.0,,,,,,,,,,,,,,,,,,,,,,,,,,,,,,,,,,,,,1004.2072139799712,None,1004.2072139799712,None,1004.2072139799712,None,5.0,2.045365352998488,1004.2072139799712,None,1004.2072139799712,None,4.0,4.620251223037485,1005.8075816310012,None,1004.2072139799712,None,4.0,6.592474397970364,1008.393133295991,None,1004.2072139799712,None,space,0.1801567010115832,6.618951836659107,None,1004.2072139799712,None,1004.2072139799712,None,,,,,,,,,1,2022_Mar_29_1524,SAR-soap,2021.1.2,60.040468485559394,
94,Trial # 90,Group1-stimuli/group1-block1/real-group1-b1/Group1_IMG_0460.jpg,1,Group1_IMG_0460.jpg,,,,,0.0,89.0,89.0,89.0,,,,,,,,,,,,,,,,,,,,,,,,,,,,,,,,,,,,,1011.0586461040076,None,1011.0586461040076,None,1011.0586461040076,None,5.0,2.062305158993695,1011.0586461040076,None,1011.0586461040076,None,5.0,3.5841226570191798,1012.661212381965,None,1011.0586461040076,None,4.0,4.822811056976207,1014.1936470280052,None,1011.0586461040076,None,space,0.1758635030128061,4.848716926644556,None,1011.0586461040076,None,1011.0586461040076,None,,,,,,,,,1,2022_Mar_29_1524,SAR-soap,2021.1.2,60.040468485559394,
95,Trial # 91,Group1-stimuli/group1-block1/fake-group2-b1/encoded_Group2_IMG_0068.jpg,0,encoded_Group2_IMG_0068.jpg,,,,,0.0,90.0,90.0,90.0,,,,,,,,,,,,,,,,,,,,,,,,,,,,,,,,,,,,,1016.1102684349752,None,1016.1102684349752,None,1016.1102684349752,None,4.0,2.263083954981994,1016.1102684349752,None,1016.1102684349752,None,4.0,6.020420192042366,1017.9295421059942,None,1016.1102684349752,None,5.0,6.725213403988164,1021.6965776389698,None,1016.1102684349752,None,space,0.4950109749916009,6.752900647639763,None,1016.1102684349752,None,1016.1102684349752,None,,,,,,,,,1,2022_Mar_29_1524,SAR-soap,2021.1.2,60.040468485559394,
96,Trial # 92,Group1-stimuli/group1-block1/real-group1-b1/Group1_IMG_0337.jpg,1,Group1_IMG_0337.jpg,,,,,0.0,91.0,91.0,91.0,,,,,,,,,,,,,,,,,,,,,,,,,,,,,,,,,,,,,1023.397410303005,None,1023.397410303005,None,1023.397410303005,None,2.0,2.6114438269869424,1023.397410303005,None,1023.397410303005,None,1.0,5.451628367998637,1024.864629830001,None,1023.397410303005,None,1.0,6.85648958600359,1028.3982497410034,None,1023.397410303005,None,space,0.1490435049636289,6.88157781859627,None,1023.397410303005,None,1023.397410303005,None,,,,,,,,,1,2022_Mar_29_1524,SAR-soap,2021.1.2,60.040468485559394,
97,Trial # 93,Group1-stimuli/group1-block1/fake-group2-b1/encoded_Group2_IMG_0346.jpg,0,encoded_Group2_IMG_0346.jpg,,,,,0.0,92.0,92.0,92.0,,,,,,,,,,,,,,,,,,,,,,,,,,,,,,,,,,,,,1030.448961254966,None,1030.448961254966,None,1030.448961254966,None,1.0,2.781370587006677,1030.448961254966,None,1030.448961254966,None,1.0,3.2386973459506407,1032.7834352650098,None,1030.448961254966,None,1.0,4.209944761998486,1033.2506714430056,None,1030.448961254966,None,space,0.1786017149570398,4.238311962631997,None,1030.448961254966,None,1030.448961254966,None,,,,,,,,,1,2022_Mar_29_1524,SAR-soap,2021.1.2,60.040468485559394,
98,Trial # 94,Group1-stimuli/group1-block1/real-group1-b1/Group1_IMG_4253.jpg,1,Group1_IMG_4253.jpg,,,,,0.0,93.0,93.0,93.0,,,,,,,,,,,,,,,,,,,,,,,,,,,,,,,,,,,,,1034.916668780963,None,1034.916668780963,None,1034.916668780963,None,4.0,1.8939766790135764,1034.916668780963,None,1034.916668780963,None,4.0,4.151001654972788,1036.3503213250078,None,1034.916668780963,None,4.0,8.325396161002573,1038.6189421049785,None,1034.916668780963,None,space,0.1368739340105094,8.349396546604112,None,1034.916668780963,None,1034.916668780963,None,,,,,,,,,1,2022_Mar_29_1524,SAR-soap,2021.1.2,60.040468485559394,
99,Trial # 95,Group1-stimuli/group1-block1/fake-group2-b1/encoded_Group2_IMG_9280.jpg,0,encoded_Group2_IMG_9280.jpg,,,,,0.0,94.0,94.0,94.0,,,,,,,,,,,,,,,,,,,,,,,,,,,,,,,,,,,,,1043.4373674429953,None,1043.4373674429953,None,1043.4373674429953,None,5.0,3.263934759015683,1043.4373674429953,None,1043.4373674429953,None,3.0,5.022471247997601,1046.2541683539748,None,1043.4373674429953,None,6.0,6.39416472701123,1048.020951773971,None,1043.4373674429953,None,space,0.1596510419622063,6.421410588664003,None,1043.4373674429953,None,1043.4373674429953,None,,,,,,,,,1,2022_Mar_29_1524,SAR-soap,2021.1.2,60.040468485559394,
100,Trial # 96,Group1-stimuli/group1-block1/real-group1-b1/Group1_IMG_0417.jpg,1,Group1_IMG_0417.jpg,,,,,0.0,95.0,95.0,95.0,,,,,,,,,,,,,,,,,,,,,,,,,,,,,,,,,,,,,1050.0382522209547,None,1050.0382522209547,None,1050.0382522209547,None,3.0,3.41428339103004,1050.0382522209547,None,1050.0382522209547,None,2.0,6.919191634980962,1053.0062265599845,None,1050.0382522209547,None,2.0,9.526754087011795,1056.5235557240085,None,1050.0382522209547,None,space,0.0780106769525446,9.554297922644764,None,1050.0382522209547,None,1050.0382522209547,None,,,,,,,,,1,2022_Mar_29_1524,SAR-soap,2021.1.2,60.040468485559394,
101,Trial # 97,Group1-stimuli/group1-block1/fake-group2-b1/encoded_Group2_IMG_9695.jpg,0,encoded_Group2_IMG_9695.jpg,,,,,0.0,96.0,96.0,96.0,,,,,,,,,,,,,,,,,,,,,,,,,,,,,,,,,,,,,1059.7075732999947,None,1059.7075732999947,None,1059.7075732999947,None,1.0,1.779800741991494,1059.7075732999947,None,1059.7075732999947,None,1.0,2.1354109219973907,1061.041498695966,None,1059.7075732999947,None,1.0,2.9092019890085794,1061.4079044709797,None,1059.7075732999947,None,space,0.1309415189898573,2.936920632608235,None,1059.7075732999947,None,1059.7075732999947,None,,,,,,,,,1,2022_Mar_29_1524,SAR-soap,2021.1.2,60.040468485559394,
102,Trial # 98,Group1-stimuli/group1-block1/real-group1-b1/Group1_IMG_1160.jpg,1,Group1_IMG_1160.jpg,,,,,0.0,97.0,97.0,97.0,,,,,,,,,,,,,,,,,,,,,,,,,,,,,,,,,,,,,1062.8097554289852,None,1062.8097554289852,None,1062.8097554289852,None,3.0,5.144772545027081,1062.8097554289852,None,1062.8097554289852,None,2.0,8.300775184994563,1067.4943642219878,None,1062.8097554289852,None,3.0,9.339717417024076,1070.127403018996,None,1062.8097554289852,None,space,0.1562452849466353,9.365309003624134,None,1062.8097554289852,None,1062.8097554289852,None,,,,,,,,,1,2022_Mar_29_1524,SAR-soap,2021.1.2,60.040468485559394,
103,Trial # 99,Group1-stimuli/group1-block1/real-group1-b1/Group1_IMG_0448.jpg,1,Group1_IMG_0448.jpg,,,,,0.0,98.0,98.0,98.0,,,,,,,,,,,,,,,,,,,,,,,,,,,,,,,,,,,,,1072.3459263949771,None,1072.3459263949771,None,1072.3459263949771,None,4.0,2.013175992993638,1072.3459263949771,None,1072.3459263949771,None,3.0,2.8012470829999074,1073.9139572039712,None,1072.3459263949771,None,3.0,6.175610311038327,1074.7123049859656,None,1072.3459263949771,None,space,0.8232414129888639,5.499951437639538,None,1072.3459263949771,None,1072.3459263949771,None,,,,,,,,,1,2022_Mar_29_1524,SAR-soap,2021.1.2,60.040468485559394,
104,Trial # 100,Group1-stimuli/group1-block1/fake-group2-b1/encoded_Group2_IMG_0393.jpg,0,encoded_Group2_IMG_0393.jpg,,,,,0.0,99.0,99.0,99.0,,,,,,,,,,,,,,,,,,,,,,,,,,,,,,,,,,,,,1078.69780172396,None,1078.69780172396,None,1078.69780172396,None,4.0,2.097111149982084,1078.69780172396,None,1078.69780172396,None,3.0,3.1524266070337035,1080.3486106449857,None,1078.69780172396,None,4.0,4.659144409990404,1081.414169808966,None,1078.69780172396,None,space,0.5776688060141169,4.254064925597049,None,1078.69780172396,None,1078.69780172396,None,,,,,,,,,1,2022_Mar_29_1524,SAR-soap,2021.1.2,60.040468485559394,
105,Trial # 101,Group1-stimuli/group1-block1/real-group1-b1/Group1_IMG_0090.jpg,1,Group1_IMG_0090.jpg,,,,,0.0,100.0,100.0,100.0,,,,,,,,,,,,,,,,,,,,,,,,,,,,,,,,,,,,,1083.5819355829735,None,1083.5819355829735,None,1083.5819355829735,None,1.0,2.3263684019912034,1083.5819355829735,None,1083.5819355829735,None,1.0,2.7481941909645684,1085.4496080479585,None,1083.5819355829735,None,1.0,3.4215639840113,1085.8827415989945,None,1083.5819355829735,None,space,0.2866266660275869,3.444090682605747,None,1083.5819355829735,None,1083.5819355829735,None,,,,,,,,,1,2022_Mar_29_1524,SAR-soap,2021.1.2,60.040468485559394,
106,Trial # 102,Group1-stimuli/group1-block1/real-group1-b1/Group1_IMG_0310.jpg,1,Group1_IMG_0310.jpg,,,,,0.0,101.0,101.0,101.0,,,,,,,,,,,,,,,,,,,,,,,,,,,,,,,,,,,,,1087.349871468963,None,1087.349871468963,None,1087.349871468963,None,2.0,3.562187521951273,1087.349871468963,None,1087.349871468963,None,1.0,4.000627443019766,1089.8682208539683,None,1087.349871468963,None,1.0,4.338139096973464,1090.9004580960027,None,1087.349871468963,None,space,0.2085122899734415,4.364230572595261,None,1087.349871468963,None,1087.349871468963,None,,,,,,,,,1,2022_Mar_29_1524,SAR-soap,2021.1.2,60.040468485559394,
107,Trial # 103,Group1-stimuli/group1-block1/fake-group2-b1/encoded_Group2_IMG_0528.jpg,0,encoded_Group2_IMG_0528.jpg,,,,,0.0,102.0,102.0,102.0,,,,,,,,,,,,,,,,,,,,,,,,,,,,,,,,,,,,,1091.9519050059607,None,1091.9519050059607,None,1091.9519050059607,None,3.0,3.1316537730162963,1091.9519050059607,None,1091.9519050059607,None,2.0,6.821697829000186,1094.635524762969,None,1091.9519050059607,None,3.0,8.026836727978662,1096.1023145630024,None,1091.9519050059607,None,space,0.2506204340024851,8.054047421668656,None,1091.9519050059607,None,1091.9519050059607,None,,,,,,,,,1,2022_Mar_29_1524,SAR-soap,2021.1.2,60.040468485559394,
108,Trial # 104,Group1-stimuli/group1-block1/fake-group2-b1/encoded_Group2_IMG_1975.jpg,0,encoded_Group2_IMG_1975.jpg,,,,,0.0,103.0,103.0,103.0,,,,,,,,,,,,,,,,,,,,,,,,,,,,,,,,,,,,,1100.2867468119948,None,1100.2867468119948,None,1100.2867468119948,None,2.0,2.9478005379787646,1100.2867468119948,None,1100.2867468119948,None,1.0,3.3546825000084937,1102.3061503460049,None,1100.2867468119948,None,1.0,4.092266624036711,1103.2046499580028,None,1100.2867468119948,None,space,0.1441126390127465,4.121207323623821,None,1100.2867468119948,None,1100.2867468119948,None,,,,,,,,,1,2022_Mar_29_1524,SAR-soap,2021.1.2,60.040468485559394,
109,Trial # 105,Group1-stimuli/group1-block1/fake-group2-b1/encoded_Group2_IMG_0052.jpg,0,encoded_Group2_IMG_0052.jpg,,,,,0.0,104.0,104.0,104.0,,,,,,,,,,,,,,,,,,,,,,,,,,,,,,,,,,,,,1104.5883862249902,None,1104.5883862249902,None,1104.5883862249902,None,1.0,2.6460665119811893,1104.5883862249902,None,1104.5883862249902,None,1.0,3.336456829973031,1106.7886630289722,None,1104.5883862249902,None,1.0,3.808741178014316,1107.489604233997,None,1104.5883862249902,None,space,0.2548007689765654,3.835622277634684,None,1104.5883862249902,None,1104.5883862249902,None,,,,,,,,,1,2022_Mar_29_1524,SAR-soap,2021.1.2,60.040468485559394,
110,Trial # 106,Group1-stimuli/group1-block1/fake-group2-b1/encoded_Group2_IMG_0225.jpg,0,encoded_Group2_IMG_0225.jpg,,,,,0.0,105.0,105.0,105.0,,,,,,,,,,,,,,,,,,,,,,,,,,,,,,,,,,,,,1108.7062952249544,None,1108.7062952249544,None,1108.7062952249544,None,3.0,2.4957924330374226,1108.7062952249544,None,1108.7062952249544,None,2.0,3.2513878159807064,1110.7566670369706,None,1108.7062952249544,None,3.0,4.926102699013427,1111.523547047982,None,1108.7062952249544,None,space,0.2112022969522513,4.953988491615746,None,1108.7062952249544,None,1108.7062952249544,None,,,,,,,,,1,2022_Mar_29_1524,SAR-soap,2021.1.2,60.040468485559394,
111,Trial # 107,Group1-stimuli/group1-block1/real-group1-b1/Group1_IMG_2231.jpg,1,Group1_IMG_2231.jpg,,,,,0.0,106.0,106.0,106.0,,,,,,,,,,,,,,,,,,,,,,,,,,,,,,,,,,,,,1113.9244757299894,None,1113.9244757299894,None,1113.9244757299894,None,5.0,3.044642496970482,1113.9244757299894,None,1113.9244757299894,None,3.0,8.002680291014258,1116.5086006579804,None,1113.9244757299894,None,4.0,11.24225623300299,1117.2092974709813,None,1113.9244757299894,None,space,0.2122553460067138,11.267644115665462,None,1113.9244757299894,None,1113.9244757299894,None,,,,,,,,,1,2022_Mar_29_1524,SAR-soap,2021.1.2,60.040468485559394,
112,Trial # 108,Group1-stimuli/group1-block1/real-group1-b1/Group1_IMG_0217.jpg,1,Group1_IMG_0217.jpg,,,,,0.0,107.0,107.0,107.0,,,,,,,,,,,,,,,,,,,,,,,,,,,,,,,,,,,,,1125.4448410729528,None,1125.4448410729528,None,1125.4448410729528,None,4.0,3.5792916949721985,1125.4448410729528,None,1125.4448410729528,None,2.0,7.602285922970623,1128.563820448995,None,1125.4448410729528,None,3.0,11.30870724102715,1130.4301884279705,None,1125.4448410729528,None,space,0.1294523209799081,11.33241507562343,None,1125.4448410729528,None,1125.4448410729528,None,,,,,,,,,1,2022_Mar_29_1524,SAR-soap,2021.1.2,60.040468485559394,
113,Trial # 109,Group1-stimuli/group1-block1/real-group1-b1/Group1_IMG_0264.jpg,1,Group1_IMG_0264.jpg,,,,,0.0,108.0,108.0,108.0,,,,,,,,,,,,,,,,,,,,,,,,,,,,,,,,,,,,,1136.9319227449596,None,1136.9319227449596,None,1136.9319227449596,None,5.0,5.495030533988029,1136.9319227449596,None,1136.9319227449596,None,5.0,6.500726137019228,1139.282464561984,None,1136.9319227449596,None,5.0,10.507194017991424,1142.9846892069909,None,1136.9319227449596,None,space,2.711453415977303,8.032514498685487,None,1136.9319227449596,None,1136.9319227449596,None,,,,,,,,,1,2022_Mar_29_1524,SAR-soap,2021.1.2,60.040468485559394,
114,Trial # 110,Group1-stimuli/group1-block1/fake-group2-b1/encoded_Group2_IMG_0254.jpg,0,encoded_Group2_IMG_0254.jpg,,,,,0.0,109.0,109.0,109.0,,,,,,,,,,,,,,,,,,,,,,,,,,,,,,,,,,,,,1147.7018851370085,None,1147.7018851370085,None,1147.7018851370085,None,1.0,1.780995921988506,1147.7018851370085,None,1147.7018851370085,None,1.0,2.1696890440071,1149.0361927209888,None,1147.7018851370085,None,1.0,2.5415632609510794,1149.4357979259803,None,1147.7018851370085,None,space,0.1932447039871476,2.568800008622929,None,1147.7018851370085,None,1147.7018851370085,None,,,,,,,,,1,2022_Mar_29_1524,SAR-soap,2021.1.2,60.040468485559394,
115,Trial # 111,Group1-stimuli/group1-block1/fake-group2-b1/encoded_Group2_IMG_5433.jpg,0,encoded_Group2_IMG_5433.jpg,,,,,0.0,110.0,110.0,110.0,,,,,,,,,,,,,,,,,,,,,,,,,,,,,,,,,,,,,1150.485985178966,None,1150.485985178966,None,1150.485985178966,None,1.0,1.7638044329942204,1150.485985178966,None,1150.485985178966,None,1.0,2.0875736540183425,1151.8027416659752,None,1150.485985178966,None,1.0,2.426367155974731,1152.1374562879791,None,1150.485985178966,None,space,0.1972935939556919,2.4551128776511177,None,1150.485985178966,None,1150.485985178966,None,,,,,,,,,1,2022_Mar_29_1524,SAR-soap,2021.1.2,60.040468485559394,
116,Trial # 112,Group1-stimuli/group1-block1/real-group1-b1/Group1_IMG_0252.jpg,1,Group1_IMG_0252.jpg,,,,,0.0,111.0,111.0,111.0,,,,,,,,,,,,,,,,,,,,,,,,,,,,,,,,,,,,,1153.153336002957,None,1153.153336002957,None,1153.153336002957,None,2.0,2.212141711032018,1153.153336002957,None,1153.153336002957,None,1.0,2.6346962120151147,1154.9204245849978,None,1153.153336002957,None,1.0,3.274046873964835,1155.3536202109535,None,1153.153336002957,None,space,0.2960552440490573,3.2996457506669685,None,1153.153336002957,None,1153.153336002957,None,,,,,,,,,1,2022_Mar_29_1524,SAR-soap,2021.1.2,60.040468485559394,
117,Trial # 113,Group1-stimuli/group1-block1/real-group1-b1/Group1_IMG_9720.jpg,1,Group1_IMG_9720.jpg,,,,,0.0,112.0,112.0,112.0,,,,,,,,,,,,,,,,,,,,,,,,,,,,,,,,,,,,,1156.788215914974,None,1156.788215914974,None,1156.788215914974,None,5.0,1.7775522680021822,1156.788215914974,None,1156.788215914974,None,6.0,3.817813139990904,1158.1058746899944,None,1156.788215914974,None,6.0,5.257584096048959,1160.155325900996,None,1156.788215914974,None,space,0.1501398169784806,5.281725270615425,None,1156.788215914974,None,1156.788215914974,None,,,,,,,,,1,2022_Mar_29_1524,SAR-soap,2021.1.2,60.040468485559394,
118,Trial # 114,Group1-stimuli/group1-block1/fake-group2-b1/encoded_Group2_IMG_0550.jpg,0,encoded_Group2_IMG_0550.jpg,,,,,0.0,113.0,113.0,113.0,,,,,,,,,,,,,,,,,,,,,,,,,,,,,,,,,,,,,1162.2395760539805,None,1162.2395760539805,None,1162.2395760539805,None,1.0,2.8311943439766765,1162.2395760539805,None,1162.2395760539805,None,1.0,3.187644624034874,1164.6246145959594,None,1162.2395760539805,None,1.0,3.5925460350117646,1164.9901618639706,None,1162.2395760539805,None,space,0.1647174530080519,3.620810332649853,None,1162.2395760539805,None,1162.2395760539805,None,,,,,,,,,1,2022_Mar_29_1524,SAR-soap,2021.1.2,60.040468485559394,
119,Trial # 115,Group1-stimuli/group1-block1/real-group1-b1/Group1_IMG_9915.jpg,1,Group1_IMG_9915.jpg,,,,,0.0,114.0,114.0,114.0,,,,,,,,,,,,,,,,,,,,,,,,,,,,,,,,,,,,,1166.0567668199656,None,1166.0567668199656,None,1166.0567668199656,None,1.0,1.5622227290295996,1166.0567668199656,None,1166.0567668199656,None,1.0,1.8849548219586725,1167.1581203509704,None,1166.0567668199656,None,1.0,2.190300084010232,1167.49209436198,None,1166.0567668199656,None,space,0.1790745109901763,2.2159218746237457,None,1166.0567668199656,None,1166.0567668199656,None,,,,,,,,,1,2022_Mar_29_1524,SAR-soap,2021.1.2,60.040468485559394,
120,Trial # 116,Group1-stimuli/group1-block1/real-group1-b1/Group1_IMG_9850.jpg,1,Group1_IMG_9850.jpg,,,,,0.0,115.0,115.0,115.0,,,,,,,,,,,,,,,,,,,,,,,,,,,,,,,,,,,,,1168.492236730992,None,1168.492236730992,None,1168.492236730992,None,1.0,2.5102815729915164,1168.492236730992,None,1168.492236730992,None,1.0,3.032402995973825,1170.5430464699748,None,1168.492236730992,None,1.0,3.604892816976644,1171.0753882289864,None,1168.492236730992,None,space,0.1133242049836553,3.628531195630785,None,1168.492236730992,None,1168.492236730992,None,,,,,,,,,1,2022_Mar_29_1524,SAR-soap,2021.1.2,60.040468485559394,
121,Trial # 117,Group1-stimuli/group1-block1/real-group1-b1/Group1_IMG_3579.jpg,1,Group1_IMG_3579.jpg,,,,,0.0,116.0,116.0,116.0,,,,,,,,,,,,,,,,,,,,,,,,,,,,,,,,,,,,,1172.2764001869946,None,1172.2764001869946,None,1172.2764001869946,None,4.0,3.0461158299585804,1172.2764001869946,None,1172.2764001869946,None,3.0,5.336278280999977,1174.860016916995,None,1172.2764001869946,None,4.0,7.009124025993515,1177.1618800109718,None,1172.2764001869946,None,space,0.1993379489867948,7.033556604699697,None,1172.2764001869946,None,1172.2764001869946,None,,,,,,,,,1,2022_Mar_29_1524,SAR-soap,2021.1.2,60.040468485559394,
122,Trial # 118,Group1-stimuli/group1-block1/fake-group2-b1/encoded_Group2_IMG_0377.jpg,0,encoded_Group2_IMG_0377.jpg,,,,,0.0,117.0,117.0,117.0,,,,,,,,,,,,,,,,,,,,,,,,,,,,,,,,,,,,,1179.511761467962,None,1179.511761467962,None,1179.511761467962,None,1.0,2.2799873909680173,1179.511761467962,None,1179.511761467962,None,1.0,2.6703025269671343,1181.3450661230015,None,1179.511761467962,None,1.0,3.4429927839664742,1181.7457949349773,None,1179.511761467962,None,space,0.090697979030665,3.470942395622842,None,1179.511761467962,None,1179.511761467962,None,,,,,,,,,1,2022_Mar_29_1524,SAR-soap,2021.1.2,60.040468485559394,
123,Trial # 119,Group1-stimuli/group1-block1/real-group1-b1/Group1_IMG_0469.jpg,1,Group1_IMG_0469.jpg,,,,,0.0,118.0,118.0,118.0,,,,,,,,,,,,,,,,,,,,,,,,,,,,,,,,,,,,,1183.1128350750078,None,1183.1128350750078,None,1183.1128350750078,None,1.0,1.8108913459582252,1183.1128350750078,None,1183.1128350750078,None,1.0,2.6346209129551426,1184.463460244995,None,1183.1128350750078,None,1.0,3.0069395870086737,1185.2963507329696,None,1183.1128350750078,None,space,0.155712132982444,3.03167297859909,None,1183.1128350750078,None,1183.1128350750078,None,,,,,,,,,1,2022_Mar_29_1524,SAR-soap,2021.1.2,60.040468485559394,
124,Trial # 120,Group1-stimuli/group1-block1/fake-group2-b1/encoded_Group2_IMG_0100.jpg,0,encoded_Group2_IMG_0100.jpg,,,,,0.0,119.0,119.0,119.0,,,,,,,,,,,,,,,,,,,,,,,,,,,,,,,,,,,,,1186.3134028979694,None,1186.3134028979694,None,1186.3134028979694,None,1.0,2.4321441120118834,1186.3134028979694,None,1186.3134028979694,None,1.0,3.120986135036219,1188.2989731289565,None,1186.3134028979694,None,1.0,3.860033333010506,1188.9983583790015,None,1186.3134028979694,None,space,0.1916667049517855,3.886834138596896,None,1186.3134028979694,None,1186.3134028979694,None,,,,,,,,,1,2022_Mar_29_1524,SAR-soap,2021.1.2,60.040468485559394,
125,Trial # 121,Group1-stimuli/group1-block1/real-group1-b1/Group1_IMG_5359.jpg,1,Group1_IMG_5359.jpg,,,,,0.0,120.0,120.0,120.0,,,,,,,,,,,,,,,,,,,,,,,,,,,,,,,,,,,,,1190.4319160389714,None,1190.4319160389714,None,1190.4319160389714,None,4.0,2.2605294049717486,1190.4319160389714,None,1190.4319160389714,None,2.0,5.083248016017024,1192.232592076005,None,1190.4319160389714,None,3.0,8.02461244596634,1193.599003804964,None,1190.4319160389714,None,space,0.5871450830018148,7.616651608608663,None,1190.4319160389714,None,1190.4319160389714,None,,,,,,,,,1,2022_Mar_29_1524,SAR-soap,2021.1.2,60.040468485559394,
126,Trial # 122,Group1-stimuli/group1-block1/fake-group2-b1/encoded_Group2_IMG_0304.jpg,0,encoded_Group2_IMG_0304.jpg,,,,,0.0,121.0,121.0,121.0,,,,,,,,,,,,,,,,,,,,,,,,,,,,,,,,,,,,,1198.6513898469857,None,1198.6513898469857,None,1198.6513898469857,None,5.0,1.880231763003394,1198.6513898469857,None,1198.6513898469857,None,4.0,3.469028267019894,1200.0847023889655,None,1198.6513898469857,None,4.0,6.04430448601488,1201.684625127993,None,1198.6513898469857,None,space,0.5032681389711797,6.070114591682795,None,1198.6513898469857,None,1198.6513898469857,None,,,,,,,,,1,2022_Mar_29_1524,SAR-soap,2021.1.2,60.040468485559394,
127,Trial # 123,Group1-stimuli/group1-block1/real-group1-b1/Group1_IMG_0306.jpg,1,Group1_IMG_0306.jpg,,,,,0.0,122.0,122.0,122.0,,,,,,,,,,,,,,,,,,,,,,,,,,,,,,,,,,,,,1205.2692377179628,None,1205.2692377179628,None,1205.2692377179628,None,4.0,2.9126424189889804,1205.2692377179628,None,1205.2692377179628,None,4.0,6.8357560290023685,1207.7382159499684,None,1205.2692377179628,None,4.0,11.609078710956965,1208.4711896769586,None,1205.2692377179628,None,space,0.1241751970374025,11.635808759601789,None,1205.2692377179628,None,1205.2692377179628,None,,,,,,,,,1,2022_Mar_29_1524,SAR-soap,2021.1.2,60.040468485559394,
128,Trial # 124,Group1-stimuli/group1-block1/real-group1-b1/Group1_IMG_0224.jpg,1,Group1_IMG_0224.jpg,,,,,0.0,123.0,123.0,123.0,,,,,,,,,,,,,,,,,,,,,,,,,,,,,,,,,,,,,1217.0732227929984,None,1217.0732227929984,None,1217.0732227929984,None,3.0,3.129275170969777,1217.0732227929984,None,1217.0732227929984,None,2.0,5.2189864630345255,1219.7404214789858,None,1217.0732227929984,None,2.0,7.892266279028263,1221.84071911301,None,1217.0732227929984,None,space,0.1022291160188615,7.9171188185573556,None,1217.0732227929984,None,1217.0732227929984,None,,,,,,,,,1,2022_Mar_29_1524,SAR-soap,2021.1.2,60.040468485559394,
129,Trial # 125,Group1-stimuli/group1-block1/real-group1-b1/Group1_IMG_9889.jpg,1,Group1_IMG_9889.jpg,,,,,0.0,124.0,124.0,124.0,,,,,,,,,,,,,,,,,,,,,,,,,,,,,,,,,,,,,1225.1422369889915,None,1225.1422369889915,None,1225.1422369889915,None,1.0,1.5956663499819117,1225.1422369889915,None,1225.1422369889915,None,1.0,1.9844832189846784,1226.275910250959,None,1225.1422369889915,None,1.0,2.3564943770179525,1226.675472397008,None,1225.1422369889915,None,space,0.1674326850334182,2.382892135588918,None,1225.1422369889915,None,1225.1422369889915,None,,,,,,,,,1,2022_Mar_29_1524,SAR-soap,2021.1.2,60.040468485559394,
130,Trial # 126,Group1-stimuli/group1-block1/real-group1-b1/Group1_IMG_0293.jpg,1,Group1_IMG_0293.jpg,,,,,0.0,125.0,125.0,125.0,,,,,,,,,,,,,,,,,,,,,,,,,,,,,,,,,,,,,1227.7440336329746,None,1227.7440336329746,None,1227.7440336329746,None,1.0,1.378250902984291,1227.7440336329746,None,1227.7440336329746,None,1.0,1.7346601550234482,1228.6607516559889,None,1227.7440336329746,None,1.0,2.071348147990648,1229.027794272988,None,1227.7440336329746,None,space,0.1553692760062404,2.0971957776346244,None,1227.7440336329746,None,1227.7440336329746,None,,,,,,,,,1,2022_Mar_29_1524,SAR-soap,2021.1.2,60.040468485559394,
131,Trial # 127,Group1-stimuli/group1-block1/fake-group2-b1/encoded_Group2_IMG_0321.jpg,0,encoded_Group2_IMG_0321.jpg,,,,,0.0,126.0,126.0,126.0,,,,,,,,,,,,,,,,,,,,,,,,,,,,,,,,,,,,,1230.0101360779954,None,1230.0101360779954,None,1230.0101360779954,None,2.0,3.0826317410101183,1230.0101360779954,None,1230.0101360779954,None,1.0,3.6714208110352047,1232.646489306993,None,1230.0101360779954,None,1.0,4.410283798002638,1233.2447875539656,None,1230.0101360779954,None,space,0.2008486679987982,4.438332969613839,None,1230.0101360779954,None,1230.0101360779954,None,,,,,,,,,1,2022_Mar_29_1524,SAR-soap,2021.1.2,60.040468485559394,
132,Trial # 128,Group1-stimuli/group1-block1/fake-group2-b1/encoded_Group2_IMG_0400.jpg,0,encoded_Group2_IMG_0400.jpg,,,,,0.0,127.0,127.0,127.0,,,,,,,,,,,,,,,,,,,,,,,,,,,,,,,,,,,,,1234.662045445002,None,1234.662045445002,None,1234.662045445002,None,4.0,1.8794571140315384,1234.662045445002,None,1234.662045445002,None,2.0,4.601978099963162,1236.0960385269718,None,1234.662045445002,None,3.0,5.67511337203905,1238.8303271359764,None,1234.662045445002,None,space,0.1462006680085323,5.702677017601673,None,1234.662045445002,None,1234.662045445002,None,,,,,,,,,1,2022_Mar_29_1524,SAR-soap,2021.1.2,60.040468485559394,
133,Trial # 129,Group1-stimuli/group1-block1/fake-group2-b1/encoded_Group2_IMG_0443.jpg,0,encoded_Group2_IMG_0443.jpg,,,,,0.0,128.0,128.0,128.0,,,,,,,,,,,,,,,,,,,,,,,,,,,,,,,,,,,,,1240.5471580849844,None,1240.5471580849844,None,1240.5471580849844,None,5.0,3.530326523992698,1240.5471580849844,None,1240.5471580849844,None,3.0,5.4861682479968295,1243.6315206699655,None,1240.5471580849844,None,5.0,7.660383344977163,1245.5982844840037,None,1240.5471580849844,None,space,0.1324338340200483,7.68800981057575,None,1240.5471580849844,None,1240.5471580849844,None,,,,,,,,,1,2022_Mar_29_1524,SAR-soap,2021.1.2,60.040468485559394,
134,Trial # 130,Group1-stimuli/group1-block1/fake-group2-b1/encoded_Group2_IMG_0542.jpg,0,encoded_Group2_IMG_0542.jpg,,,,,0.0,129.0,129.0,129.0,,,,,,,,,,,,,,,,,,,,,,,,,,,,,,,,,,,,,1248.3832886739983,None,1248.3832886739983,None,1248.3832886739983,None,1.0,2.130221562983934,1248.3832886739983,None,1248.3832886739983,None,1.0,2.48560858599376,1250.066737319983,None,1248.3832886739983,None,1.0,3.191970123036299,1250.433607059007,None,1248.3832886739983,None,space,0.1659603730076924,3.2183493566699326,None,1248.3832886739983,None,1248.3832886739983,None,,,,,,,,,1,2022_Mar_29_1524,SAR-soap,2021.1.2,60.040468485559394,
135,Trial # 131,Group1-stimuli/group1-block1/real-group1-b1/Group1_IMG_0885.jpg,1,Group1_IMG_0885.jpg,,,,,0.0,130.0,130.0,130.0,,,,,,,,,,,,,,,,,,,,,,,,,,,,,,,,,,,,,1251.7996574110002,None,1251.7996574110002,None,1251.7996574110002,None,6.0,2.728072492987849,1251.7996574110002,None,1251.7996574110002,None,6.0,6.086188248009421,1254.0679770470017,None,1251.7996574110002,None,6.0,7.091889460047241,1257.436820785981,None,1251.7996574110002,None,space,0.198887571983505,7.116112356656231,None,1251.7996574110002,None,1251.7996574110002,None,,,,,,,,,1,2022_Mar_29_1524,SAR-soap,2021.1.2,60.040468485559394,
136,Trial # 132,Group1-stimuli/group1-block1/real-group1-b1/Group1_IMG_0375.jpg,1,Group1_IMG_0375.jpg,,,,,0.0,131.0,131.0,131.0,,,,,,,,,,,,,,,,,,,,,,,,,,,,,,,,,,,,,1259.1368098219973,None,1259.1368098219973,None,1259.1368098219973,None,1.0,1.6441451199934818,1259.1368098219973,None,1259.1368098219973,None,1.0,2.566010506008752,1260.3210290370043,None,1259.1368098219973,None,1.0,3.604679195967037,1261.2528308299952,None,1259.1368098219973,None,space,0.1388153309817426,3.631008992611896,None,1259.1368098219973,None,1259.1368098219973,None,,,,,,,,,1,2022_Mar_29_1524,SAR-soap,2021.1.2,60.040468485559394,
137,Trial # 133,Group1-stimuli/group1-block1/fake-group2-b1/encoded_Group2_IMG_7351.jpg,0,encoded_Group2_IMG_7351.jpg,,,,,0.0,132.0,132.0,132.0,,,,,,,,,,,,,,,,,,,,,,,,,,,,,,,,,,,,,1262.9382354019908,None,1262.9382354019908,None,1262.9382354019908,None,5.0,1.8295560810365716,1262.9382354019908,None,1262.9382354019908,None,4.0,2.4520269840140827,1264.3221608579624,None,1262.9382354019908,None,5.0,5.958315838011913,1264.954859880963,None,1262.9382354019908,None,space,3.092586443992332,3.9849437316297553,None,1262.9382354019908,None,1262.9382354019908,None,,,,,,,,,1,2022_Mar_29_1524,SAR-soap,2021.1.2,60.040468485559394,
138,Trial # 134,Group1-stimuli/group1-block1/fake-group2-b1/encoded_Group2_IMG_0416.jpg,0,encoded_Group2_IMG_0416.jpg,,,,,0.0,133.0,133.0,133.0,,,,,,,,,,,,,,,,,,,,,,,,,,,,,,,,,,,,,1270.0390118169598,None,1270.0390118169598,None,1270.0390118169598,None,5.0,2.6150872359867208,1270.0390118169598,None,1270.0390118169598,None,5.0,4.1712095940019935,1272.207729482965,None,1270.0390118169598,None,3.0,6.01052998699015,1273.7740613649949,None,1270.0390118169598,None,space,0.1801038719713688,6.037999400636181,None,1270.0390118169598,None,1270.0390118169598,None,,,,,,,,,1,2022_Mar_29_1524,SAR-soap,2021.1.2,60.040468485559394,
139,Trial # 135,Group1-stimuli/group1-block1/fake-group2-b1/encoded_Group2_IMG_0139.jpg,0,encoded_Group2_IMG_0139.jpg,,,,,0.0,134.0,134.0,134.0,,,,,,,,,,,,,,,,,,,,,,,,,,,,,,,,,,,,,1276.2916419419926,None,1276.2916419419926,None,1276.2916419419926,None,1.0,2.399872056033928,1276.2916419419926,None,1276.2916419419926,None,1.0,2.821181571984198,1278.2423677339684,None,1276.2916419419926,None,1.0,3.5933913749759085,1278.6757407489931,None,1276.2916419419926,None,space,0.14451078500133,3.6218360495986417,None,1276.2916419419926,None,1276.2916419419926,None,,,,,,,,,1,2022_Mar_29_1524,SAR-soap,2021.1.2,60.040468485559394,
140,Trial # 136,Group1-stimuli/group1-block1/real-group1-b1/Group1_IMG_9677.jpg,1,Group1_IMG_9677.jpg,,,,,0.0,135.0,135.0,135.0,,,,,,,,,,,,,,,,,,,,,,,,,,,,,,,,,,,,,1280.1100207999698,None,1280.1100207999698,None,1280.1100207999698,None,2.0,3.4128740510204807,1280.1100207999698,None,1280.1100207999698,None,1.0,3.784332366951276,1282.1113217229722,None,1280.1100207999698,None,1.0,4.123607297020499,1283.4444445609695,None,1280.1100207999698,None,space,0.1703250299906358,4.1481933345785365,None,1280.1100207999698,None,1280.1100207999698,None,,,,,,,,,1,2022_Mar_29_1524,SAR-soap,2021.1.2,60.040468485559394,
141,Trial # 137,Group1-stimuli/group1-block1/fake-group2-b1/encoded_Group2_IMG_5982.jpg,0,encoded_Group2_IMG_5982.jpg,,,,,0.0,136.0,136.0,136.0,,,,,,,,,,,,,,,,,,,,,,,,,,,,,,,,,,,,,1284.4605323279975,None,1284.4605323279975,None,1284.4605323279975,None,1.0,1.964455766021274,1284.4605323279975,None,1284.4605323279975,None,1.0,2.287982661975548,1285.9777032969869,None,1284.4605323279975,None,1.0,3.092198123980779,1286.3114119709935,None,1284.4605323279975,None,space,0.3558033229783177,3.121017777652014,None,1284.4605323279975,None,1284.4605323279975,None,,,,,,,,,1,2022_Mar_29_1524,SAR-soap,2021.1.2,60.040468485559394,
142,Trial # 138,Group1-stimuli/group1-block1/fake-group2-b1/encoded_Group2_IMG_1144.jpg,0,encoded_Group2_IMG_1144.jpg,,,,,0.0,137.0,137.0,137.0,,,,,,,,,,,,,,,,,,,,,,,,,,,,,,,,,,,,,1287.9621934809838,None,1287.9621934809838,None,1287.9621934809838,None,5.0,1.8641312399995515,1287.9621934809838,None,1287.9621934809838,None,5.0,5.054264250968117,1289.379013295984,None,1287.9621934809838,None,5.0,5.927483304985799,1290.0794734029914,None,1287.9621934809838,None,space,3.151381350995507,3.3196333926171064,None,1287.9621934809838,None,1287.9621934809838,None,,,,,,,,,1,2022_Mar_29_1524,SAR-soap,2021.1.2,60.040468485559394,
143,Trial # 139,Group1-stimuli/group1-block1/fake-group2-b1/encoded_Group2_IMG_0315.jpg,0,encoded_Group2_IMG_0315.jpg,,,,,0.0,138.0,138.0,138.0,,,,,,,,,,,,,,,,,,,,,,,,,,,,,,,,,,,,,1294.4633622439578,None,1294.4633622439578,None,1294.4633622439578,None,2.0,1.8141239740070887,1294.4633622439578,None,1294.4633622439578,None,1.0,2.2379718869924545,1295.8315269569866,None,1294.4633622439578,None,1.0,3.008631550008431,1296.2644898360013,None,1294.4633622439578,None,space,0.2350892620161175,3.039067785604857,None,1294.4633622439578,None,1294.4633622439578,None,,,,,,,,,1,2022_Mar_29_1524,SAR-soap,2021.1.2,60.040468485559394,
144,Trial # 140,Group1-stimuli/group1-block1/real-group1-b1/Group1_IMG_130.jpg,1,Group1_IMG_130.jpg,,,,,0.0,139.0,139.0,139.0,,,,,,,,,,,,,,,,,,,,,,,,,,,,,,,,,,,,,1297.798258214956,None,1297.798258214956,None,1297.798258214956,None,6.0,3.377448473998811,1297.798258214956,None,1297.798258214956,None,6.0,3.965319996990729,1300.7158026549732,None,1297.798258214956,None,6.0,5.406397145008668,1301.3161163269542,None,1297.798258214956,None,space,0.2056076900335028,5.430245183582883,None,1297.798258214956,None,1297.798258214956,None,,,,,,,,,1,2022_Mar_29_1524,SAR-soap,2021.1.2,60.040468485559394,
145,Trial # 141,Group1-stimuli/group1-block1/real-group1-b1/Group1_IMG_0024.jpg,1,Group1_IMG_0024.jpg,,,,,0.0,140.0,140.0,140.0,,,,,,,,,,,,,,,,,,,,,,,,,,,,,,,,,,,,,1303.484273422975,None,1303.484273422975,None,1303.484273422975,None,5.0,2.575374271022156,1303.484273422975,None,1303.484273422975,None,3.0,4.900460419012234,1305.6003761579632,None,1303.484273422975,None,5.0,10.340417194995098,1307.9357179490034,None,1303.484273422975,None,space,0.3055538579938002,10.363914649642538,None,1303.484273422975,None,1303.484273422975,None,,,,,,,,,1,2022_Mar_29_1524,SAR-soap,2021.1.2,60.040468485559394,
146,Trial # 142,Group1-stimuli/group1-block1/fake-group2-b1/encoded_Group2_IMG_5012.jpg,0,encoded_Group2_IMG_5012.jpg,,,,,0.0,141.0,141.0,141.0,,,,,,,,,,,,,,,,,,,,,,,,,,,,,,,,,,,,,1314.1870517079951,None,1314.1870517079951,None,1314.1870517079951,None,3.0,3.8318651889567263,1314.1870517079951,None,1314.1870517079951,None,2.0,5.221451408986468,1317.571930407954,None,1314.1870517079951,None,2.0,7.292657777026761,1318.972379467974,None,1314.1870517079951,None,space,0.1730644149938598,7.3225643615587614,None,1314.1870517079951,None,1314.1870517079951,None,,,,,,,,,1,2022_Mar_29_1524,SAR-soap,2021.1.2,60.040468485559394,
147,Trial # 143,Group1-stimuli/group1-block1/fake-group2-b1/encoded_Group2_IMG_0209.jpg,0,encoded_Group2_IMG_0209.jpg,,,,,0.0,142.0,142.0,142.0,,,,,,,,,,,,,,,,,,,,,,,,,,,,,,,,,,,,,1321.7218615149611,None,1321.7218615149611,None,1321.7218615149611,None,1.0,1.6652547410340048,1321.7218615149611,None,1321.7218615149611,None,1.0,2.055976058007218,1322.9394770479994,None,1321.7218615149611,None,1.0,2.460447092948016,1323.3393891199958,None,1321.7218615149611,None,space,0.191722612013109,2.4898708885884844,None,1321.7218615149611,None,1321.7218615149611,None,,,,,,,,,1,2022_Mar_29_1524,SAR-soap,2021.1.2,60.040468485559394,
148,Trial # 144,Group1-stimuli/group1-block1/real-group1-b1/Group1_IMG_0373.jpg,1,Group1_IMG_0373.jpg,,,,,0.0,143.0,143.0,143.0,,,,,,,,,,,,,,,,,,,,,,,,,,,,,,,,,,,,,1324.4395237899737,None,1324.4395237899737,None,1324.4395237899737,None,1.0,2.2950949240475893,1324.4395237899737,None,1324.4395237899737,None,1.0,2.7511800799984485,1326.273655309982,None,1324.4395237899737,None,1.0,3.0902613879879937,1326.7399452799582,None,1324.4395237899737,None,space,0.1690957720275037,3.116095088655129,None,1324.4395237899737,None,1324.4395237899737,None,,,,,,,,,1,2022_Mar_29_1524,SAR-soap,2021.1.2,60.040468485559394,
149,Trial # 145,Group1-stimuli/group1-block1/real-group1-b1/Group1_IMG_5899.jpg,1,Group1_IMG_5899.jpg,,,,,0.0,144.0,144.0,144.0,,,,,,,,,,,,,,,,,,,,,,,,,,,,,,,,,,,,,1327.758411679999,None,1327.758411679999,None,1327.758411679999,None,2.0,1.761811007047072,1327.758411679999,None,1327.758411679999,None,1.0,2.5526960599818267,1329.07422987296,None,1327.758411679999,None,1.0,3.2905976210022345,1329.874218532001,None,1327.758411679999,None,space,0.1233926690183579,3.3164538656710647,None,1327.758411679999,None,1327.758411679999,None,,,,,,,,,1,2022_Mar_29_1524,SAR-soap,2021.1.2,60.040468485559394,
150,Trial # 146,Group1-stimuli/group1-block1/real-group1-b1/Group1_IMG_0162.jpg,1,Group1_IMG_0162.jpg,,,,,0.0,145.0,145.0,145.0,,,,,,,,,,,,,,,,,,,,,,,,,,,,,,,,,,,,,1331.24189770699,None,1331.24189770699,None,1331.24189770699,None,6.0,3.04513050604146,1331.24189770699,None,1331.24189770699,None,5.0,4.301301138009876,1333.826903899957,None,1331.24189770699,None,6.0,5.907280888990499,1335.0926162980031,None,1331.24189770699,None,space,0.149825957021676,5.931966598669533,None,1331.24189770699,None,1331.24189770699,None,,,,,,,,,1,2022_Mar_29_1524,SAR-soap,2021.1.2,60.040468485559394,
151,Trial # 147,Group1-stimuli/group1-block1/real-group1-b1/Group1_IMG_0543.jpg,1,Group1_IMG_0543.jpg,,,,,0.0,146.0,146.0,146.0,,,,,,,,,,,,,,,,,,,,,,,,,,,,,,,,,,,,,1337.3615208449771,None,1337.3615208449771,None,1337.3615208449771,None,2.0,1.994576939032413,1337.3615208449771,None,1337.3615208449771,None,1.0,2.3844068370526657,1338.894269515993,None,1337.3615208449771,None,1.0,2.722981018014252,1339.29512974096,None,1337.3615208449771,None,space,0.1759274799842387,2.747593384643551,None,1337.3615208449771,None,1337.3615208449771,None,,,,,,,,,1,2022_Mar_29_1524,SAR-soap,2021.1.2,60.040468485559394,
152,Trial # 148,Group1-stimuli/group1-block1/fake-group2-b1/encoded_Group2_IMG_0355.jpg,0,encoded_Group2_IMG_0355.jpg,,,,,0.0,147.0,147.0,147.0,,,,,,,,,,,,,,,,,,,,,,,,,,,,,,,,,,,,,1340.310743686976,None,1340.310743686976,None,1340.310743686976,None,2.0,3.632802915002685,1340.310743686976,None,1340.310743686976,None,1.0,4.623586903035175,1343.496593658987,None,1340.310743686976,None,2.0,6.660458475002088,1344.4966262519592,None,1340.310743686976,None,space,1.8844533389783464,5.023110757640097,None,1340.310743686976,None,1340.310743686976,None,,,,,,,,,1,2022_Mar_29_1524,SAR-soap,2021.1.2,60.040468485559394,
153,Trial # 149,Group1-stimuli/group1-block1/real-group1-b1/Group1_IMG_9765.jpg,1,Group1_IMG_9765.jpg,,,,,0.0,148.0,148.0,148.0,,,,,,,,,,,,,,,,,,,,,,,,,,,,,,,,,,,,,1347.2471119889524,None,1347.2471119889524,None,1347.2471119889524,None,4.0,4.429241920006461,1347.2471119889524,None,1347.2471119889524,None,3.0,5.386612183996476,1351.2316566389636,None,1347.2471119889524,None,5.0,6.792823549010791,1352.1993558729882,None,1347.2471119889524,None,space,0.1717786740045994,6.819041871640366,None,1347.2471119889524,None,1347.2471119889524,None,,,,,,,,,1,2022_Mar_29_1524,SAR-soap,2021.1.2,60.040468485559394,
154,Trial # 150,Group1-stimuli/group1-block1/fake-group2-b1/encoded_Group2_IMG_1378.jpg,0,encoded_Group2_IMG_1378.jpg,,,,,0.0,149.0,149.0,149.0,,,,,,,,,,,,,,,,,,,,,,,,,,,,,,,,,,,,,1354.28228705097,None,1354.28228705097,None,1354.28228705097,None,4.0,2.380592613015324,1354.28228705097,None,1354.28228705097,None,3.0,3.00312401202973,1356.216763461009,None,1354.28228705097,None,4.0,4.807989589986391,1356.8489911669749,None,1354.28228705097,None,space,0.2080866899923421,4.838519495679066,None,1354.28228705097,None,1354.28228705097,None,,,,,,,,,1,2022_Mar_29_1524,SAR-soap,2021.1.2,60.040468485559394,
155,Trial # 1,Group1-stimuli/group1-block2/fake-group2-b2/encoded_Group2_IMG_0155.jpg,0,encoded_Group2_IMG_0155.jpg,,,,,,,,,0.0,0.0,0.0,0.0,,,,,,,,,,,,,,,,,,,,,,,,,,,,,,,,,1502.2953402199782,None,1502.2953402199782,None,1502.2953402199782,None,4.0,1.8520478769787587,1502.2953402199782,None,1502.2953402199782,None,3.0,4.74058199999854,1503.6951350870077,None,1502.2953402199782,None,4.0,5.748453436011914,1506.5956080429603,None,1502.2953402199782,None,space,0.1271013849764131,5.7796974803786725,None,1502.2953402199782,None,1502.2953402199782,None,1496.6301753349835,None,1496.6301753349835,None,1496.6301753349835,None,1358.8666720679612,None,1,2022_Mar_29_1524,SAR-soap,2021.1.2,60.040468485559394,
156,Trial # 2,Group1-stimuli/group1-block2/real-group1-b2/Group1_IMG_0519.jpg,1,Group1_IMG_0519.jpg,,,,,,,,,0.0,1.0,1.0,1.0,,,,,,,,,,,,,,,,,,,,,,,,,,,,,,,,,1508.230200660997,None,1508.230200660997,None,1508.230200660997,None,3.0,2.372093956975732,1508.230200660997,None,1508.230200660997,None,2.0,3.9269941429956816,1510.1469914040065,None,1508.230200660997,None,3.0,4.801597754994873,1511.7144732599843,None,1508.230200660997,None,space,0.1261964720324613,4.819981840613764,None,1508.230200660997,None,1508.230200660997,None,,,,,,,,,1,2022_Mar_29_1524,SAR-soap,2021.1.2,60.040468485559394,
157,Trial # 3,Group1-stimuli/group1-block2/fake-group2-b2/encoded_Group2_IMG_0135.jpg,0,encoded_Group2_IMG_0135.jpg,,,,,,,,,0.0,2.0,2.0,2.0,,,,,,,,,,,,,,,,,,,,,,,,,,,,,,,,,1513.1987312469864,None,1513.1987312469864,None,1513.1987312469864,None,1.0,1.7454488489893265,1513.1987312469864,None,1513.1987312469864,None,1.0,2.1031322720227763,1514.4986264519976,None,1513.1987312469864,None,1.0,2.807294290047139,1514.8657490459736,None,1513.1987312469864,None,space,0.1420776689774356,2.8344298186711967,None,1513.1987312469864,None,1513.1987312469864,None,,,,,,,,,1,2022_Mar_29_1524,SAR-soap,2021.1.2,60.040468485559394,
158,Trial # 4,Group1-stimuli/group1-block2/real-group1-b2/Group1_IMG_5310.jpg,1,Group1_IMG_5310.jpg,,,,,,,,,0.0,3.0,3.0,3.0,,,,,,,,,,,,,,,,,,,,,,,,,,,,,,,,,1516.2321725069778,None,1516.2321725069778,None,1516.2321725069778,None,5.0,2.7081293480005115,1516.2321725069778,None,1516.2321725069778,None,4.0,4.347011029021815,1517.6665186769678,None,1516.2321725069778,None,6.0,5.854293041978963,1520.1332562839962,None,1516.2321725069778,None,space,0.073353981017135,5.873764485644642,None,1516.2321725069778,None,1516.2321725069778,None,,,,,,,,,1,2022_Mar_29_1524,SAR-soap,2021.1.2,60.040468485559394,
159,Trial # 5,Group1-stimuli/group1-block2/real-group1-b2/Group1_IMG_0522.jpg,1,Group1_IMG_0522.jpg,,,,,,,,,0.0,4.0,4.0,4.0,,,,,,,,,,,,,,,,,,,,,,,,,,,,,,,,,1522.234541291953,None,1522.234541291953,None,1522.234541291953,None,4.0,1.844287969986908,1522.234541291953,None,1522.234541291953,None,3.0,2.6001891309861094,1523.6189049899697,None,1522.234541291953,None,4.0,5.407133373024408,1524.3846337840075,None,1522.234541291953,None,space,2.133349391981028,3.362568802665919,None,1522.234541291953,None,1522.234541291953,None,,,,,,,,,1,2022_Mar_29_1524,SAR-soap,2021.1.2,60.040468485559394,
160,Trial # 6,Group1-stimuli/group1-block2/fake-group2-b2/encoded_Group2_IMG_0484.jpg,0,encoded_Group2_IMG_0484.jpg,,,,,,,,,0.0,5.0,5.0,5.0,,,,,,,,,,,,,,,,,,,,,,,,,,,,,,,,,1527.735931706964,None,1527.735931706964,None,1527.735931706964,None,1.0,3.647230469039641,1527.735931706964,None,1527.735931706964,None,1.0,2.884839302976616,1529.0527886970085,None,1527.735931706964,None,1.0,4.35651189199416,1530.1868811440072,None,1527.735931706964,None,space,0.0779284830205142,4.385075130616315,None,1527.735931706964,None,1527.735931706964,None,,,,,,,,,1,2022_Mar_29_1524,SAR-soap,2021.1.2,60.040468485559394,
161,Trial # 7,Group1-stimuli/group1-block2/fake-group2-b2/encoded_Group2_IMG_5948.jpg,0,encoded_Group2_IMG_5948.jpg,,,,,,,,,0.0,6.0,6.0,6.0,,,,,,,,,,,,,,,,,,,,,,,,,,,,,,,,,1532.2379527959856,None,1532.2379527959856,None,1532.2379527959856,None,1.0,2.498110298998654,1532.2379527959856,None,1532.2379527959856,None,1.0,2.821576040005312,1534.2886642369558,None,1532.2379527959856,None,1.0,3.126096761028748,1534.6208340989542,None,1532.2379527959856,None,space,0.1942385130096227,3.1553049276117235,None,1532.2379527959856,None,1532.2379527959856,None,,,,,,,,,1,2022_Mar_29_1524,SAR-soap,2021.1.2,60.040468485559394,
162,Trial # 8,Group1-stimuli/group1-block2/fake-group2-b2/encoded_Group2_IMG_3591.jpg,0,encoded_Group2_IMG_3591.jpg,,,,,,,,,0.0,7.0,7.0,7.0,,,,,,,,,,,,,,,,,,,,,,,,,,,,,,,,,1535.6044372529725,None,1535.6044372529725,None,1535.6044372529725,None,2.0,1.7288402150152251,1535.6044372529725,None,1535.6044372529725,None,1.0,2.118357201979961,1536.8885006459896,None,1535.6044372529725,None,1.0,2.489917306986172,1537.2895051889936,None,1535.6044372529725,None,space,0.4996182670001872,2.518584985635244,None,1535.6044372529725,None,1535.6044372529725,None,,,,,,,,,1,2022_Mar_29_1524,SAR-soap,2021.1.2,60.040468485559394,
