,Trial_num,image_path,ground_truth,image_name,demos.thisRepN,demos.thisTrialN,demos.thisN,demos.thisIndex,block_1.thisRepN,block_1.thisTrialN,block_1.thisN,block_1.thisIndex,block_2.thisRepN,block_2.thisTrialN,block_2.thisN,block_2.thisIndex,text_3.started,text_3.stopped,Task.started,Task.stopped,text_10.started,text_10.stopped,key_resp.keys,key_resp.rt,key_resp.started,key_resp.stopped,image_2.started,image_2.stopped,text_5.started,text_5.stopped,image_3.started,image_3.stopped,text_6.started,text_6.stopped,translucency.started,translucency.stopped,see_throughness.started,see_throughness.stopped,glow.started,glow.stopped,key_resp_10.keys,key_resp_10.rt,key_resp_10.started,key_resp_10.stopped,instruction.started,instruction.stopped,text_12.started,text_12.stopped,Trial_number.started,Trial_number.stopped,image.started,image.stopped,Instruction.started,Instruction.stopped,translucency_score.response,translucency_score.rt,translucency_score.started,translucency_score.stopped,Translucency.started,Translucency.stopped,seethroughness_score.response,seethroughness_score.rt,seethroughness_score.started,seethroughness_score.stopped,SeeThroughness.started,SeeThroughness.stopped,glow_score.response,glow_score.rt,glow_score.started,glow_score.stopped,Glow.started,Glow.stopped,to_next.keys,to_next.rt,to_next.started,to_next.stopped,grading_label_left.started,grading_label_left.stopped,grading_label_right.started,grading_label_right.stopped,instruct1.started,instruct1.stopped,instruct2.started,instruct2.stopped,text_4.started,text_4.stopped,text_2.started,text_2.stopped,session,date,expName,psychopyVersion,frameRate,Unnamed: 94
0,,,,,,,,,,,,,,,,,11.133383941138163,None,65.38730166410096,None,72.08960022614338,None,space,10.779203620972112,77.05699567100964,None,,,,,,,,,,,,,,,,,,,,,,,,,,,,,,,,,,,,,,,,,,,,,,,,,,,,,,,,,,,,,,,1,2022_Apr_12_1501,SAR-soap,2021.1.2,59.91871416959168,
1,,,,,,,,,,,,,,,,,,,,,,,,,,,88.32891110121273,None,88.32891110121273,None,97.81514599802904,None,97.81514599802904,None,107.7348545351997,None,107.7348545351997,None,107.7348545351997,None,space,16.517359670018777,107.7348545351997,None,,,,,,,,,,,,,,,,,,,,,,,,,,,,,,,,,,,,,,,,,,,,,1,2022_Apr_12_1501,SAR-soap,2021.1.2,59.91871416959168,
2,Demo 1,demo/Demo_IMG_0974.jpg,demo,Demo_IMG_0974.jpg,0.0,0.0,0.0,0.0,,,,,,,,,,,,,,,,,,,,,,,,,,,,,,,,,,,,,107.7348545351997,None,124.27211892604828,None,128.09105064999312,None,128.09105064999312,None,128.09105064999312,None,2.0,22.749987808056176,128.09105064999312,None,128.09105064999312,None,5.0,27.106629594927654,150.3633930850774,None,128.09105064999312,None,4.0,29.946664944058284,154.73255693214014,None,128.09105064999312,None,space,1.3671875491272658,29.971819278318435,None,128.09105064999312,None,128.09105064999312,None,,,,,,,,,1,2022_Apr_12_1501,SAR-soap,2021.1.2,59.91871416959168,
3,Demo 2,demo/Demo_IMG_1024.jpg,demo,Demo_IMG_1024.jpg,0.0,1.0,1.0,1.0,,,,,,,,,,,,,,,,,,,,,,,,,,,,,,,,,,,,,,,,,159.5169180331286,None,159.5169180331286,None,159.5169180331286,None,1.0,35.44626910309307,159.5169180331286,None,159.5169180331286,None,1.0,36.45186015893705,194.51176860299893,None,159.5169180331286,None,1.0,38.25645115296357,195.52727243001573,None,159.5169180331286,None,space,1.2855218609329313,38.2921891186852,None,159.5169180331286,None,159.5169180331286,None,,,,,,,,,1,2022_Apr_12_1501,SAR-soap,2021.1.2,59.91871416959168,
4,Demo 3,demo/Demo_seed_80003.png,demo,Demo_seed_80003.png,0.0,2.0,2.0,2.0,,,,,,,,,,,,,,,,,,,,,,,,,,,,,,,,,,,,,,,,,199.17942171520556,None,199.17942171520556,None,199.17942171520556,None,6.0,6.727480834815651,199.17942171520556,None,199.17942171520556,None,3.0,9.382331374799833,205.44728240021504,None,199.17942171520556,None,2.0,12.356215952895582,208.11512068798768,None,199.17942171520556,None,space,1.8832578959409148,12.377182555617765,None,199.17942171520556,None,199.17942171520556,None,,,,,,,,,1,2022_Apr_12_1501,SAR-soap,2021.1.2,59.91871416959168,
5,Trial # 1,Group1-stimuli/group1-block1/real-group1-b1/Group1_IMG_0022.jpg,1,Group1_IMG_0022.jpg,,,,,0.0,0.0,0.0,0.0,,,,,,,,,,,,,,,,,,,,,,,,,,,,,,,,,,,,,224.28708790708333,None,224.28708790708333,None,224.28708790708333,None,2.0,3.735258074942976,224.28708790708333,None,224.28708790708333,None,3.0,22.92939505004324,227.57238487014547,None,224.28708790708333,None,1.0,9.231753775151446,231.0716367959976,None,224.28708790708333,None,space,23.29262589290738,9.264070018893108,None,224.28708790708333,None,224.28708790708333,None,213.4501774541568,None,213.4501774541568,None,213.4501774541568,None,,,1,2022_Apr_12_1501,SAR-soap,2021.1.2,59.91871416959168,
6,Trial # 2,Group1-stimuli/group1-block1/fake-group2-b1/encoded_Group2_IMG_0386.jpg,0,encoded_Group2_IMG_0386.jpg,,,,,0.0,1.0,1.0,1.0,,,,,,,,,,,,,,,,,,,,,,,,,,,,,,,,,,,,,256.8790906451177,None,256.8790906451177,None,256.8790906451177,None,2.0,3.710305976914242,256.8790906451177,None,256.8790906451177,None,2.0,7.650198602117598,260.131800678093,None,256.8790906451177,None,1.0,9.85637861606665,264.08206800115295,None,256.8790906451177,None,space,1.8030454879626632,9.879134191898627,None,256.8790906451177,None,256.8790906451177,None,,,,,,,,,1,2022_Apr_12_1501,SAR-soap,2021.1.2,59.91871416959168,
7,Trial # 3,Group1-stimuli/group1-block1/real-group1-b1/Group1_IMG_9704.jpg,1,Group1_IMG_9704.jpg,,,,,0.0,2.0,2.0,2.0,,,,,,,,,,,,,,,,,,,,,,,,,,,,,,,,,,,,,268.6170530561358,None,268.6170530561358,None,268.6170530561358,None,1.0,3.277628147043288,268.6170530561358,None,268.6170530561358,None,1.0,4.534518742002547,271.4340916092042,None,268.6170530561358,None,1.0,5.474091266049072,272.7024051921908,None,268.6170530561358,None,space,1.4252121429890394,5.49996997974813,None,268.6170530561358,None,268.6170530561358,None,,,,,,,,,1,2022_Apr_12_1501,SAR-soap,2021.1.2,59.91871416959168,
8,Trial # 4,Group1-stimuli/group1-block1/real-group1-b1/Group1_IMG_0406.jpg,1,Group1_IMG_0406.jpg,,,,,0.0,3.0,3.0,3.0,,,,,,,,,,,,,,,,,,,,,,,,,,,,,,,,,,,,,275.56886149407364,None,275.56886149407364,None,275.56886149407364,None,2.0,4.291031314060092,275.56886149407364,None,275.56886149407364,None,2.0,7.531158343888819,279.4038628411945,None,275.56886149407364,None,1.0,9.37057182006538,282.65555851813406,None,275.56886149407364,None,space,5.556730568176135,9.392710975604132,None,275.56886149407364,None,275.56886149407364,None,,,,,,,,,1,2022_Apr_12_1501,SAR-soap,2021.1.2,59.91871416959168,
9,Trial # 5,Group1-stimuli/group1-block1/fake-group2-b1/encoded_Group2_IMG_0364.jpg,0,encoded_Group2_IMG_0364.jpg,,,,,0.0,4.0,4.0,4.0,,,,,,,,,,,,,,,,,,,,,,,,,,,,,,,,,,,,,290.5574173082132,None,290.5574173082132,None,290.5574173082132,None,1.0,3.360753951128572,290.5574173082132,None,290.5574173082132,None,1.0,4.067040472058579,293.4589338290971,None,290.5574173082132,None,1.0,4.938436259049922,294.1749052240048,None,290.5574173082132,None,space,1.2918712538667023,4.962874616961926,None,290.5574173082132,None,290.5574173082132,None,,,,,,,,,1,2022_Apr_12_1501,SAR-soap,2021.1.2,59.91871416959168,
10,Trial # 6,Group1-stimuli/group1-block1/fake-group2-b1/encoded_Group2_IMG_0407.jpg,0,encoded_Group2_IMG_0407.jpg,,,,,0.0,5.0,5.0,5.0,,,,,,,,,,,,,,,,,,,,,,,,,,,,,,,,,,,,,296.8420121502131,None,296.8420121502131,None,296.8420121502131,None,2.0,4.660734687000513,296.8420121502131,None,296.8420121502131,None,1.0,6.717016629176214,301.043646144215,None,296.8420121502131,None,1.0,7.555962002137676,303.1113258970436,None,296.8420121502131,None,space,0.2917473369743675,7.581392056774348,None,296.8420121502131,None,296.8420121502131,None,,,,,,,,,1,2022_Apr_12_1501,SAR-soap,2021.1.2,59.91871416959168,
11,Trial # 7,Group1-stimuli/group1-block1/real-group1-b1/Group1_IMG_0428.jpg,1,Group1_IMG_0428.jpg,,,,,0.0,6.0,6.0,6.0,,,,,,,,,,,,,,,,,,,,,,,,,,,,,,,,,,,,,304.7454602390062,None,304.7454602390062,None,304.7454602390062,None,5.0,3.757109184982255,304.7454602390062,None,304.7454602390062,None,4.0,7.480551778106019,308.04688326921314,None,304.7454602390062,None,1.0,9.953477755887434,311.78020074707456,None,304.7454602390062,None,space,1.2775634329300374,9.974640619708223,None,304.7454602390062,None,304.7454602390062,None,,,,,,,,,1,2022_Apr_12_1501,SAR-soap,2021.1.2,59.91871416959168,
12,Trial # 8,Group1-stimuli/group1-block1/fake-group2-b1/encoded_Group2_IMG_0474.jpg,0,encoded_Group2_IMG_0474.jpg,,,,,0.0,7.0,7.0,7.0,,,,,,,,,,,,,,,,,,,,,,,,,,,,,,,,,,,,,316.0355174210854,None,316.0355174210854,None,316.0355174210854,None,1.0,2.628280498087406,316.0355174210854,None,316.0355174210854,None,1.0,3.350436106091365,318.2159753190353,None,316.0355174210854,None,1.0,4.056422722060233,318.94900931813754,None,316.0355174210854,None,space,0.9403325361199676,4.079731195699424,None,316.0355174210854,None,316.0355174210854,None,,,,,,,,,1,2022_Apr_12_1501,SAR-soap,2021.1.2,59.91871416959168,
13,Trial # 9,Group1-stimuli/group1-block1/fake-group2-b1/encoded_Group2_IMG_1506.jpg,0,encoded_Group2_IMG_1506.jpg,,,,,0.0,8.0,8.0,8.0,,,,,,,,,,,,,,,,,,,,,,,,,,,,,,,,,,,,,321.1164597000461,None,321.1164597000461,None,321.1164597000461,None,4.0,5.060970613965765,321.1164597000461,None,321.1164597000461,None,2.0,15.3356552249752,325.7181846140884,None,321.1164597000461,None,1.0,17.07519209710881,336.0047346751672,None,321.1164597000461,None,space,3.1779202928300947,17.10081174154766,None,321.1164597000461,None,321.1164597000461,None,,,,,,,,,1,2022_Apr_12_1501,SAR-soap,2021.1.2,59.91871416959168,
14,Trial # 10,Group1-stimuli/group1-block1/real-group1-b1/Group1_IMG_9789.jpg,1,Group1_IMG_9789.jpg,,,,,0.0,9.0,9.0,9.0,,,,,,,,,,,,,,,,,,,,,,,,,,,,,,,,,,,,,341.43911548610777,None,341.43911548610777,None,341.43911548610777,None,1.0,2.26182786305435,341.43911548610777,None,341.43911548610777,None,1.0,2.9510492340195924,343.240643219091,None,341.43911548610777,None,1.0,3.623473956948146,343.9407100931276,None,341.43911548610777,None,space,0.9498471568804234,3.648747700965032,None,341.43911548610777,None,341.43911548610777,None,,,,,,,,,1,2022_Apr_12_1501,SAR-soap,2021.1.2,59.91871416959168,
15,Trial # 11,Group1-stimuli/group1-block1/real-group1-b1/Group1_IMG_9778.jpg,1,Group1_IMG_9778.jpg,,,,,0.0,10.0,10.0,10.0,,,,,,,,,,,,,,,,,,,,,,,,,,,,,,,,,,,,,346.0736467901152,None,346.0736467901152,None,346.0736467901152,None,3.0,4.02897489303723,346.0736467901152,None,346.0736467901152,None,4.0,7.819797568954527,349.64282386610284,None,346.0736467901152,None,1.0,9.02388881216757,351.90926168719307,None,346.0736467901152,None,space,1.4653802290558815,9.050609988626093,None,346.0736467901152,None,346.0736467901152,None,,,,,,,,,1,2022_Apr_12_1501,SAR-soap,2021.1.2,59.91871416959168,
16,Trial # 12,Group1-stimuli/group1-block1/real-group1-b1/Group1_IMG_9813.jpg,1,Group1_IMG_9813.jpg,,,,,0.0,11.0,11.0,11.0,,,,,,,,,,,,,,,,,,,,,,,,,,,,,,,,,,,,,356.6104630581103,None,356.6104630581103,None,356.6104630581103,None,1.0,2.011939772870392,356.6104630581103,None,356.6104630581103,None,1.0,2.6336865678895265,358.1613538439851,None,356.6104630581103,None,1.0,3.272457864833996,358.7953555681743,None,356.6104630581103,None,space,1.0410468399059027,3.2973112578038126,None,356.6104630581103,None,356.6104630581103,None,,,,,,,,,1,2022_Apr_12_1501,SAR-soap,2021.1.2,59.91871416959168,
17,Trial # 13,Group1-stimuli/group1-block1/real-group1-b1/Group1_IMG_0516.jpg,1,Group1_IMG_0516.jpg,,,,,0.0,12.0,12.0,12.0,,,,,,,,,,,,,,,,,,,,,,,,,,,,,,,,,,,,,360.9782812020276,None,360.9782812020276,None,360.9782812020276,None,4.0,3.179965703049674,360.9782812020276,None,360.9782812020276,None,6.0,12.805541191948578,363.713919662172,None,360.9782812020276,None,2.0,14.84392114612274,365.2467447191011,None,360.9782812020276,None,space,0.6947312969714403,14.87116756173782,None,360.9782812020276,None,360.9782812020276,None,,,,,,,,,1,2022_Apr_12_1501,SAR-soap,2021.1.2,59.91871416959168,
18,Trial # 14,Group1-stimuli/group1-block1/fake-group2-b1/encoded_Group2_IMG_0038.jpg,0,encoded_Group2_IMG_0038.jpg,,,,,0.0,13.0,13.0,13.0,,,,,,,,,,,,,,,,,,,,,,,,,,,,,,,,,,,,,376.5829079451505,None,376.5829079451505,None,376.5829079451505,None,4.0,3.176536354003474,376.5829079451505,None,376.5829079451505,None,4.0,6.316268211929128,379.3020811250899,None,376.5829079451505,None,1.0,8.323837182018906,381.78513357019983,None,376.5829079451505,None,space,0.5684083860833198,8.346864954568446,None,376.5829079451505,None,376.5829079451505,None,,,,,,,,,1,2022_Apr_12_1501,SAR-soap,2021.1.2,59.91871416959168,
19,Trial # 15,Group1-stimuli/group1-block1/real-group1-b1/Group1_IMG_5984.jpg,1,Group1_IMG_5984.jpg,,,,,0.0,14.0,14.0,14.0,,,,,,,,,,,,,,,,,,,,,,,,,,,,,,,,,,,,,385.5525658910629,None,385.5525658910629,None,385.5525658910629,None,1.0,2.945061478065327,385.5525658910629,None,385.5525658910629,None,1.0,3.5689055281691253,388.03835529717617,None,385.5525658910629,None,1.0,4.2069702439475805,388.670684923185,None,385.5525658910629,None,space,0.8201752500608563,4.233919785823673,None,385.5525658910629,None,385.5525658910629,None,,,,,,,,,1,2022_Apr_12_1501,SAR-soap,2021.1.2,59.91871416959168,
20,Trial # 16,Group1-stimuli/group1-block1/real-group1-b1/Group1_IMG_0383.jpg,1,Group1_IMG_0383.jpg,,,,,0.0,15.0,15.0,15.0,,,,,,,,,,,,,,,,,,,,,,,,,,,,,,,,,,,,,390.63781505217776,None,390.63781505217776,None,390.63781505217776,None,3.0,7.075167192146182,390.63781505217776,None,390.63781505217776,None,4.0,16.58353598206304,397.2569550131448,None,390.63781505217776,None,3.0,19.356349863111973,406.77653610217385,None,390.63781505217776,None,space,2.064958893926814,17.680102004669607,None,390.63781505217776,None,390.63781505217776,None,,,,,,,,,1,2022_Apr_12_1501,SAR-soap,2021.1.2,59.91871416959168,
21,Trial # 17,Group1-stimuli/group1-block1/fake-group2-b1/encoded_Group2_IMG_0456.jpg,0,encoded_Group2_IMG_0456.jpg,,,,,0.0,16.0,16.0,16.0,,,,,,,,,,,,,,,,,,,,,,,,,,,,,,,,,,,,,410.410872801207,None,410.410872801207,None,410.410872801207,None,4.0,5.627944981912151,410.410872801207,None,410.410872801207,None,3.0,20.87261632806621,415.5791591971647,None,410.410872801207,None,1.0,22.911397262010723,430.8341342071071,None,410.410872801207,None,space,1.017348937923089,22.936103527667,None,410.410872801207,None,410.410872801207,None,,,,,,,,,1,2022_Apr_12_1501,SAR-soap,2021.1.2,59.91871416959168,
22,Trial # 18,Group1-stimuli/group1-block1/fake-group2-b1/encoded_Group2_IMG_8390.jpg,0,encoded_Group2_IMG_8390.jpg,,,,,0.0,17.0,17.0,17.0,,,,,,,,,,,,,,,,,,,,,,,,,,,,,,,,,,,,,434.385097769089,None,434.385097769089,None,434.385097769089,None,5.0,4.815428470959887,434.385097769089,None,434.385097769089,None,6.0,6.055756296031177,438.7540406552144,None,434.385097769089,None,4.0,9.929323146119714,440.00415151007473,None,434.385097769089,None,space,3.855370513861999,7.7563345287926495,None,434.385097769089,None,434.385097769089,None,,,,,,,,,1,2022_Apr_12_1501,SAR-soap,2021.1.2,59.91871416959168,
23,Trial # 19,Group1-stimuli/group1-block1/real-group1-b1/Group1_IMG_0011.jpg,1,Group1_IMG_0011.jpg,,,,,0.0,18.0,18.0,18.0,,,,,,,,,,,,,,,,,,,,,,,,,,,,,,,,,,,,,446.02133830613457,None,446.02133830613457,None,446.02133830613457,None,5.0,7.847739444114268,446.02133830613457,None,446.02133830613457,None,5.0,9.354419591836631,453.424613977084,None,446.02133830613457,None,1.0,10.493797928094864,454.9423357970081,None,446.02133830613457,None,space,0.7625342980027199,10.519981157733127,None,446.02133830613457,None,446.02133830613457,None,,,,,,,,,1,2022_Apr_12_1501,SAR-soap,2021.1.2,59.91871416959168,
24,Trial # 20,Group1-stimuli/group1-block1/fake-group2-b1/encoded_Group2_IMG_0328.jpg,0,encoded_Group2_IMG_0328.jpg,,,,,0.0,19.0,19.0,19.0,,,,,,,,,,,,,,,,,,,,,,,,,,,,,,,,,,,,,457.3247172641568,None,457.3247172641568,None,457.3247172641568,None,1.0,2.1152805311139677,457.3247172641568,None,457.3247172641568,None,1.0,2.737955729942769,458.9934846071992,None,457.3247172641568,None,1.0,3.377683114958927,459.6256616890896,None,457.3247172641568,None,space,0.8256520538125187,3.405189272714779,None,457.3247172641568,None,457.3247172641568,None,,,,,,,,,1,2022_Apr_12_1501,SAR-soap,2021.1.2,59.91871416959168,
25,Trial # 21,Group1-stimuli/group1-block1/fake-group2-b1/encoded_Group2_IMG_0163.jpg,0,encoded_Group2_IMG_0163.jpg,,,,,0.0,20.0,20.0,20.0,,,,,,,,,,,,,,,,,,,,,,,,,,,,,,,,,,,,,461.5763797501568,None,461.5763797501568,None,461.5763797501568,None,5.0,5.097648886963725,461.5763797501568,None,461.5763797501568,None,6.0,19.924908739048988,466.22856756602414,None,461.5763797501568,None,2.0,23.1315736528486,481.0660828240216,None,461.5763797501568,None,space,2.240413358900696,21.9933492988348,None,461.5763797501568,None,461.5763797501568,None,,,,,,,,,1,2022_Apr_12_1501,SAR-soap,2021.1.2,59.91871416959168,
26,Trial # 22,Group1-stimuli/group1-block1/real-group1-b1/Group1_IMG_9862.jpg,1,Group1_IMG_9862.jpg,,,,,0.0,21.0,21.0,21.0,,,,,,,,,,,,,,,,,,,,,,,,,,,,,,,,,,,,,485.86737686302513,None,485.86737686302513,None,485.86737686302513,None,1.0,2.5278085621539503,485.86737686302513,None,485.86737686302513,None,1.0,3.182680208934471,487.93502238113433,None,485.86737686302513,None,1.0,3.788908472983167,488.602181754075,None,485.86737686302513,None,space,0.56311872205697,3.8132410168182105,None,485.86737686302513,None,485.86737686302513,None,,,,,,,,,1,2022_Apr_12_1501,SAR-soap,2021.1.2,59.91871416959168,
27,Trial # 23,Group1-stimuli/group1-block1/fake-group2-b1/encoded_Group2_IMG_0296.jpg,0,encoded_Group2_IMG_0296.jpg,,,,,0.0,22.0,22.0,22.0,,,,,,,,,,,,,,,,,,,,,,,,,,,,,,,,,,,,,490.2520912052132,None,490.2520912052132,None,490.2520912052132,None,5.0,4.681227244902402,490.2520912052132,None,490.2520912052132,None,6.0,6.270907178986818,494.4878832590766,None,490.2520912052132,None,2.0,7.676483274903148,496.0866738860496,None,490.2520912052132,None,space,1.7977301329374311,7.70488958992064,None,490.2520912052132,None,490.2520912052132,None,,,,,,,,,1,2022_Apr_12_1501,SAR-soap,2021.1.2,59.91871416959168,
28,Trial # 24,Group1-stimuli/group1-block1/fake-group2-b1/encoded_Group2_IMG_0503.jpg,0,encoded_Group2_IMG_0503.jpg,,,,,0.0,23.0,23.0,23.0,,,,,,,,,,,,,,,,,,,,,,,,,,,,,,,,,,,,,499.77189262304455,None,499.77189262304455,None,499.77189262304455,None,5.0,4.048242055112496,499.77189262304455,None,499.77189262304455,None,6.0,4.7381774159148335,503.37456885701977,None,499.77189262304455,None,5.0,6.842719695996493,504.07413409114815,None,499.77189262304455,None,space,3.647213716059923,6.870363174704835,None,499.77189262304455,None,499.77189262304455,None,,,,,,,,,1,2022_Apr_12_1501,SAR-soap,2021.1.2,59.91871416959168,
29,Trial # 25,Group1-stimuli/group1-block1/fake-group2-b1/encoded_Group2_IMG_9804.jpg,0,encoded_Group2_IMG_9804.jpg,,,,,0.0,24.0,24.0,24.0,,,,,,,,,,,,,,,,,,,,,,,,,,,,,,,,,,,,,510.3248670180328,None,510.3248670180328,None,510.3248670180328,None,1.0,1.6818840350024402,510.3248670180328,None,510.3248670180328,None,1.0,2.4372028501238674,511.55865261517465,None,510.3248670180328,None,1.0,3.744337137090042,512.3257161080837,None,510.3248670180328,None,space,0.4905481610912829,3.773203123593703,None,510.3248670180328,None,510.3248670180328,None,,,,,,,,,1,2022_Apr_12_1501,SAR-soap,2021.1.2,59.91871416959168,
30,Trial # 26,Group1-stimuli/group1-block1/real-group1-b1/Group1_IMG_0391.jpg,1,Group1_IMG_0391.jpg,,,,,0.0,25.0,25.0,25.0,,,,,,,,,,,,,,,,,,,,,,,,,,,,,,,,,,,,,514.6268118240405,None,514.6268118240405,None,514.6268118240405,None,3.0,2.293177994899452,514.6268118240405,None,514.6268118240405,None,3.0,4.483961844118312,516.4599331640638,None,514.6268118240405,None,1.0,6.289127851137891,518.6607721180189,None,514.6268118240405,None,space,1.00778214703314,6.315122975734994,None,514.6268118240405,None,514.6268118240405,None,,,,,,,,,1,2022_Apr_12_1501,SAR-soap,2021.1.2,59.91871416959168,
31,Trial # 27,Group1-stimuli/group1-block1/fake-group2-b1/encoded_Group2_IMG_3584.jpg,0,encoded_Group2_IMG_3584.jpg,,,,,0.0,26.0,26.0,26.0,,,,,,,,,,,,,,,,,,,,,,,,,,,,,,,,,,,,,521.9945365001913,None,521.9945365001913,None,521.9945365001913,None,4.0,7.629320100881159,521.9945365001913,None,521.9945365001913,None,5.0,8.418487344868481,529.1645676509943,None,521.9945365001913,None,2.0,10.523161506978797,529.9640935391653,None,521.9945365001913,None,space,0.4610350478906184,10.547073188703507,None,521.9945365001913,None,521.9945365001913,None,,,,,,,,,1,2022_Apr_12_1501,SAR-soap,2021.1.2,59.91871416959168,
32,Trial # 28,Group1-stimuli/group1-block1/fake-group2-b1/encoded_Group2_IMG_0434.jpg,0,encoded_Group2_IMG_0434.jpg,,,,,0.0,27.0,27.0,27.0,,,,,,,,,,,,,,,,,,,,,,,,,,,,,,,,,,,,,533.0320867320988,None,533.0320867320988,None,533.0320867320988,None,6.0,6.143874424044043,533.0320867320988,None,533.0320867320988,None,7.0,5.316573872929439,536.332677278202,None,533.0320867320988,None,6.0,8.054679027060047,537.9004919871222,None,533.0320867320988,None,space,0.8903966131620109,8.0801339908503,None,533.0320867320988,None,533.0320867320988,None,,,,,,,,,1,2022_Apr_12_1501,SAR-soap,2021.1.2,59.91871416959168,
33,Trial # 29,Group1-stimuli/group1-block1/fake-group2-b1/encoded_Group2_IMG_9575.jpg,0,encoded_Group2_IMG_9575.jpg,,,,,0.0,28.0,28.0,28.0,,,,,,,,,,,,,,,,,,,,,,,,,,,,,,,,,,,,,542.0180850261822,None,542.0180850261822,None,542.0180850261822,None,3.0,3.0984235198702663,542.0180850261822,None,542.0180850261822,None,3.0,5.487159206066281,544.6692850561813,None,542.0180850261822,None,1.0,6.526468720054254,547.0695165111683,None,542.0180850261822,None,space,0.7414453260134906,6.555415412643924,None,542.0180850261822,None,542.0180850261822,None,,,,,,,,,1,2022_Apr_12_1501,SAR-soap,2021.1.2,59.91871416959168,
34,Trial # 30,Group1-stimuli/group1-block1/fake-group2-b1/encoded_Group2_IMG_1025.jpg,0,encoded_Group2_IMG_1025.jpg,,,,,0.0,29.0,29.0,29.0,,,,,,,,,,,,,,,,,,,,,,,,,,,,,,,,,,,,,549.3543433861341,None,549.3543433861341,None,549.3543433861341,None,1.0,2.5291527749504894,549.3543433861341,None,549.3543433861341,None,1.0,3.1519613249693066,551.4224419130478,None,549.3543433861341,None,1.0,3.793183275032789,552.0708070870023,None,549.3543433861341,None,space,0.6844812170602381,3.8202892066910863,None,549.3543433861341,None,549.3543433861341,None,,,,,,,,,1,2022_Apr_12_1501,SAR-soap,2021.1.2,59.91871416959168,
35,Trial # 31,Group1-stimuli/group1-block1/real-group1-b1/Group1_IMG_0502.jpg,1,Group1_IMG_0502.jpg,,,,,0.0,30.0,30.0,30.0,,,,,,,,,,,,,,,,,,,,,,,,,,,,,,,,,,,,,553.9052278941963,None,553.9052278941963,None,553.9052278941963,None,5.0,4.4455830252263695,553.9052278941963,None,553.9052278941963,None,7.0,5.868314657825977,557.8911370090209,None,553.9052278941963,None,6.0,7.172841498861089,559.323352567153,None,553.9052278941963,None,space,1.133416558150202,7.199517867760733,None,553.9052278941963,None,553.9052278941963,None,,,,,,,,,1,2022_Apr_12_1501,SAR-soap,2021.1.2,59.91871416959168,
36,Trial # 32,Group1-stimuli/group1-block1/real-group1-b1/Group1_IMG_0182.jpg,1,Group1_IMG_0182.jpg,,,,,0.0,31.0,31.0,31.0,,,,,,,,,,,,,,,,,,,,,,,,,,,,,,,,,,,,,562.2904483810998,None,562.2904483810998,None,562.2904483810998,None,7.0,2.6634319978766143,562.2904483810998,None,562.2904483810998,None,7.0,3.3849078121129423,564.4921829621308,None,562.2904483810998,None,4.0,6.291794737102464,565.225823343033,None,562.2904483810998,None,space,1.2623063100036234,6.317229520529509,None,562.2904483810998,None,562.2904483810998,None,,,,,,,,,1,2022_Apr_12_1501,SAR-soap,2021.1.2,59.91871416959168,
37,Trial # 33,Group1-stimuli/group1-block1/fake-group2-b1/encoded_Group2_IMG_2728.jpg,0,encoded_Group2_IMG_2728.jpg,,,,,0.0,32.0,32.0,32.0,,,,,,,,,,,,,,,,,,,,,,,,,,,,,,,,,,,,,569.8769537350163,None,569.8769537350163,None,569.8769537350163,None,1.0,1.6136453240178523,569.8769537350163,None,569.8769537350163,None,1.0,2.302877116017044,571.0439443769865,None,569.8769537350163,None,1.0,3.5421504341065884,571.7432800051756,None,569.8769537350163,None,space,0.6831142590381205,3.570472929859534,None,569.8769537350163,None,569.8769537350163,None,,,,,,,,,1,2022_Apr_12_1501,SAR-soap,2021.1.2,59.91871416959168,
38,Trial # 34,Group1-stimuli/group1-block1/fake-group2-b1/encoded_Group2_IMG_4867.jpg,0,encoded_Group2_IMG_4867.jpg,,,,,0.0,33.0,33.0,33.0,,,,,,,,,,,,,,,,,,,,,,,,,,,,,,,,,,,,,574.1611559661105,None,574.1611559661105,None,574.1611559661105,None,4.0,6.131807551952079,574.1611559661105,None,574.1611559661105,None,6.0,9.588570482097566,578.5301709740888,None,574.1611559661105,None,5.0,10.360218311892822,582.2136622311082,None,574.1611559661105,None,space,0.859942281851545,10.389244716847315,None,574.1611559661105,None,574.1611559661105,None,,,,,,,,,1,2022_Apr_12_1501,SAR-soap,2021.1.2,59.91871416959168,
39,Trial # 35,Group1-stimuli/group1-block1/real-group1-b1/Group1_IMG_9894.jpg,1,Group1_IMG_9894.jpg,,,,,0.0,34.0,34.0,34.0,,,,,,,,,,,,,,,,,,,,,,,,,,,,,,,,,,,,,585.4481118861586,None,585.4481118861586,None,585.4481118861586,None,1.0,1.5936100778635591,585.4481118861586,None,585.4481118861586,None,1.0,2.133885273942724,586.5666471091099,None,585.4481118861586,None,1.0,2.7069530179724097,587.131230852101,None,585.4481118861586,None,space,0.6734445700421929,2.7329183148685843,None,585.4481118861586,None,585.4481118861586,None,,,,,,,,,1,2022_Apr_12_1501,SAR-soap,2021.1.2,59.91871416959168,
40,Trial # 36,Group1-stimuli/group1-block1/fake-group2-b1/encoded_Group2_IMG_0444.jpg,0,encoded_Group2_IMG_0444.jpg,,,,,0.0,35.0,35.0,35.0,,,,,,,,,,,,,,,,,,,,,,,,,,,,,,,,,,,,,588.8827011149842,None,588.8827011149842,None,588.8827011149842,None,3.0,2.146080748178065,588.8827011149842,None,588.8827011149842,None,2.0,3.735099849058315,590.5827289100271,None,588.8827011149842,None,1.0,4.675445254892111,592.1830887130927,None,588.8827011149842,None,space,0.6392159929964691,4.703453104710206,None,588.8827011149842,None,588.8827011149842,None,,,,,,,,,1,2022_Apr_12_1501,SAR-soap,2021.1.2,59.91871416959168,
41,Trial # 37,Group1-stimuli/group1-block1/real-group1-b1/Group1_IMG_2656.jpg,1,Group1_IMG_2656.jpg,,,,,0.0,36.0,36.0,36.0,,,,,,,,,,,,,,,,,,,,,,,,,,,,,,,,,,,,,594.2684785451274,None,594.2684785451274,None,594.2684785451274,None,1.0,2.045375098939985,594.2684785451274,None,594.2684785451274,None,1.0,2.7683197290170938,595.8686854550615,None,594.2684785451274,None,1.0,3.9418464861810207,596.6010421810206,None,594.2684785451274,None,space,0.7321649789810181,3.9678464359603822,None,594.2684785451274,None,594.2684785451274,None,,,,,,,,,1,2022_Apr_12_1501,SAR-soap,2021.1.2,59.91871416959168,
42,Trial # 38,Group1-stimuli/group1-block1/real-group1-b1/Group1_IMG_0207.jpg,1,Group1_IMG_0207.jpg,,,,,0.0,37.0,37.0,37.0,,,,,,,,,,,,,,,,,,,,,,,,,,,,,,,,,,,,,599.0033802231774,None,599.0033802231774,None,599.0033802231774,None,1.0,1.589798788074404,599.0033802231774,None,599.0033802231774,None,1.0,2.145647862926125,600.1364421320613,None,599.0033802231774,None,1.0,3.3835362738464028,600.7028138430323,None,599.0033802231774,None,space,1.4208353268913925,3.4070478645153344,None,599.0033802231774,None,599.0033802231774,None,,,,,,,,,1,2022_Apr_12_1501,SAR-soap,2021.1.2,59.91871416959168,
43,Trial # 39,Group1-stimuli/group1-block1/real-group1-b1/Group1_IMG_9638.jpg,1,Group1_IMG_9638.jpg,,,,,0.0,38.0,38.0,38.0,,,,,,,,,,,,,,,,,,,,,,,,,,,,,,,,,,,,,603.8714674960356,None,603.8714674960356,None,603.8714674960356,None,4.0,2.874322540126741,603.8714674960356,None,603.8714674960356,None,6.0,4.947631756076589,606.287802281091,None,603.8714674960356,None,5.0,7.087330152979121,608.3730089589953,None,603.8714674960356,None,space,1.7715534339658916,7.109663645969704,None,603.8714674960356,None,603.8714674960356,None,,,,,,,,,1,2022_Apr_12_1501,SAR-soap,2021.1.2,59.91871416959168,
44,Trial # 40,Group1-stimuli/group1-block1/real-group1-b1/Group1_IMG_0148.jpg,1,Group1_IMG_0148.jpg,,,,,0.0,39.0,39.0,39.0,,,,,,,,,,,,,,,,,,,,,,,,,,,,,,,,,,,,,612.8067664590199,None,612.8067664590199,None,612.8067664590199,None,7.0,3.361279470147565,612.8067664590199,None,612.8067664590199,None,6.0,4.952075724024326,615.7078731770162,None,612.8067664590199,None,4.0,8.291187604889274,617.3083867370151,None,612.8067664590199,None,space,2.670210085110739,6.449383421801031,None,612.8067664590199,None,612.8067664590199,None,,,,,,,,,1,2022_Apr_12_1501,SAR-soap,2021.1.2,59.91871416959168,
45,Trial # 41,Group1-stimuli/group1-block1/real-group1-b1/Group1_IMG_2891.jpg,1,Group1_IMG_2891.jpg,,,,,0.0,40.0,40.0,40.0,,,,,,,,,,,,,,,,,,,,,,,,,,,,,,,,,,,,,621.9586204411462,None,621.9586204411462,None,621.9586204411462,None,1.0,1.8622029752004887,621.9586204411462,None,621.9586204411462,None,1.0,2.453128238907084,623.3778006061912,None,621.9586204411462,None,1.0,3.0923051950521767,623.977279975079,None,621.9586204411462,None,space,0.5861625780817121,3.1183535447344184,None,621.9586204411462,None,621.9586204411462,None,,,,,,,,,1,2022_Apr_12_1501,SAR-soap,2021.1.2,59.91871416959168,
46,Trial # 42,Group1-stimuli/group1-block1/real-group1-b1/Group1_IMG_0157.jpg,1,Group1_IMG_0157.jpg,,,,,0.0,41.0,41.0,41.0,,,,,,,,,,,,,,,,,,,,,,,,,,,,,,,,,,,,,625.7104062791914,None,625.7104062791914,None,625.7104062791914,None,4.0,3.393769653979689,625.7104062791914,None,625.7104062791914,None,6.0,4.91619660705328,628.6456117811613,None,625.7104062791914,None,5.0,6.721300320932642,630.1782977601979,None,625.7104062791914,None,space,0.4825012688525021,6.746755382977426,None,625.7104062791914,None,625.7104062791914,None,,,,,,,,,1,2022_Apr_12_1501,SAR-soap,2021.1.2,59.91871416959168,
47,Trial # 43,Group1-stimuli/group1-block1/real-group1-b1/Group1_IMG_9833.jpg,1,Group1_IMG_9833.jpg,,,,,0.0,42.0,42.0,42.0,,,,,,,,,,,,,,,,,,,,,,,,,,,,,,,,,,,,,632.9801128311083,None,632.9801128311083,None,632.9801128311083,None,1.0,2.244276162935421,632.9801128311083,None,632.9801128311083,None,1.0,3.31674069003202,634.7633890882134,None,632.9801128311083,None,1.0,4.35616749804467,635.846511232201,None,632.9801128311083,None,space,0.988479099003598,4.381163629936054,None,632.9801128311083,None,632.9801128311083,None,,,,,,,,,1,2022_Apr_12_1501,SAR-soap,2021.1.2,59.91871416959168,
48,Trial # 44,Group1-stimuli/group1-block1/fake-group2-b1/encoded_Group2_IMG_2230.jpg,0,encoded_Group2_IMG_2230.jpg,,,,,0.0,43.0,43.0,43.0,,,,,,,,,,,,,,,,,,,,,,,,,,,,,,,,,,,,,638.3649125031661,None,638.3649125031661,None,638.3649125031661,None,5.0,4.081087290076539,638.3649125031661,None,638.3649125031661,None,4.0,5.337812162004411,641.9995423490182,None,638.3649125031661,None,4.0,7.277268722187728,643.2669216091745,None,638.3649125031661,None,space,1.4872030860278755,6.471899265889078,None,638.3649125031661,None,638.3649125031661,None,,,,,,,,,1,2022_Apr_12_1501,SAR-soap,2021.1.2,59.91871416959168,
49,Trial # 45,Group1-stimuli/group1-block1/real-group1-b1/Group1_IMG_9966.jpg,1,Group1_IMG_9966.jpg,,,,,0.0,44.0,44.0,44.0,,,,,,,,,,,,,,,,,,,,,,,,,,,,,,,,,,,,,646.3671127881389,None,646.3671127881389,None,646.3671127881389,None,3.0,2.975403605028987,646.3671127881389,None,646.3671127881389,None,5.0,4.4303480559028685,648.8856247751974,None,646.3671127881389,None,5.0,7.303159880917519,650.3514677800704,None,646.3671127881389,None,space,0.8265433080960065,7.325100098969415,None,646.3671127881389,None,646.3671127881389,None,,,,,,,,,1,2022_Apr_12_1501,SAR-soap,2021.1.2,59.91871416959168,
50,Trial # 46,Group1-stimuli/group1-block1/real-group1-b1/Group1_IMG_0239.jpg,1,Group1_IMG_0239.jpg,,,,,0.0,45.0,45.0,45.0,,,,,,,,,,,,,,,,,,,,,,,,,,,,,,,,,,,,,654.5531929370482,None,654.5531929370482,None,654.5531929370482,None,1.0,2.011317319003865,654.5531929370482,None,654.5531929370482,None,1.0,3.1331998188979924,656.1042967450339,None,654.5531929370482,None,1.0,3.806441054912284,657.2367045159917,None,654.5531929370482,None,space,0.7726312140002847,3.8323175255209208,None,654.5531929370482,None,654.5531929370482,None,,,,,,,,,1,2022_Apr_12_1501,SAR-soap,2021.1.2,59.91871416959168,
51,Trial # 47,Group1-stimuli/group1-block1/fake-group2-b1/encoded_Group2_IMG_0536.jpg,0,encoded_Group2_IMG_0536.jpg,,,,,0.0,46.0,46.0,46.0,,,,,,,,,,,,,,,,,,,,,,,,,,,,,,,,,,,,,659.1874338330235,None,659.1874338330235,None,659.1874338330235,None,1.0,1.7463491610251367,659.1874338330235,None,659.1874338330235,None,1.0,2.335664914920926,660.4877951210365,None,659.1874338330235,None,1.0,2.940889415796846,661.088005052181,None,659.1874338330235,None,space,0.5335772638209164,2.970002015819773,None,659.1874338330235,None,659.1874338330235,None,,,,,,,,,1,2022_Apr_12_1501,SAR-soap,2021.1.2,59.91871416959168,
52,Trial # 48,Group1-stimuli/group1-block1/fake-group2-b1/encoded_Group2_IMG_0521.jpg,0,encoded_Group2_IMG_0521.jpg,,,,,0.0,47.0,47.0,47.0,,,,,,,,,,,,,,,,,,,,,,,,,,,,,,,,,,,,,662.7396799142007,None,662.7396799142007,None,662.7396799142007,None,3.0,3.6653370000422,662.7396799142007,None,662.7396799142007,None,4.0,8.072673740098253,665.040076729143,None,662.7396799142007,None,4.0,8.87741487310268,670.3740825802088,None,662.7396799142007,None,space,0.7030265280045569,8.906403792556375,None,662.7396799142007,None,662.7396799142007,None,,,,,,,,,1,2022_Apr_12_1501,SAR-soap,2021.1.2,59.91871416959168,
53,Trial # 49,Group1-stimuli/group1-block1/fake-group2-b1/encoded_Group2_IMG_9924.jpg,0,encoded_Group2_IMG_9924.jpg,,,,,0.0,48.0,48.0,48.0,,,,,,,,,,,,,,,,,,,,,,,,,,,,,,,,,,,,,672.3907990211155,None,672.3907990211155,None,672.3907990211155,None,1.0,1.5969738259445876,672.3907990211155,None,672.3907990211155,None,1.0,2.253153685014695,673.5436360321473,None,672.3907990211155,None,1.0,3.4920939980074763,674.2095887321047,None,672.3907990211155,None,space,0.7150712569709867,3.519655223703012,None,672.3907990211155,None,672.3907990211155,None,,,,,,,,,1,2022_Apr_12_1501,SAR-soap,2021.1.2,59.91871416959168,
54,Trial # 50,Group1-stimuli/group1-block1/real-group1-b1/Group1_IMG_9730.jpg,1,Group1_IMG_9730.jpg,,,,,0.0,49.0,49.0,49.0,,,,,,,,,,,,,,,,,,,,,,,,,,,,,,,,,,,,,676.6764892020728,None,676.6764892020728,None,676.6764892020728,None,6.0,7.063148804940283,676.6764892020728,None,676.6764892020728,None,5.0,10.552851756801829,683.2800249261782,None,676.6764892020728,None,3.0,15.0916185809765,686.7791979811154,None,676.6764892020728,None,space,2.5098887509666383,12.851174547569826,None,676.6764892020728,None,676.6764892020728,None,,,,,,,,,1,2022_Apr_12_1501,SAR-soap,2021.1.2,59.91871416959168,
55,Trial # 51,Group1-stimuli/group1-block1/real-group1-b1/Group1_IMG_0053.jpg,1,Group1_IMG_0053.jpg,,,,,0.0,50.0,50.0,50.0,,,,,,,,,,,,,,,,,,,,,,,,,,,,,,,,,,,,,692.0802415681537,None,692.0802415681537,None,692.0802415681537,None,1.0,1.5619199441280216,692.0802415681537,None,692.0802415681537,None,1.0,2.2839851770550013,693.1825189730152,None,692.0802415681537,None,1.0,2.9565298438537866,693.9155007670633,None,692.0802415681537,None,space,0.2951584910042584,2.9826776906847954,None,692.0802415681537,None,692.0802415681537,None,,,,,,,,,1,2022_Apr_12_1501,SAR-soap,2021.1.2,59.91871416959168,
56,Trial # 52,Group1-stimuli/group1-block1/real-group1-b1/Group1_IMG_9698.jpg,1,Group1_IMG_9698.jpg,,,,,0.0,51.0,51.0,51.0,,,,,,,,,,,,,,,,,,,,,,,,,,,,,,,,,,,,,695.3823974761181,None,695.3823974761181,None,695.3823974761181,None,1.0,2.160257807932794,695.3823974761181,None,695.3823974761181,None,1.0,2.783884949050844,697.0823941631243,None,695.3823974761181,None,1.0,3.356484776129946,697.7171255070716,None,695.3823974761181,None,space,0.3702118620276451,3.381565195741132,None,695.3823974761181,None,695.3823974761181,None,,,,,,,,,1,2022_Apr_12_1501,SAR-soap,2021.1.2,59.91871416959168,
57,Trial # 53,Group1-stimuli/group1-block1/fake-group2-b1/encoded_Group2_IMG_0553.jpg,0,encoded_Group2_IMG_0553.jpg,,,,,0.0,52.0,52.0,52.0,,,,,,,,,,,,,,,,,,,,,,,,,,,,,,,,,,,,,699.1664498930331,None,699.1664498930331,None,699.1664498930331,None,1.0,1.9978553319815544,699.1664498930331,None,699.1664498930331,None,1.0,2.6709751789458096,700.7180067931768,None,699.1664498930331,None,1.0,3.7096308078616858,701.4002513310406,None,699.1664498930331,None,space,0.4030055399052799,3.738615086534992,None,699.1664498930331,None,699.1664498930331,None,,,,,,,,,1,2022_Apr_12_1501,SAR-soap,2021.1.2,59.91871416959168,
58,Trial # 54,Group1-stimuli/group1-block1/fake-group2-b1/encoded_Group2_IMG_9758.jpg,0,encoded_Group2_IMG_9758.jpg,,,,,0.0,53.0,53.0,53.0,,,,,,,,,,,,,,,,,,,,,,,,,,,,,,,,,,,,,703.3519299831241,None,703.3519299831241,None,703.3519299831241,None,5.0,2.0632856090087444,703.3519299831241,None,703.3519299831241,None,3.0,4.569358455948532,704.9697787771001,None,703.3519299831241,None,3.0,6.375728957122192,707.4859776690137,None,703.3519299831241,None,space,0.8712867109570652,6.403285740641877,None,703.3519299831241,None,703.3519299831241,None,,,,,,,,,1,2022_Apr_12_1501,SAR-soap,2021.1.2,59.91871416959168,
59,Trial # 55,Group1-stimuli/group1-block1/fake-group2-b1/encoded_Group2_IMG_0339.jpg,0,encoded_Group2_IMG_0339.jpg,,,,,0.0,54.0,54.0,54.0,,,,,,,,,,,,,,,,,,,,,,,,,,,,,,,,,,,,,710.6696747061796,None,710.6696747061796,None,710.6696747061796,None,1.0,1.9469361519441009,710.6696747061796,None,710.6696747061796,None,1.0,2.638477652100846,712.1703346231952,None,710.6696747061796,None,1.0,3.410487161949277,712.8708795281127,None,710.6696747061796,None,space,0.6551248761825264,3.438919124891981,None,710.6696747061796,None,710.6696747061796,None,,,,,,,,,1,2022_Apr_12_1501,SAR-soap,2021.1.2,59.91871416959168,
60,Trial # 56,Group1-stimuli/group1-block1/real-group1-b1/Group1_IMG_0314.jpg,1,Group1_IMG_0314.jpg,,,,,0.0,55.0,55.0,55.0,,,,,,,,,,,,,,,,,,,,,,,,,,,,,,,,,,,,,714.7885696501471,None,714.7885696501471,None,714.7885696501471,None,1.0,1.5451211270410568,714.7885696501471,None,714.7885696501471,None,1.0,2.167613188968972,715.889169289032,None,714.7885696501471,None,1.0,2.8722730719018728,716.5223912440706,None,714.7885696501471,None,space,0.5036653750576079,2.899097007932141,None,714.7885696501471,None,714.7885696501471,None,,,,,,,,,1,2022_Apr_12_1501,SAR-soap,2021.1.2,59.91871416959168,
61,Trial # 57,Group1-stimuli/group1-block1/fake-group2-b1/encoded_Group2_IMG_0532.jpg,0,encoded_Group2_IMG_0532.jpg,,,,,0.0,56.0,56.0,56.0,,,,,,,,,,,,,,,,,,,,,,,,,,,,,,,,,,,,,718.2402602490038,None,718.2402602490038,None,718.2402602490038,None,4.0,2.8972792918793857,718.2402602490038,None,718.2402602490038,None,5.0,4.972115729935467,720.6902344101109,None,718.2402602490038,None,3.0,7.54298378713429,722.7747649091762,None,718.2402602490038,None,space,0.7510258180554956,7.572189547820017,None,718.2402602490038,None,718.2402602490038,None,,,,,,,,,1,2022_Apr_12_1501,SAR-soap,2021.1.2,59.91871416959168,
62,Trial # 58,Group1-stimuli/group1-block1/fake-group2-b1/encoded_Group2_IMG_0462.jpg,0,encoded_Group2_IMG_0462.jpg,,,,,0.0,57.0,57.0,57.0,,,,,,,,,,,,,,,,,,,,,,,,,,,,,,,,,,,,,726.5917489700951,None,726.5917489700951,None,726.5917489700951,None,4.0,2.648512616986409,726.5917489700951,None,726.5917489700951,None,5.0,5.321786110056564,728.7928905661684,None,726.5917489700951,None,3.0,6.595251597929746,731.4773842040449,None,726.5917489700951,None,space,0.8375319261103868,6.623108635656536,None,726.5917489700951,None,726.5917489700951,None,,,,,,,,,1,2022_Apr_12_1501,SAR-soap,2021.1.2,59.91871416959168,
63,Trial # 59,Group1-stimuli/group1-block1/real-group1-b1/Group1_IMG_0172.jpg,1,Group1_IMG_0172.jpg,,,,,0.0,58.0,58.0,58.0,,,,,,,,,,,,,,,,,,,,,,,,,,,,,,,,,,,,,734.110583470203,None,734.110583470203,None,734.110583470203,None,1.0,1.5443292241543531,734.110583470203,None,734.110583470203,None,1.0,2.2337527689523995,735.1944662241731,None,734.110583470203,None,1.0,2.8717990089207888,735.8946178359911,None,734.110583470203,None,space,0.5093942219391465,2.898270886624232,None,734.110583470203,None,734.110583470203,None,,,,,,,,,1,2022_Apr_12_1501,SAR-soap,2021.1.2,59.91871416959168,
64,Trial # 60,Group1-stimuli/group1-block1/real-group1-b1/Group1_IMG_4841.jpg,1,Group1_IMG_4841.jpg,,,,,0.0,59.0,59.0,59.0,,,,,,,,,,,,,,,,,,,,,,,,,,,,,,,,,,,,,737.5442339901347,None,737.5442339901347,None,737.5442339901347,None,4.0,112.56329837813972,737.5442339901347,None,737.5442339901347,None,5.0,115.7372305910103,849.6629863381386,None,737.5442339901347,None,4.0,116.94314227206632,852.8485816121101,None,737.5442339901347,None,space,1.6696100349072367,116.9686844306998,None,737.5442339901347,None,737.5442339901347,None,,,,,,,,,1,2022_Apr_12_1501,SAR-soap,2021.1.2,59.91871416959168,
65,Trial # 61,Group1-stimuli/group1-block1/fake-group2-b1/encoded_Group2_IMG_0352.jpg,0,encoded_Group2_IMG_0352.jpg,,,,,0.0,60.0,60.0,60.0,,,,,,,,,,,,,,,,,,,,,,,,,,,,,,,,,,,,,856.2317221271805,None,856.2317221271805,None,856.2317221271805,None,1.0,2.3149804600980133,856.2317221271805,None,856.2317221271805,None,1.0,2.837844219990074,858.0997494421899,None,856.2317221271805,None,1.0,3.5439883039798588,858.6334900490474,None,856.2317221271805,None,space,1.0962048459332436,3.572534951614216,None,856.2317221271805,None,856.2317221271805,None,,,,,,,,,1,2022_Apr_12_1501,SAR-soap,2021.1.2,59.91871416959168,
66,Trial # 62,Group1-stimuli/group1-block1/fake-group2-b1/encoded_Group2_IMG_9726.jpg,0,encoded_Group2_IMG_9726.jpg,,,,,0.0,61.0,61.0,61.0,,,,,,,,,,,,,,,,,,,,,,,,,,,,,,,,,,,,,860.9162461841479,None,860.9162461841479,None,860.9162461841479,None,6.0,2.7817374859005213,860.9162461841479,None,860.9162461841479,None,5.0,6.021020034095272,863.251040606061,None,860.9162461841479,None,4.0,8.89338486106135,866.5019237501547,None,860.9162461841479,None,space,2.117210706928745,7.289528137771413,None,860.9162461841479,None,860.9162461841479,None,,,,,,,,,1,2022_Apr_12_1501,SAR-soap,2021.1.2,59.91871416959168,
67,Trial # 63,Group1-stimuli/group1-block1/fake-group2-b1/encoded_Group2_IMG_9785.jpg,0,encoded_Group2_IMG_9785.jpg,,,,,0.0,62.0,62.0,62.0,,,,,,,,,,,,,,,,,,,,,,,,,,,,,,,,,,,,,870.3525612021331,None,870.3525612021331,None,870.3525612021331,None,2.0,5.664699319051579,870.3525612021331,None,870.3525612021331,None,3.0,8.721997282933444,873.0545143000782,None,870.3525612021331,None,2.0,9.72721451614052,878.6392845371738,None,870.3525612021331,None,space,0.6545959289651364,9.753848836757244,None,870.3525612021331,None,870.3525612021331,None,,,,,,,,,1,2022_Apr_12_1501,SAR-soap,2021.1.2,59.91871416959168,
68,Trial # 64,Group1-stimuli/group1-block1/fake-group2-b1/encoded_Group2_IMG_0440.jpg,0,encoded_Group2_IMG_0440.jpg,,,,,0.0,63.0,63.0,63.0,,,,,,,,,,,,,,,,,,,,,,,,,,,,,,,,,,,,,880.7890207120217,None,880.7890207120217,None,880.7890207120217,None,6.0,2.830514940898865,880.7890207120217,None,880.7890207120217,None,4.0,6.653942637145519,883.1740768740419,None,880.7890207120217,None,3.0,11.727849635994062,887.0074952139985,None,880.7890207120217,None,space,6.161274150013924,11.756185195874425,None,880.7890207120217,None,880.7890207120217,None,,,,,,,,,1,2022_Apr_12_1501,SAR-soap,2021.1.2,59.91871416959168,
69,Trial # 65,Group1-stimuli/group1-block1/fake-group2-b1/encoded_Group2_IMG_1695.jpg,0,encoded_Group2_IMG_1695.jpg,,,,,0.0,64.0,64.0,64.0,,,,,,,,,,,,,,,,,,,,,,,,,,,,,,,,,,,,,898.7288226361852,None,898.7288226361852,None,898.7288226361852,None,1.0,1.9655813889112324,898.7288226361852,None,898.7288226361852,None,1.0,2.7207881659269333,900.2455157060176,None,898.7288226361852,None,1.0,3.3256987258791924,901.0125310590956,None,898.7288226361852,None,space,1.9614492419641465,3.355627737706527,None,898.7288226361852,None,898.7288226361852,None,,,,,,,,,1,2022_Apr_12_1501,SAR-soap,2021.1.2,59.91871416959168,
70,Trial # 66,Group1-stimuli/group1-block1/real-group1-b1/Group1_IMG_0552.jpg,1,Group1_IMG_0552.jpg,,,,,0.0,65.0,65.0,65.0,,,,,,,,,,,,,,,,,,,,,,,,,,,,,,,,,,,,,904.063595547108,None,904.063595547108,None,904.063595547108,None,1.0,2.279036137042567,904.063595547108,None,904.063595547108,None,1.0,2.968328804941848,905.8966249839868,None,904.063595547108,None,1.0,3.672865654109046,906.5974445410538,None,904.063595547108,None,space,0.660730411997065,3.6993267897050823,None,904.063595547108,None,904.063595547108,None,,,,,,,,,1,2022_Apr_12_1501,SAR-soap,2021.1.2,59.91871416959168,
71,Trial # 67,Group1-stimuli/group1-block1/real-group1-b1/Group1_IMG_1029.jpg,1,Group1_IMG_1029.jpg,,,,,0.0,66.0,66.0,66.0,,,,,,,,,,,,,,,,,,,,,,,,,,,,,,,,,,,,,908.4645215622148,None,908.4645215622148,None,908.4645215622148,None,3.0,4.144868463044986,908.4645215622148,None,908.4645215622148,None,4.0,5.401401817798615,912.1486444820184,None,908.4645215622148,None,3.0,6.84010131796822,913.4162222521844,None,908.4645215622148,None,space,1.939664216944948,6.865987224737182,None,908.4645215622148,None,908.4645215622148,None,,,,,,,,,1,2022_Apr_12_1501,SAR-soap,2021.1.2,59.91871416959168,
72,Trial # 68,Group1-stimuli/group1-block1/fake-group2-b1/encoded_Group2_IMG_6517.jpg,0,encoded_Group2_IMG_6517.jpg,,,,,0.0,67.0,67.0,67.0,,,,,,,,,,,,,,,,,,,,,,,,,,,,,,,,,,,,,917.2997647011651,None,917.2997647011651,None,917.2997647011651,None,1.0,1.7991587070282549,917.2997647011651,None,917.2997647011651,None,1.0,2.421425073873252,918.6513280451765,None,917.2997647011651,None,1.0,3.126555145950988,919.2853675691877,None,917.2997647011651,None,space,0.7561221241485327,3.155915348557756,None,917.2997647011651,None,917.2997647011651,None,,,,,,,,,1,2022_Apr_12_1501,SAR-soap,2021.1.2,59.91871416959168,
73,Trial # 69,Group1-stimuli/group1-block1/fake-group2-b1/encoded_Group2_IMG_0002.jpg,0,encoded_Group2_IMG_0002.jpg,,,,,0.0,68.0,68.0,68.0,,,,,,,,,,,,,,,,,,,,,,,,,,,,,,,,,,,,,921.2348778750747,None,921.2348778750747,None,921.2348778750747,None,3.0,2.0978699380066246,921.2348778750747,None,921.2348778750747,None,3.0,13.0406488601584,922.887187377084,None,921.2348778750747,None,4.0,17.08077788213268,931.0718631360214,None,921.2348778750747,None,space,1.4115256068762392,17.108378423610702,None,921.2348778750747,None,921.2348778750747,None,,,,,,,,,1,2022_Apr_12_1501,SAR-soap,2021.1.2,59.91871416959168,
74,Trial # 70,Group1-stimuli/group1-block1/real-group1-b1/Group1_IMG_0495.jpg,1,Group1_IMG_0495.jpg,,,,,0.0,69.0,69.0,69.0,,,,,,,,,,,,,,,,,,,,,,,,,,,,,,,,,,,,,939.8072485800368,None,939.8072485800368,None,939.8072485800368,None,1.0,2.1270834859460592,939.8072485800368,None,939.8072485800368,None,1.0,2.7830618820153177,941.4746409191284,None,939.8072485800368,None,1.0,3.688788401894272,942.14139336301,None,939.8072485800368,None,space,0.6584211259614676,3.7135659547057,None,939.8072485800368,None,939.8072485800368,None,,,,,,,,,1,2022_Apr_12_1501,SAR-soap,2021.1.2,59.91871416959168,
75,Trial # 71,Group1-stimuli/group1-block1/real-group1-b1/Group1_IMG_1391.jpg,1,Group1_IMG_1391.jpg,,,,,0.0,70.0,70.0,70.0,,,,,,,,,,,,,,,,,,,,,,,,,,,,,,,,,,,,,944.1923051620834,None,944.1923051620834,None,944.1923051620834,None,3.0,3.996207968797535,944.1923051620834,None,944.1923051620834,None,4.0,5.951164969010279,946.892738891067,None,944.1923051620834,None,5.0,7.224317824002355,949.7104942521546,None,944.1923051620834,None,space,0.6998529771808535,7.249949130928144,None,944.1923051620834,None,944.1923051620834,None,,,,,,,,,1,2022_Apr_12_1501,SAR-soap,2021.1.2,59.91871416959168,
76,Trial # 72,Group1-stimuli/group1-block1/real-group1-b1/Group1_IMG_0343.jpg,1,Group1_IMG_0343.jpg,,,,,0.0,71.0,71.0,71.0,,,,,,,,,,,,,,,,,,,,,,,,,,,,,,,,,,,,,952.1780052401592,None,952.1780052401592,None,952.1780052401592,None,1.0,1.5459264949895442,952.1780052401592,None,952.1780052401592,None,1.0,2.1335961800068617,953.2628513542004,None,952.1780052401592,None,1.0,2.8411347640212625,953.8625205091666,None,952.1780052401592,None,space,1.8908792547881603,2.865748317912221,None,952.1780052401592,None,952.1780052401592,None,,,,,,,,,1,2022_Apr_12_1501,SAR-soap,2021.1.2,59.91871416959168,
77,Trial # 73,Group1-stimuli/group1-block1/fake-group2-b1/encoded_Group2_IMG_9810.jpg,0,encoded_Group2_IMG_9810.jpg,,,,,0.0,72.0,72.0,72.0,,,,,,,,,,,,,,,,,,,,,,,,,,,,,,,,,,,,,956.946276552044,None,956.946276552044,None,956.946276552044,None,1.0,1.6480818160343915,956.946276552044,None,956.946276552044,None,1.0,2.235940031008795,958.1479217950256,None,956.946276552044,None,1.0,2.842807463835925,958.7476659591777,None,956.946276552044,None,space,1.0174880539998412,2.8713936277199537,None,956.946276552044,None,956.946276552044,None,,,,,,,,,1,2022_Apr_12_1501,SAR-soap,2021.1.2,59.91871416959168,
78,Trial # 74,Group1-stimuli/group1-block1/fake-group2-b1/encoded_Group2_IMG_5900.jpg,0,encoded_Group2_IMG_5900.jpg,,,,,0.0,73.0,73.0,73.0,,,,,,,,,,,,,,,,,,,,,,,,,,,,,,,,,,,,,960.8809995900374,None,960.8809995900374,None,960.8809995900374,None,1.0,3.5121026339475065,960.8809995900374,None,960.8809995900374,None,1.0,9.734812014969066,963.9327420271002,None,960.8809995900374,None,1.0,8.773557844106108,966.7658226001076,None,960.8809995900374,None,space,2.486146051902324,7.765925480052829,None,960.8809995900374,None,960.8809995900374,None,,,,,,,,,1,2022_Apr_12_1501,SAR-soap,2021.1.2,59.91871416959168,
79,Trial # 75,Group1-stimuli/group1-block1/real-group1-b1/Group1_IMG_9679.jpg,1,Group1_IMG_9679.jpg,,,,,0.0,74.0,74.0,74.0,,,,,,,,,,,,,,,,,,,,,,,,,,,,,,,,,,,,,971.150557388086,None,971.150557388086,None,971.150557388086,None,1.0,1.9960407388862225,971.150557388086,None,971.150557388086,None,1.0,3.218900434905663,972.70174710406,None,971.150557388086,None,1.0,4.590170769952238,973.9356929291972,None,971.150557388086,None,space,1.015787994954735,4.6164673895109445,None,971.150557388086,None,971.150557388086,None,,,,,,,,,1,2022_Apr_12_1501,SAR-soap,2021.1.2,59.91871416959168,
80,Trial # 76,Group1-stimuli/group1-block1/fake-group2-b1/encoded_Group2_IMG_4249.jpg,0,encoded_Group2_IMG_4249.jpg,,,,,0.0,75.0,75.0,75.0,,,,,,,,,,,,,,,,,,,,,,,,,,,,,,,,,,,,,976.8191267671064,None,976.8191267671064,None,976.8191267671064,None,6.0,2.98221740196459,976.8191267671064,None,976.8191267671064,None,7.0,4.970705432118848,979.3536699400285,None,976.8191267671064,None,4.0,6.744954002089799,981.3530643831472,None,976.8191267671064,None,space,1.1558456919156015,6.773060585837811,None,976.8191267671064,None,976.8191267671064,None,,,,,,,,,1,2022_Apr_12_1501,SAR-soap,2021.1.2,59.91871416959168,
81,Trial # 77,Group1-stimuli/group1-block1/fake-group2-b1/encoded_Group2_IMG_0174.jpg,0,encoded_Group2_IMG_0174.jpg,,,,,0.0,76.0,76.0,76.0,,,,,,,,,,,,,,,,,,,,,,,,,,,,,,,,,,,,,984.7721067441162,None,984.7721067441162,None,984.7721067441162,None,1.0,5.299078036099672,984.7721067441162,None,984.7721067441162,None,2.0,7.805247921962291,987.0223570310044,None,984.7721067441162,None,2.0,9.278158627916127,992.1398863261566,None,984.7721067441162,None,space,1.5571555418428034,9.307746670907363,None,984.7721067441162,None,984.7721067441162,None,,,,,,,,,1,2022_Apr_12_1501,SAR-soap,2021.1.2,59.91871416959168,
82,Trial # 78,Group1-stimuli/group1-block1/fake-group2-b1/encoded_Group2_IMG_0475.jpg,0,encoded_Group2_IMG_0475.jpg,,,,,0.0,77.0,77.0,77.0,,,,,,,,,,,,,,,,,,,,,,,,,,,,,,,,,,,,,995.657817860134,None,995.657817860134,None,995.657817860134,None,1.0,2.4816104031633586,995.657817860134,None,995.657817860134,None,1.0,3.570357312913984,997.6933334220666,None,995.657817860134,None,1.0,4.409686221042648,998.7931405100971,None,995.657817860134,None,space,0.9792768710758536,4.438270126935095,None,995.657817860134,None,995.657817860134,None,,,,,,,,,1,2022_Apr_12_1501,SAR-soap,2021.1.2,59.91871416959168,
83,Trial # 79,Group1-stimuli/group1-block1/fake-group2-b1/encoded_Group2_IMG_9751.jpg,0,encoded_Group2_IMG_9751.jpg,,,,,0.0,78.0,78.0,78.0,,,,,,,,,,,,,,,,,,,,,,,,,,,,,,,,,,,,,1001.1092675949913,None,1001.1092675949913,None,1001.1092675949913,None,2.0,10.150983299827203,1001.1092675949913,None,1001.1092675949913,None,4.0,11.55581065104343,1010.1298871901818,None,1001.1092675949913,None,4.0,13.42991178901866,1012.22942603915,None,1001.1092675949913,None,space,0.5240577307995409,13.4575597809162,None,1001.1092675949913,None,1001.1092675949913,None,,,,,,,,,1,2022_Apr_12_1501,SAR-soap,2021.1.2,59.91871416959168,
84,Trial # 80,Group1-stimuli/group1-block1/fake-group2-b1/encoded_Group2_IMG_0492.jpg,0,encoded_Group2_IMG_0492.jpg,,,,,0.0,79.0,79.0,79.0,,,,,,,,,,,,,,,,,,,,,,,,,,,,,,,,,,,,,1015.1139319629874,None,1015.1139319629874,None,1015.1139319629874,None,1.0,2.163939271820709,1015.1139319629874,None,1015.1139319629874,None,1.0,2.954042261000722,1016.8314954279922,None,1015.1139319629874,None,1.0,3.893612310988829,1017.6306213249918,None,1015.1139319629874,None,space,0.8482709990348667,3.920837517827749,None,1015.1139319629874,None,1015.1139319629874,None,,,,,,,,,1,2022_Apr_12_1501,SAR-soap,2021.1.2,59.91871416959168,
85,Trial # 81,Group1-stimuli/group1-block1/real-group1-b1/Group1_IMG_0535.jpg,1,Group1_IMG_0535.jpg,,,,,0.0,80.0,80.0,80.0,,,,,,,,,,,,,,,,,,,,,,,,,,,,,,,,,,,,,1019.9159941221588,None,1019.9159941221588,None,1019.9159941221588,None,2.0,6.21372218686156,1019.9159941221588,None,1019.9159941221588,None,2.0,7.369652758119628,1025.683690401027,None,1019.9159941221588,None,1.0,8.276438454864547,1026.850341234123,None,1019.9159941221588,None,space,1.3175900138448924,8.3018217056524,None,1019.9159941221588,None,1019.9159941221588,None,,,,,,,,,1,2022_Apr_12_1501,SAR-soap,2021.1.2,59.91871416959168,
86,Trial # 82,Group1-stimuli/group1-block1/real-group1-b1/Group1_IMG_0077.jpg,1,Group1_IMG_0077.jpg,,,,,0.0,81.0,81.0,81.0,,,,,,,,,,,,,,,,,,,,,,,,,,,,,,,,,,,,,1029.585302947089,None,1029.585302947089,None,1029.585302947089,None,4.0,3.3117219789419323,1029.585302947089,None,1029.585302947089,None,6.0,5.70145538286306,1032.4361051700544,None,1029.585302947089,None,5.0,6.774037839146331,1034.2706425511278,None,1029.585302947089,None,space,0.8849815158173442,6.799806131748483,None,1029.585302947089,None,1029.585302947089,None,,,,,,,,,1,2022_Apr_12_1501,SAR-soap,2021.1.2,59.91871416959168,
87,Trial # 83,Group1-stimuli/group1-block1/fake-group2-b1/encoded_Group2_IMG_9702.jpg,0,encoded_Group2_IMG_9702.jpg,,,,,0.0,82.0,82.0,82.0,,,,,,,,,,,,,,,,,,,,,,,,,,,,,,,,,,,,,1037.2869705331975,None,1037.2869705331975,None,1037.2869705331975,None,1.0,1.9478867701254785,1037.2869705331975,None,1037.2869705331975,None,1.0,2.8369169149082154,1038.789378460031,None,1037.2869705331975,None,1.0,3.942003810079768,1039.6887893071398,None,1037.2869705331975,None,space,0.9372127589304,3.969609808875248,None,1037.2869705331975,None,1037.2869705331975,None,,,,,,,,,1,2022_Apr_12_1501,SAR-soap,2021.1.2,59.91871416959168,
88,Trial # 84,Group1-stimuli/group1-block1/real-group1-b1/Group1_IMG_0357.jpg,1,Group1_IMG_0357.jpg,,,,,0.0,83.0,83.0,83.0,,,,,,,,,,,,,,,,,,,,,,,,,,,,,,,,,,,,,1042.239442005055,None,1042.239442005055,None,1042.239442005055,None,1.0,2.112862983951345,1042.239442005055,None,1042.239442005055,None,1.0,3.136476048035547,1043.9069442041218,None,1042.239442005055,None,1.0,4.608989339089021,1044.9401612931397,None,1042.239442005055,None,space,0.677956597879529,4.635654059937224,None,1042.239442005055,None,1042.239442005055,None,,,,,,,,,1,2022_Apr_12_1501,SAR-soap,2021.1.2,59.91871416959168,
89,Trial # 85,Group1-stimuli/group1-block1/real-group1-b1/Group1_IMG_9772.jpg,1,Group1_IMG_9772.jpg,,,,,0.0,84.0,84.0,84.0,,,,,,,,,,,,,,,,,,,,,,,,,,,,,,,,,,,,,1047.6077869751025,None,1047.6077869751025,None,1047.6077869751025,None,5.0,2.31243264884688,1047.6077869751025,None,1047.6077869751025,None,4.0,6.753373598912731,1049.458141448209,None,1047.6077869751025,None,5.0,14.7599175630603,1053.9103414181154,None,1047.6077869751025,None,space,5.502008060924709,9.817776422714816,None,1047.6077869751025,None,1047.6077869751025,None,,,,,,,,,1,2022_Apr_12_1501,SAR-soap,2021.1.2,59.91871416959168,
90,Trial # 86,Group1-stimuli/group1-block1/real-group1-b1/Group1_IMG_0482.jpg,1,Group1_IMG_0482.jpg,,,,,0.0,85.0,85.0,85.0,,,,,,,,,,,,,,,,,,,,,,,,,,,,,,,,,,,,,1062.9630783570465,None,1062.9630783570465,None,1062.9630783570465,None,1.0,2.062007039086893,1062.9630783570465,None,1062.9630783570465,None,1.0,3.018691470148042,1064.58020814904,None,1062.9630783570465,None,1.0,4.423517246963456,1065.5467922061216,None,1062.9630783570465,None,space,0.858899594983086,4.449440549593419,None,1062.9630783570465,None,1062.9630783570465,None,,,,,,,,,1,2022_Apr_12_1501,SAR-soap,2021.1.2,59.91871416959168,
91,Trial # 87,Group1-stimuli/group1-block1/real-group1-b1/Group1_IMG_0299.jpg,1,Group1_IMG_0299.jpg,,,,,0.0,86.0,86.0,86.0,,,,,,,,,,,,,,,,,,,,,,,,,,,,,,,,,,,,,1068.3144940931816,None,1068.3144940931816,None,1068.3144940931816,None,6.0,2.8276848918758333,1068.3144940931816,None,1068.3144940931816,None,7.0,5.384546215180308,1070.681426055031,None,1068.3144940931816,None,6.0,7.523338370025158,1073.2487224300858,None,1068.3144940931816,None,space,0.5988853860180825,7.549815179780126,None,1068.3144940931816,None,1068.3144940931816,None,,,,,,,,,1,2022_Apr_12_1501,SAR-soap,2021.1.2,59.91871416959168,
92,Trial # 88,Group1-stimuli/group1-block1/fake-group2-b1/encoded_Group2_IMG_0301.jpg,0,encoded_Group2_IMG_0301.jpg,,,,,0.0,87.0,87.0,87.0,,,,,,,,,,,,,,,,,,,,,,,,,,,,,,,,,,,,,1076.4663643480744,None,1076.4663643480744,None,1076.4663643480744,None,5.0,20.370280857896432,1076.4663643480744,None,1076.4663643480744,None,7.0,27.19467283412814,1096.3886269310024,None,1076.4663643480744,None,6.0,27.9676338119898,1102.1905715779867,None,1076.4663643480744,None,space,0.96569760190323,27.995424151653424,None,1076.4663643480744,None,1076.4663643480744,None,,,,,,,,,1,2022_Apr_12_1501,SAR-soap,2021.1.2,59.91871416959168,
93,Trial # 89,Group1-stimuli/group1-block1/fake-group2-b1/encoded_Group2_IMG_5136.jpg,0,encoded_Group2_IMG_5136.jpg,,,,,0.0,88.0,88.0,88.0,,,,,,,,,,,,,,,,,,,,,,,,,,,,,,,,,,,,,1105.442826769082,None,1105.442826769082,None,1105.442826769082,None,4.0,3.366216277005151,1105.442826769082,None,1105.442826769082,None,6.0,5.371926537016407,1108.3609251310118,None,1105.442826769082,None,7.0,8.44555278099142,1110.376854068134,None,1105.442826769082,None,space,1.1201374938245865,8.474301447859034,None,1105.442826769082,None,1105.442826769082,None,,,,,,,,,1,2022_Apr_12_1501,SAR-soap,2021.1.2,59.91871416959168,
94,Trial # 90,Group1-stimuli/group1-block1/real-group1-b1/Group1_IMG_0460.jpg,1,Group1_IMG_0460.jpg,,,,,0.0,89.0,89.0,89.0,,,,,,,,,,,,,,,,,,,,,,,,,,,,,,,,,,,,,1115.0780933180358,None,1115.0780933180358,None,1115.0780933180358,None,6.0,4.996871290029958,1115.0780933180358,None,1115.0780933180358,None,5.0,7.552908227080479,1119.612990983995,None,1115.0780933180358,None,3.0,10.559699214063585,1122.1799645961728,None,1115.0780933180358,None,space,0.872188993031159,10.585135638946667,None,1115.0780933180358,None,1115.0780933180358,None,,,,,,,,,1,2022_Apr_12_1501,SAR-soap,2021.1.2,59.91871416959168,
95,Trial # 91,Group1-stimuli/group1-block1/fake-group2-b1/encoded_Group2_IMG_0068.jpg,0,encoded_Group2_IMG_0068.jpg,,,,,0.0,90.0,90.0,90.0,,,,,,,,,,,,,,,,,,,,,,,,,,,,,,,,,,,,,1126.5643637401515,None,1126.5643637401515,None,1126.5643637401515,None,5.0,7.400025396840647,1126.5643637401515,None,1126.5643637401515,None,6.0,12.507112165912986,1133.5178318950348,None,1126.5643637401515,None,7.0,13.745827810140328,1138.6356962481514,None,1126.5643637401515,None,space,0.8473212700337172,13.774791881907731,None,1126.5643637401515,None,1126.5643637401515,None,,,,,,,,,1,2022_Apr_12_1501,SAR-soap,2021.1.2,59.91871416959168,
96,Trial # 92,Group1-stimuli/group1-block1/real-group1-b1/Group1_IMG_0337.jpg,1,Group1_IMG_0337.jpg,,,,,0.0,91.0,91.0,91.0,,,,,,,,,,,,,,,,,,,,,,,,,,,,,,,,,,,,,1141.2367650819942,None,1141.2367650819942,None,1141.2367650819942,None,1.0,2.3626201320439577,1141.2367650819942,None,1141.2367650819942,None,1.0,3.551274894969538,1143.1378680921623,None,1141.2367650819942,None,1.0,4.59027835004963,1144.338403192116,None,1141.2367650819942,None,space,0.7779032960534096,4.616626434726641,None,1141.2367650819942,None,1141.2367650819942,None,,,,,,,,,1,2022_Apr_12_1501,SAR-soap,2021.1.2,59.91871416959168,
97,Trial # 93,Group1-stimuli/group1-block1/fake-group2-b1/encoded_Group2_IMG_0346.jpg,0,encoded_Group2_IMG_0346.jpg,,,,,0.0,92.0,92.0,92.0,,,,,,,,,,,,,,,,,,,,,,,,,,,,,,,,,,,,,1146.654872721061,None,1146.654872721061,None,1146.654872721061,None,1.0,2.7156316980253905,1146.654872721061,None,1146.654872721061,None,1.0,3.271092676091939,1148.9226007920224,None,1146.654872721061,None,1.0,4.042189572937787,1149.4897794621063,None,1146.654872721061,None,space,0.8448544282000512,4.073170064715669,None,1146.654872721061,None,1146.654872721061,None,,,,,,,,,1,2022_Apr_12_1501,SAR-soap,2021.1.2,59.91871416959168,
98,Trial # 94,Group1-stimuli/group1-block1/real-group1-b1/Group1_IMG_4253.jpg,1,Group1_IMG_4253.jpg,,,,,0.0,93.0,93.0,93.0,,,,,,,,,,,,,,,,,,,,,,,,,,,,,,,,,,,,,1151.6229806751944,None,1151.6229806751944,None,1151.6229806751944,None,6.0,3.69654625817202,1151.6229806751944,None,1151.6229806751944,None,6.0,5.85193784814328,1154.858783730073,None,1151.6229806751944,None,6.0,8.658119224011898,1157.0240650011692,None,1151.6229806751944,None,space,2.838714998913929,6.617506687529385,None,1151.6229806751944,None,1151.6229806751944,None,,,,,,,,,1,2022_Apr_12_1501,SAR-soap,2021.1.2,59.91871416959168,
99,Trial # 95,Group1-stimuli/group1-block1/fake-group2-b1/encoded_Group2_IMG_9280.jpg,0,encoded_Group2_IMG_9280.jpg,,,,,0.0,94.0,94.0,94.0,,,,,,,,,,,,,,,,,,,,,,,,,,,,,,,,,,,,,1161.1087503770832,None,1161.1087503770832,None,1161.1087503770832,None,3.0,17.520582978148013,1161.1087503770832,None,1161.1087503770832,None,5.0,18.443457265151665,1178.1822360351216,None,1161.1087503770832,None,5.0,21.648483293130997,1179.1157746191602,None,1161.1087503770832,None,space,1.1703150891698897,21.6773611176759,None,1161.1087503770832,None,1161.1087503770832,None,,,,,,,,,1,2022_Apr_12_1501,SAR-soap,2021.1.2,59.91871416959168,
100,Trial # 96,Group1-stimuli/group1-block1/real-group1-b1/Group1_IMG_0417.jpg,1,Group1_IMG_0417.jpg,,,,,0.0,95.0,95.0,95.0,,,,,,,,,,,,,,,,,,,,,,,,,,,,,,,,,,,,,1184.0004047900438,None,1184.0004047900438,None,1184.0004047900438,None,2.0,4.095988129964098,1184.0004047900438,None,1184.0004047900438,None,1.0,7.635806939098984,1187.6509878390934,None,1184.0004047900438,None,1.0,9.942364712012932,1191.2021981691942,None,1184.0004047900438,None,space,0.9186853910796344,9.969696779968215,None,1184.0004047900438,None,1184.0004047900438,None,,,,,,,,,1,2022_Apr_12_1501,SAR-soap,2021.1.2,59.91871416959168,
101,Trial # 97,Group1-stimuli/group1-block1/fake-group2-b1/encoded_Group2_IMG_9695.jpg,0,encoded_Group2_IMG_9695.jpg,,,,,0.0,96.0,96.0,96.0,,,,,,,,,,,,,,,,,,,,,,,,,,,,,,,,,,,,,1194.919415640179,None,1194.919415640179,None,1194.919415640179,None,1.0,2.462664413964376,1194.919415640179,None,1194.919415640179,None,1.0,3.084749108878896,1196.9375557091553,None,1194.919415640179,None,1.0,3.592088321922347,1197.570419315016,None,1194.919415640179,None,space,0.7023244770243764,3.6196512547321618,None,1194.919415640179,None,1194.919415640179,None,,,,,,,,,1,2022_Apr_12_1501,SAR-soap,2021.1.2,59.91871416959168,
102,Trial # 98,Group1-stimuli/group1-block1/real-group1-b1/Group1_IMG_1160.jpg,1,Group1_IMG_1160.jpg,,,,,0.0,97.0,97.0,97.0,,,,,,,,,,,,,,,,,,,,,,,,,,,,,,,,,,,,,1199.3049230731558,None,1199.3049230731558,None,1199.3049230731558,None,3.0,5.428179893177003,1199.3049230731558,None,1199.3049230731558,None,5.0,8.184411369962618,1204.2731724220794,None,1199.3049230731558,None,7.0,10.459533679066226,1207.0398818291724,None,1199.3049230731558,None,space,1.5174855110235512,9.78267131978646,None,1199.3049230731558,None,1199.3049230731558,None,,,,,,,,,1,2022_Apr_12_1501,SAR-soap,2021.1.2,59.91871416959168,
103,Trial # 99,Group1-stimuli/group1-block1/real-group1-b1/Group1_IMG_0448.jpg,1,Group1_IMG_0448.jpg,,,,,0.0,98.0,98.0,98.0,,,,,,,,,,,,,,,,,,,,,,,,,,,,,,,,,,,,,1210.6406222980004,None,1210.6406222980004,None,1210.6406222980004,None,3.0,8.147564913146198,1210.6406222980004,None,1210.6406222980004,None,4.0,12.98732925299555,1215.1433757550549,None,1210.6406222980004,None,4.0,15.92646879190579,1223.1783130990807,None,1210.6406222980004,None,space,1.8717094152234492,14.686331310775133,None,1210.6406222980004,None,1210.6406222980004,None,,,,,,,,,1,2022_Apr_12_1501,SAR-soap,2021.1.2,59.91871416959168,
104,Trial # 100,Group1-stimuli/group1-block1/fake-group2-b1/encoded_Group2_IMG_0393.jpg,0,encoded_Group2_IMG_0393.jpg,,,,,0.0,99.0,99.0,99.0,,,,,,,,,,,,,,,,,,,,,,,,,,,,,,,,,,,,,1227.2295626641717,None,1227.2295626641717,None,1227.2295626641717,None,2.0,7.481486619915813,1227.2295626641717,None,1227.2295626641717,None,4.0,17.190113920951262,1234.2654491171706,None,1227.2295626641717,None,4.0,19.264168098801747,1243.9854859251063,None,1227.2295626641717,None,space,1.0335592029150575,19.29103601560928,None,1227.2295626641717,None,1227.2295626641717,None,,,,,,,,,1,2022_Apr_12_1501,SAR-soap,2021.1.2,59.91871416959168,
105,Trial # 101,Group1-stimuli/group1-block1/real-group1-b1/Group1_IMG_0090.jpg,1,Group1_IMG_0090.jpg,,,,,0.0,100.0,100.0,100.0,,,,,,,,,,,,,,,,,,,,,,,,,,,,,,,,,,,,,1247.6192282692064,None,1247.6192282692064,None,1247.6192282692064,None,1.0,1.7098214221186936,1247.6192282692064,None,1247.6192282692064,None,1.0,2.465863526100293,1248.8703386830166,None,1247.6192282692064,None,1.0,3.1719314609654248,1249.636539853178,None,1247.6192282692064,None,space,0.3244696501642465,3.1961165016982704,None,1247.6192282692064,None,1247.6192282692064,None,,,,,,,,,1,2022_Apr_12_1501,SAR-soap,2021.1.2,59.91871416959168,
106,Trial # 102,Group1-stimuli/group1-block1/real-group1-b1/Group1_IMG_0310.jpg,1,Group1_IMG_0310.jpg,,,,,0.0,101.0,101.0,101.0,,,,,,,,,,,,,,,,,,,,,,,,,,,,,,,,,,,,,1251.1702987169847,None,1251.1702987169847,None,1251.1702987169847,None,1.0,1.5950002460740509,1251.1702987169847,None,1251.1702987169847,None,1.0,2.184458753792569,1252.3038436840288,None,1251.1702987169847,None,1.0,3.3924389970488846,1252.9052440761589,None,1251.1702987169847,None,space,0.4836167839821428,3.4164242886472493,None,1251.1702987169847,None,1251.1702987169847,None,,,,,,,,,1,2022_Apr_12_1501,SAR-soap,2021.1.2,59.91871416959168,
107,Trial # 103,Group1-stimuli/group1-block1/fake-group2-b1/encoded_Group2_IMG_0528.jpg,0,encoded_Group2_IMG_0528.jpg,,,,,0.0,102.0,102.0,102.0,,,,,,,,,,,,,,,,,,,,,,,,,,,,,,,,,,,,,1255.104854517151,None,1255.104854517151,None,1255.104854517151,None,2.0,2.877725418889895,1255.104854517151,None,1255.104854517151,None,2.0,6.983919024001807,1257.5215702841524,None,1255.104854517151,None,2.0,11.258594786049798,1261.6402002139948,None,1255.104854517151,None,space,0.6015615100041032,11.283067965880036,None,1255.104854517151,None,1255.104854517151,None,,,,,,,,,1,2022_Apr_12_1501,SAR-soap,2021.1.2,59.91871416959168,
108,Trial # 104,Group1-stimuli/group1-block1/fake-group2-b1/encoded_Group2_IMG_1975.jpg,0,encoded_Group2_IMG_1975.jpg,,,,,0.0,103.0,103.0,103.0,,,,,,,,,,,,,,,,,,,,,,,,,,,,,,,,,,,,,1267.0247184929904,None,1267.0247184929904,None,1267.0247184929904,None,1.0,1.914008893072605,1267.0247184929904,None,1267.0247184929904,None,1.0,2.50238201697357,1268.4931109151803,None,1267.0247184929904,None,1.0,3.209009089972824,1269.093115630094,None,1267.0247184929904,None,space,-2.291137194028124,3.236508896574378,None,1267.0247184929904,None,1267.0247184929904,None,,,,,,,,,1,2022_Apr_12_1501,SAR-soap,2021.1.2,59.91871416959168,
109,Trial # 105,Group1-stimuli/group1-block1/fake-group2-b1/encoded_Group2_IMG_0052.jpg,0,encoded_Group2_IMG_0052.jpg,,,,,0.0,104.0,104.0,104.0,,,,,,,,,,,,,,,,,,,,,,,,,,,,,,,,,,,,,1270.2929553051945,None,1270.2929553051945,None,1270.2929553051945,None,1.0,1.7770142459776253,1270.2929553051945,None,1270.2929553051945,None,1.0,2.4996572509408,1271.6098295880947,None,1270.2929553051945,None,1.0,3.173603747971356,1272.343849270139,None,1270.2929553051945,None,space,0.5138939321041107,3.197832884732634,None,1270.2929553051945,None,1270.2929553051945,None,,,,,,,,,1,2022_Apr_12_1501,SAR-soap,2021.1.2,59.91871416959168,
110,Trial # 106,Group1-stimuli/group1-block1/fake-group2-b1/encoded_Group2_IMG_0225.jpg,0,encoded_Group2_IMG_0225.jpg,,,,,0.0,105.0,105.0,105.0,,,,,,,,,,,,,,,,,,,,,,,,,,,,,,,,,,,,,1274.044577897061,None,1274.044577897061,None,1274.044577897061,None,3.0,2.1926728398539126,1274.044577897061,None,1274.044577897061,None,4.0,4.266221394995228,1275.7782264170237,None,1274.044577897061,None,3.0,5.938298243097961,1277.8624985520728,None,1274.044577897061,None,space,0.6604268930386752,5.962171425810084,None,1274.044577897061,None,1274.044577897061,None,,,,,,,,,1,2022_Apr_12_1501,SAR-soap,2021.1.2,59.91871416959168,
111,Trial # 107,Group1-stimuli/group1-block1/real-group1-b1/Group1_IMG_2231.jpg,1,Group1_IMG_2231.jpg,,,,,0.0,106.0,106.0,106.0,,,,,,,,,,,,,,,,,,,,,,,,,,,,,,,,,,,,,1280.6954491690267,None,1280.6954491690267,None,1280.6954491690267,None,4.0,3.4084015029948205,1280.6954491690267,None,1280.6954491690267,None,5.0,6.9136091561522335,1283.6476983791215,None,1280.6954491690267,None,6.0,8.587909689173102,1287.164244923042,None,1280.6954491690267,None,space,0.5248010770883411,8.610319925937802,None,1280.6954491690267,None,1280.6954491690267,None,,,,,,,,,1,2022_Apr_12_1501,SAR-soap,2021.1.2,59.91871416959168,
112,Trial # 108,Group1-stimuli/group1-block1/real-group1-b1/Group1_IMG_0217.jpg,1,Group1_IMG_0217.jpg,,,,,0.0,107.0,107.0,107.0,,,,,,,,,,,,,,,,,,,,,,,,,,,,,,,,,,,,,1289.865766937146,None,1289.865766937146,None,1289.865766937146,None,3.0,11.875912742922084,1289.865766937146,None,1289.865766937146,None,5.0,28.220267225056887,1301.285889553139,None,1289.865766937146,None,4.0,29.794555071974173,1316.540121256141,None,1289.865766937146,None,space,0.925392874982208,29.813969230046496,None,1289.865766937146,None,1289.865766937146,None,,,,,,,,,1,2022_Apr_12_1501,SAR-soap,2021.1.2,59.91871416959168,
113,Trial # 109,Group1-stimuli/group1-block1/real-group1-b1/Group1_IMG_0264.jpg,1,Group1_IMG_0264.jpg,,,,,0.0,108.0,108.0,108.0,,,,,,,,,,,,,,,,,,,,,,,,,,,,,,,,,,,,,1320.6412994491402,None,1320.6412994491402,None,1320.6412994491402,None,5.0,2.239999773912132,1320.6412994491402,None,1320.6412994491402,None,5.0,7.014759837882593,1322.4258869341577,None,1320.6412994491402,None,6.0,8.554789452115074,1327.210239562206,None,1320.6412994491402,None,space,0.6128313911613077,8.57594026089646,None,1320.6412994491402,None,1320.6412994491402,None,,,,,,,,,1,2022_Apr_12_1501,SAR-soap,2021.1.2,59.91871416959168,
114,Trial # 110,Group1-stimuli/group1-block1/fake-group2-b1/encoded_Group2_IMG_0254.jpg,0,encoded_Group2_IMG_0254.jpg,,,,,0.0,109.0,109.0,109.0,,,,,,,,,,,,,,,,,,,,,,,,,,,,,,,,,,,,,1329.862002489157,None,1329.862002489157,None,1329.862002489157,None,1.0,2.247027852805332,1329.862002489157,None,1329.862002489157,None,1.0,2.8360387480352074,1331.6614458241966,None,1329.862002489157,None,1.0,3.3417256681714207,1332.261309804162,None,1329.862002489157,None,space,2.220001972047612,3.3685142116155475,None,1329.862002489157,None,1329.862002489157,None,,,,,,,,,1,2022_Apr_12_1501,SAR-soap,2021.1.2,59.91871416959168,
115,Trial # 111,Group1-stimuli/group1-block1/fake-group2-b1/encoded_Group2_IMG_5433.jpg,0,encoded_Group2_IMG_5433.jpg,,,,,0.0,110.0,110.0,110.0,,,,,,,,,,,,,,,,,,,,,,,,,,,,,,,,,,,,,1335.4798247530125,None,1335.4798247530125,None,1335.4798247530125,None,1.0,1.7799759320914743,1335.4798247530125,None,1335.4798247530125,None,1.0,2.4705023569986224,1336.8134404642042,None,1335.4798247530125,None,1.0,3.176192709011957,1337.5136014390737,None,1335.4798247530125,None,space,0.7430102750658989,3.204732129815966,None,1335.4798247530125,None,1335.4798247530125,None,,,,,,,,,1,2022_Apr_12_1501,SAR-soap,2021.1.2,59.91871416959168,
116,Trial # 112,Group1-stimuli/group1-block1/real-group1-b1/Group1_IMG_0252.jpg,1,Group1_IMG_0252.jpg,,,,,0.0,111.0,111.0,111.0,,,,,,,,,,,,,,,,,,,,,,,,,,,,,,,,,,,,,1339.4810558850877,None,1339.4810558850877,None,1339.4810558850877,None,1.0,3.728144929977134,1339.4810558850877,None,1339.4810558850877,None,1.0,5.551415611989796,1342.7497191790026,None,1339.4810558850877,None,3.0,8.556328704115003,1344.582622744143,None,1339.4810558850877,None,space,2.910875122062862,6.382965162629262,None,1339.4810558850877,None,1339.4810558850877,None,,,,,,,,,1,2022_Apr_12_1501,SAR-soap,2021.1.2,59.91871416959168,
117,Trial # 113,Group1-stimuli/group1-block1/real-group1-b1/Group1_IMG_9720.jpg,1,Group1_IMG_9720.jpg,,,,,0.0,112.0,112.0,112.0,,,,,,,,,,,,,,,,,,,,,,,,,,,,,,,,,,,,,1348.8179634790868,None,1348.8179634790868,None,1348.8179634790868,None,6.0,4.210477485088632,1348.8179634790868,None,1348.8179634790868,None,5.0,10.069060790818185,1352.5690309212075,None,1348.8179634790868,None,6.0,11.007910683052614,1358.437105091056,None,1348.8179634790868,None,space,0.945931060006842,11.034294985467568,None,1348.8179634790868,None,1348.8179634790868,None,,,,,,,,,1,2022_Apr_12_1501,SAR-soap,2021.1.2,59.91871416959168,
118,Trial # 114,Group1-stimuli/group1-block1/fake-group2-b1/encoded_Group2_IMG_0550.jpg,0,encoded_Group2_IMG_0550.jpg,,,,,0.0,113.0,113.0,113.0,,,,,,,,,,,,,,,,,,,,,,,,,,,,,,,,,,,,,1360.8377925821114,None,1360.8377925821114,None,1360.8377925821114,None,1.0,2.026293934090063,1360.8377925821114,None,1360.8377925821114,None,1.0,2.9491319300141186,1362.404157164041,None,1360.8377925821114,None,1.0,3.5882929309736937,1363.3385911372025,None,1360.8377925821114,None,space,1.1688462770543993,3.613212015014142,None,1360.8377925821114,None,1360.8377925821114,None,,,,,,,,,1,2022_Apr_12_1501,SAR-soap,2021.1.2,59.91871416959168,
119,Trial # 115,Group1-stimuli/group1-block1/real-group1-b1/Group1_IMG_9915.jpg,1,Group1_IMG_9915.jpg,,,,,0.0,114.0,114.0,114.0,,,,,,,,,,,,,,,,,,,,,,,,,,,,,,,,,,,,,1365.672476743115,None,1365.672476743115,None,1365.672476743115,None,1.0,1.9429470428731288,1365.672476743115,None,1365.672476743115,None,1.0,2.5303749579470605,1367.1560929950792,None,1365.672476743115,None,1.0,3.170355631969869,1367.7565039030742,None,1365.672476743115,None,space,0.8145511550828815,3.1957261527422816,None,1365.672476743115,None,1365.672476743115,None,,,,,,,,,1,2022_Apr_12_1501,SAR-soap,2021.1.2,59.91871416959168,
120,Trial # 116,Group1-stimuli/group1-block1/real-group1-b1/Group1_IMG_9850.jpg,1,Group1_IMG_9850.jpg,,,,,0.0,115.0,115.0,115.0,,,,,,,,,,,,,,,,,,,,,,,,,,,,,,,,,,,,,1369.7242008710746,None,1369.7242008710746,None,1369.7242008710746,None,1.0,2.00688569014892,1369.7242008710746,None,1369.7242008710746,None,1.0,2.8630064020399004,1371.2746647710446,None,1369.7242008710746,None,1.0,3.669332558987662,1372.140613230178,None,1369.7242008710746,None,space,0.8869629090186208,3.6909947788808495,None,1369.7242008710746,None,1369.7242008710746,None,,,,,,,,,1,2022_Apr_12_1501,SAR-soap,2021.1.2,59.91871416959168,
121,Trial # 117,Group1-stimuli/group1-block1/real-group1-b1/Group1_IMG_3579.jpg,1,Group1_IMG_3579.jpg,,,,,0.0,116.0,116.0,116.0,,,,,,,,,,,,,,,,,,,,,,,,,,,,,,,,,,,,,1374.3417989672162,None,1374.3417989672162,None,1374.3417989672162,None,3.0,7.112329556141049,1374.3417989672162,None,1374.3417989672162,None,5.0,10.018843191908672,1379.243398794206,None,1374.3417989672162,None,6.0,12.226992971962318,1383.412173160119,None,1374.3417989672162,None,space,0.7815744660329074,12.250839362852275,None,1374.3417989672162,None,1374.3417989672162,None,,,,,,,,,1,2022_Apr_12_1501,SAR-soap,2021.1.2,59.91871416959168,
122,Trial # 118,Group1-stimuli/group1-block1/fake-group2-b1/encoded_Group2_IMG_0377.jpg,0,encoded_Group2_IMG_0377.jpg,,,,,0.0,117.0,117.0,117.0,,,,,,,,,,,,,,,,,,,,,,,,,,,,,,,,,,,,,1387.4126988721546,None,1387.4126988721546,None,1387.4126988721546,None,1.0,2.827196193858981,1387.4126988721546,None,1387.4126988721546,None,1.0,3.583692240063101,1389.780435717199,None,1387.4126988721546,None,1.0,4.823206175118685,1390.5464810749982,None,1387.4126988721546,None,space,0.961471064016223,4.8463501369114965,None,1387.4126988721546,None,1387.4126988721546,None,,,,,,,,,1,2022_Apr_12_1501,SAR-soap,2021.1.2,59.91871416959168,
123,Trial # 119,Group1-stimuli/group1-block1/real-group1-b1/Group1_IMG_0469.jpg,1,Group1_IMG_0469.jpg,,,,,0.0,118.0,118.0,118.0,,,,,,,,,,,,,,,,,,,,,,,,,,,,,,,,,,,,,1393.2315030260943,None,1393.2315030260943,None,1393.2315030260943,None,1.0,3.196893464075401,1393.2315030260943,None,1393.2315030260943,None,1.0,3.852188534103334,1395.9816051851958,None,1393.2315030260943,None,1.0,4.490301487967372,1396.6485195641872,None,1393.2315030260943,None,space,0.66767762391828,4.517311150673777,None,1393.2315030260943,None,1393.2315030260943,None,,,,,,,,,1,2022_Apr_12_1501,SAR-soap,2021.1.2,59.91871416959168,
124,Trial # 120,Group1-stimuli/group1-block1/fake-group2-b1/encoded_Group2_IMG_0100.jpg,0,encoded_Group2_IMG_0100.jpg,,,,,0.0,119.0,119.0,119.0,,,,,,,,,,,,,,,,,,,,,,,,,,,,,,,,,,,,,1398.4665951791685,None,1398.4665951791685,None,1398.4665951791685,None,1.0,85.00744968093932,1398.4665951791685,None,1398.4665951791685,None,1.0,85.6960101320874,1483.0264333980158,None,1398.4665951791685,None,1.0,86.4000726500526,1483.7262996050997,None,1398.4665951791685,None,space,0.7387115890160203,86.43033065274358,None,1398.4665951791685,None,1398.4665951791685,None,,,,,,,,,1,2022_Apr_12_1501,SAR-soap,2021.1.2,59.91871416959168,
125,Trial # 121,Group1-stimuli/group1-block1/real-group1-b1/Group1_IMG_5359.jpg,1,Group1_IMG_5359.jpg,,,,,0.0,120.0,120.0,120.0,,,,,,,,,,,,,,,,,,,,,,,,,,,,,,,,,,,,,1485.6932648019863,None,1485.6932648019863,None,1485.6932648019863,None,2.0,2.208355532027781,1485.6932648019863,None,1485.6932648019863,None,2.0,3.965478600002825,1487.4438801251815,None,1485.6932648019863,None,3.0,5.70440345001407,1489.2114954520948,None,1485.6932648019863,None,space,1.1489439690485597,5.727218200918287,None,1485.6932648019863,None,1485.6932648019863,None,,,,,,,,,1,2022_Apr_12_1501,SAR-soap,2021.1.2,59.91871416959168,
126,Trial # 122,Group1-stimuli/group1-block1/fake-group2-b1/encoded_Group2_IMG_0304.jpg,0,encoded_Group2_IMG_0304.jpg,,,,,0.0,121.0,121.0,121.0,,,,,,,,,,,,,,,,,,,,,,,,,,,,,,,,,,,,,1492.594622765202,None,1492.594622765202,None,1492.594622765202,None,4.0,15.166715116007254,1492.594622765202,None,1492.594622765202,None,6.0,16.523662059102207,1507.3157830981072,None,1492.594622765202,None,5.0,18.36306425416842,1508.6841030721553,None,1492.594622765202,None,space,0.7849506018683314,18.388845315901563,None,1492.594622765202,None,1492.594622765202,None,,,,,,,,,1,2022_Apr_12_1501,SAR-soap,2021.1.2,59.91871416959168,
127,Trial # 123,Group1-stimuli/group1-block1/real-group1-b1/Group1_IMG_0306.jpg,1,Group1_IMG_0306.jpg,,,,,0.0,122.0,122.0,122.0,,,,,,,,,,,,,,,,,,,,,,,,,,,,,,,,,,,,,1511.817290841136,None,1511.817290841136,None,1511.817290841136,None,5.0,4.796862469054759,1511.817290841136,None,1511.817290841136,None,6.0,8.236720263026655,1514.0028333570808,None,1511.817290841136,None,4.0,10.97594291693531,1519.6029609742109,None,1511.817290841136,None,space,1.0366047550924122,11.001681227702647,None,1511.817290841136,None,1511.817290841136,None,,,,,,,,,1,2022_Apr_12_1501,SAR-soap,2021.1.2,59.91871416959168,
128,Trial # 124,Group1-stimuli/group1-block1/real-group1-b1/Group1_IMG_0224.jpg,1,Group1_IMG_0224.jpg,,,,,0.0,123.0,123.0,123.0,,,,,,,,,,,,,,,,,,,,,,,,,,,,,,,,,,,,,1523.905164566124,None,1523.905164566124,None,1523.905164566124,None,3.0,3.9606531851459295,1523.905164566124,None,1523.905164566124,None,4.0,7.718194426037371,1527.4057192960754,None,1523.905164566124,None,3.0,11.525013322010636,1531.1732392350675,None,1523.905164566124,None,space,1.1553979208692908,11.018097968539225,None,1523.905164566124,None,1523.905164566124,None,,,,,,,,,1,2022_Apr_12_1501,SAR-soap,2021.1.2,59.91871416959168,
129,Trial # 125,Group1-stimuli/group1-block1/real-group1-b1/Group1_IMG_9889.jpg,1,Group1_IMG_9889.jpg,,,,,0.0,124.0,124.0,124.0,,,,,,,,,,,,,,,,,,,,,,,,,,,,,,,,,,,,,1536.108065357199,None,1536.108065357199,None,1536.108065357199,None,1.0,3.294496343936771,1536.108065357199,None,1536.108065357199,None,1.0,3.850707678822801,1538.94365017605,None,1536.108065357199,None,1.0,5.356372726848349,1539.5101659779905,None,1536.108065357199,None,space,0.7870109030045569,5.382106262724847,None,1536.108065357199,None,1536.108065357199,None,,,,,,,,,1,2022_Apr_12_1501,SAR-soap,2021.1.2,59.91871416959168,
130,Trial # 126,Group1-stimuli/group1-block1/real-group1-b1/Group1_IMG_0293.jpg,1,Group1_IMG_0293.jpg,,,,,0.0,125.0,125.0,125.0,,,,,,,,,,,,,,,,,,,,,,,,,,,,,,,,,,,,,1542.309957634192,None,1542.309957634192,None,1542.309957634192,None,1.0,9.49728377093561,1542.309957634192,None,1542.309957634192,None,1.0,9.953118543839082,1551.347008568002,None,1542.309957634192,None,1.0,11.126906997989863,1551.8127607300412,None,1542.309957634192,None,space,0.5046252941247076,11.151991344755515,None,1542.309957634192,None,1542.309957634192,None,,,,,,,,,1,2022_Apr_12_1501,SAR-soap,2021.1.2,59.91871416959168,
131,Trial # 127,Group1-stimuli/group1-block1/fake-group2-b1/encoded_Group2_IMG_0321.jpg,0,encoded_Group2_IMG_0321.jpg,,,,,0.0,126.0,126.0,126.0,,,,,,,,,,,,,,,,,,,,,,,,,,,,,,,,,,,,,1553.9976358031854,None,1553.9976358031854,None,1553.9976358031854,None,1.0,1.4971461792010814,1553.9976358031854,None,1553.9976358031854,None,1.0,2.3868357641622424,1555.0476043580566,None,1553.9976358031854,None,1.0,3.39279104815796,1555.9475638340227,None,1553.9976358031854,None,space,0.4580395061057061,3.420809030765668,None,1553.9976358031854,None,1553.9976358031854,None,,,,,,,,,1,2022_Apr_12_1501,SAR-soap,2021.1.2,59.91871416959168,
132,Trial # 128,Group1-stimuli/group1-block1/fake-group2-b1/encoded_Group2_IMG_0400.jpg,0,encoded_Group2_IMG_0400.jpg,,,,,0.0,127.0,127.0,127.0,,,,,,,,,,,,,,,,,,,,,,,,,,,,,,,,,,,,,1557.8992374921218,None,1557.8992374921218,None,1557.8992374921218,None,3.0,4.163987509906292,1557.8992374921218,None,1557.8992374921218,None,3.0,13.788883622037249,1559.3664217011535,None,1557.8992374921218,None,4.0,18.896449922816828,1571.251910733059,None,1557.8992374921218,None,space,2.5377613599412143,17.758090844610706,None,1557.8992374921218,None,1557.8992374921218,None,,,,,,,,,1,2022_Apr_12_1501,SAR-soap,2021.1.2,59.91871416959168,
133,Trial # 129,Group1-stimuli/group1-block1/fake-group2-b1/encoded_Group2_IMG_0443.jpg,0,encoded_Group2_IMG_0443.jpg,,,,,0.0,128.0,128.0,128.0,,,,,,,,,,,,,,,,,,,,,,,,,,,,,,,,,,,,,1578.2386573359836,None,1578.2386573359836,None,1578.2386573359836,None,4.0,3.148619099985808,1578.2386573359836,None,1578.2386573359836,None,5.0,6.072734540095553,1580.9391582000535,None,1578.2386573359836,None,5.0,8.47680142801255,1583.8734017261304,None,1578.2386573359836,None,space,1.323331844061613,8.506586687872186,None,1578.2386573359836,None,1578.2386573359836,None,,,,,,,,,1,2022_Apr_12_1501,SAR-soap,2021.1.2,59.91871416959168,
134,Trial # 130,Group1-stimuli/group1-block1/fake-group2-b1/encoded_Group2_IMG_0542.jpg,0,encoded_Group2_IMG_0542.jpg,,,,,0.0,129.0,129.0,129.0,,,,,,,,,,,,,,,,,,,,,,,,,,,,,,,,,,,,,1588.0908438691404,None,1588.0908438691404,None,1588.0908438691404,None,1.0,1.5151439860928804,1588.0908438691404,None,1588.0908438691404,None,1.0,2.036221032962203,1589.158216169104,None,1588.0908438691404,None,1.0,2.6765097819734365,1589.6910965400748,None,1588.0908438691404,None,space,0.2881960070226341,2.704794307705015,None,1588.0908438691404,None,1588.0908438691404,None,,,,,,,,,1,2022_Apr_12_1501,SAR-soap,2021.1.2,59.91871416959168,
135,Trial # 131,Group1-stimuli/group1-block1/real-group1-b1/Group1_IMG_0885.jpg,1,Group1_IMG_0885.jpg,,,,,0.0,130.0,130.0,130.0,,,,,,,,,,,,,,,,,,,,,,,,,,,,,,,,,,,,,1591.1246443251148,None,1591.1246443251148,None,1591.1246443251148,None,6.0,3.511876068077981,1591.1246443251148,None,1591.1246443251148,None,6.0,6.268163045169786,1594.1765391370282,None,1591.1246443251148,None,7.0,7.708133932901546,1596.0098622590303,None,1591.1246443251148,None,space,1.890840994892642,7.735261600697413,None,1591.1246443251148,None,1591.1246443251148,None,,,,,,,,,1,2022_Apr_12_1501,SAR-soap,2021.1.2,59.91871416959168,
136,Trial # 132,Group1-stimuli/group1-block1/real-group1-b1/Group1_IMG_0375.jpg,1,Group1_IMG_0375.jpg,,,,,0.0,131.0,131.0,131.0,,,,,,,,,,,,,,,,,,,,,,,,,,,,,,,,,,,,,1600.7610767560543,None,1600.7610767560543,None,1600.7610767560543,None,1.0,1.6624139479827136,1600.7610767560543,None,1600.7610767560543,None,1.0,2.385101391002536,1601.978250422049,None,1600.7610767560543,None,1.0,3.158900192938745,1602.712137703085,None,1600.7610767560543,None,space,0.3018737710081041,3.1844368898309767,None,1600.7610767560543,None,1600.7610767560543,None,,,,,,,,,1,2022_Apr_12_1501,SAR-soap,2021.1.2,59.91871416959168,
137,Trial # 133,Group1-stimuli/group1-block1/fake-group2-b1/encoded_Group2_IMG_7351.jpg,0,encoded_Group2_IMG_7351.jpg,,,,,0.0,132.0,132.0,132.0,,,,,,,,,,,,,,,,,,,,,,,,,,,,,,,,,,,,,1604.296239888994,None,1604.296239888994,None,1604.296239888994,None,3.0,3.047113013919443,1604.296239888994,None,1604.296239888994,None,5.0,5.570742004085332,1606.897136525018,None,1604.296239888994,None,5.0,8.87720581004396,1609.431754196994,None,1604.296239888994,None,space,1.6226131070870906,7.803780067712069,None,1604.296239888994,None,1604.296239888994,None,,,,,,,,,1,2022_Apr_12_1501,SAR-soap,2021.1.2,59.91871416959168,
138,Trial # 134,Group1-stimuli/group1-block1/fake-group2-b1/encoded_Group2_IMG_0416.jpg,0,encoded_Group2_IMG_0416.jpg,,,,,0.0,133.0,133.0,133.0,,,,,,,,,,,,,,,,,,,,,,,,,,,,,,,,,,,,,1613.7488256820943,None,1613.7488256820943,None,1613.7488256820943,None,2.0,2.263156107161194,1613.7488256820943,None,1613.7488256820943,None,2.0,4.87104726000689,1615.565853290027,None,1613.7488256820943,None,2.0,7.2435212060809135,1618.1844983140472,None,1613.7488256820943,None,space,1.2266512410715222,6.570372911868617,None,1613.7488256820943,None,1613.7488256820943,None,,,,,,,,,1,2022_Apr_12_1501,SAR-soap,2021.1.2,59.91871416959168,
139,Trial # 135,Group1-stimuli/group1-block1/fake-group2-b1/encoded_Group2_IMG_0139.jpg,0,encoded_Group2_IMG_0139.jpg,,,,,0.0,134.0,134.0,134.0,,,,,,,,,,,,,,,,,,,,,,,,,,,,,,,,,,,,,1621.5684806811623,None,1621.5684806811623,None,1621.5684806811623,None,1.0,2.031958736013621,1621.5684806811623,None,1621.5684806811623,None,1.0,2.654299462912604,1623.152341047069,None,1621.5684806811623,None,1.0,3.260395186021924,1623.785412024008,None,1621.5684806811623,None,space,0.3721262728795409,3.2878933558240533,None,1621.5684806811623,None,1621.5684806811623,None,,,,,,,,,1,2022_Apr_12_1501,SAR-soap,2021.1.2,59.91871416959168,
140,Trial # 136,Group1-stimuli/group1-block1/real-group1-b1/Group1_IMG_9677.jpg,1,Group1_IMG_9677.jpg,,,,,0.0,135.0,135.0,135.0,,,,,,,,,,,,,,,,,,,,,,,,,,,,,,,,,,,,,1625.2850671131164,None,1625.2850671131164,None,1625.2850671131164,None,1.0,2.107012010877952,1625.2850671131164,None,1625.2850671131164,None,1.0,3.045745119219646,1626.936781036202,None,1625.2850671131164,None,1.0,3.885334845865145,1627.8875657140743,None,1625.2850671131164,None,space,0.5645823189988732,3.908027827739716,None,1625.2850671131164,None,1625.2850671131164,None,,,,,,,,,1,2022_Apr_12_1501,SAR-soap,2021.1.2,59.91871416959168,
141,Trial # 137,Group1-stimuli/group1-block1/fake-group2-b1/encoded_Group2_IMG_5982.jpg,0,encoded_Group2_IMG_5982.jpg,,,,,0.0,136.0,136.0,136.0,,,,,,,,,,,,,,,,,,,,,,,,,,,,,,,,,,,,,1629.7708797841333,None,1629.7708797841333,None,1629.7708797841333,None,1.0,1.597200779011473,1629.7708797841333,None,1629.7708797841333,None,1.0,2.319335669046268,1630.9204006090297,None,1629.7708797841333,None,1.0,2.990643168101087,1631.6544945409987,None,1629.7708797841333,None,space,0.3325900509953499,3.0196215778123587,None,1629.7708797841333,None,1629.7708797841333,None,,,,,,,,,1,2022_Apr_12_1501,SAR-soap,2021.1.2,59.91871416959168,
142,Trial # 138,Group1-stimuli/group1-block1/fake-group2-b1/encoded_Group2_IMG_1144.jpg,0,encoded_Group2_IMG_1144.jpg,,,,,0.0,137.0,137.0,137.0,,,,,,,,,,,,,,,,,,,,,,,,,,,,,,,,,,,,,1633.1553959290031,None,1633.1553959290031,None,1633.1553959290031,None,4.0,43.87353271781467,1633.1553959290031,None,1633.1553959290031,None,6.0,47.51329683396034,1676.5688623781316,None,1633.1553959290031,None,6.0,50.01926390593872,1680.2191244321875,None,1633.1553959290031,None,space,0.6856468499172479,50.04319253680296,None,1633.1553959290031,None,1633.1553959290031,None,,,,,,,,,1,2022_Apr_12_1501,SAR-soap,2021.1.2,59.91871416959168,
143,Trial # 139,Group1-stimuli/group1-block1/fake-group2-b1/encoded_Group2_IMG_0315.jpg,0,encoded_Group2_IMG_0315.jpg,,,,,0.0,138.0,138.0,138.0,,,,,,,,,,,,,,,,,,,,,,,,,,,,,,,,,,,,,1683.9041801101994,None,1683.9041801101994,None,1683.9041801101994,None,1.0,2.013932837871834,1683.9041801101994,None,1683.9041801101994,None,2.0,4.169634907972068,1685.4719337560236,None,1683.9041801101994,None,2.0,9.010174523107708,1686.1718920702117,None,1683.9041801101994,None,space,1.0379798451904207,8.40474153473042,None,1683.9041801101994,None,1683.9041801101994,None,,,,,,,,,1,2022_Apr_12_1501,SAR-soap,2021.1.2,59.91871416959168,
144,Trial # 140,Group1-stimuli/group1-block1/real-group1-b1/Group1_IMG_130.jpg,1,Group1_IMG_130.jpg,,,,,0.0,139.0,139.0,139.0,,,,,,,,,,,,,,,,,,,,,,,,,,,,,,,,,,,,,1693.4075923222117,None,1693.4075923222117,None,1693.4075923222117,None,7.0,2.0400593001395464,1693.4075923222117,None,1693.4075923222117,None,6.0,6.013982014963403,1694.9912146599963,None,1693.4075923222117,None,7.0,7.452803111169487,1698.976084725,None,1693.4075923222117,None,space,1.1321121680084616,7.4746314329095185,None,1693.4075923222117,None,1693.4075923222117,None,,,,,,,,,1,2022_Apr_12_1501,SAR-soap,2021.1.2,59.91871416959168,
145,Trial # 141,Group1-stimuli/group1-block1/real-group1-b1/Group1_IMG_0024.jpg,1,Group1_IMG_0024.jpg,,,,,0.0,140.0,140.0,140.0,,,,,,,,,,,,,,,,,,,,,,,,,,,,,,,,,,,,,1702.0431916660164,None,1702.0431916660164,None,1702.0431916660164,None,2.0,2.5783724959474057,1702.0431916660164,None,1702.0431916660164,None,4.0,4.9505966189317405,1704.160554819042,None,1702.0431916660164,None,4.0,8.291031056083739,1706.5439446989913,None,1702.0431916660164,None,space,0.3431233181618154,8.315308726858348,None,1702.0431916660164,None,1702.0431916660164,None,,,,,,,,,1,2022_Apr_12_1501,SAR-soap,2021.1.2,59.91871416959168,
146,Trial # 142,Group1-stimuli/group1-block1/fake-group2-b1/encoded_Group2_IMG_5012.jpg,0,encoded_Group2_IMG_5012.jpg,,,,,0.0,141.0,141.0,141.0,,,,,,,,,,,,,,,,,,,,,,,,,,,,,,,,,,,,,1710.7281356961466,None,1710.7281356961466,None,1710.7281356961466,None,2.0,2.112440139986574,1710.7281356961466,None,1710.7281356961466,None,1.0,4.818966574966908,1712.3955807681195,None,1710.7281356961466,None,1.0,7.158980522071943,1715.113497309154,None,1710.7281356961466,None,space,1.430684420047328,7.186153648653999,None,1710.7281356961466,None,1710.7281356961466,None,,,,,,,,,1,2022_Apr_12_1501,SAR-soap,2021.1.2,59.91871416959168,
147,Trial # 143,Group1-stimuli/group1-block1/fake-group2-b1/encoded_Group2_IMG_0209.jpg,0,encoded_Group2_IMG_0209.jpg,,,,,0.0,142.0,142.0,142.0,,,,,,,,,,,,,,,,,,,,,,,,,,,,,,,,,,,,,1719.364688263042,None,1719.364688263042,None,1719.364688263042,None,1.0,2.281310566002503,1719.364688263042,None,1719.364688263042,None,1.0,3.071850017877296,1721.1986274560911,None,1719.364688263042,None,1.0,3.776774757076055,1721.9984797041398,None,1719.364688263042,None,space,0.3310088999569416,3.804898743750528,None,1719.364688263042,None,1719.364688263042,None,,,,,,,,,1,2022_Apr_12_1501,SAR-soap,2021.1.2,59.91871416959168,
148,Trial # 144,Group1-stimuli/group1-block1/real-group1-b1/Group1_IMG_0373.jpg,1,Group1_IMG_0373.jpg,,,,,0.0,143.0,143.0,143.0,,,,,,,,,,,,,,,,,,,,,,,,,,,,,,,,,,,,,1723.5336668191012,None,1723.5336668191012,None,1723.5336668191012,None,1.0,1.5945112199988216,1723.5336668191012,None,1723.5336668191012,None,1.0,2.18341798405163,1724.6665455191396,None,1723.5336668191012,None,1.0,2.9551965419668704,1725.2663254681977,None,1723.5336668191012,None,space,0.539160945918411,2.982425105758012,None,1723.5336668191012,None,1723.5336668191012,None,,,,,,,,,1,2022_Apr_12_1501,SAR-soap,2021.1.2,59.91871416959168,
149,Trial # 145,Group1-stimuli/group1-block1/real-group1-b1/Group1_IMG_5899.jpg,1,Group1_IMG_5899.jpg,,,,,0.0,144.0,144.0,144.0,,,,,,,,,,,,,,,,,,,,,,,,,,,,,,,,,,,,,1727.100283119129,None,1727.100283119129,None,1727.100283119129,None,1.0,3.079509523930028,1727.100283119129,None,1727.100283119129,None,2.0,5.40203130687587,1729.7186820581555,None,1727.100283119129,None,1.0,4.840518522076309,1730.4187134162055,None,1727.100283119129,None,space,1.2721676691435275,4.8670093775726855,None,1727.100283119129,None,1727.100283119129,None,,,,,,,,,1,2022_Apr_12_1501,SAR-soap,2021.1.2,59.91871416959168,
150,Trial # 146,Group1-stimuli/group1-block1/real-group1-b1/Group1_IMG_0162.jpg,1,Group1_IMG_0162.jpg,,,,,0.0,145.0,145.0,145.0,,,,,,,,,,,,,,,,,,,,,,,,,,,,,,,,,,,,,1733.2859341481235,None,1733.2859341481235,None,1733.2859341481235,None,4.0,2.8948605339974165,1733.2859341481235,None,1733.2859341481235,None,6.0,5.852936827810481,1735.7199176452125,None,1733.2859341481235,None,6.0,7.460077700903639,1738.688012135215,None,1733.2859341481235,None,space,0.397658467059955,7.483653964009136,None,1733.2859341481235,None,1733.2859341481235,None,,,,,,,,,1,2022_Apr_12_1501,SAR-soap,2021.1.2,59.91871416959168,
151,Trial # 147,Group1-stimuli/group1-block1/real-group1-b1/Group1_IMG_0543.jpg,1,Group1_IMG_0543.jpg,,,,,0.0,146.0,146.0,146.0,,,,,,,,,,,,,,,,,,,,,,,,,,,,,,,,,,,,,1741.1721571390517,None,1741.1721571390517,None,1741.1721571390517,None,1.0,2.6136956680566072,1741.1721571390517,None,1741.1721571390517,None,1.0,3.3026723130606115,1743.3403726271354,None,1741.1721571390517,None,1.0,3.941911253845319,1744.0394265151117,None,1741.1721571390517,None,space,0.1966592080425471,3.9692040868103504,None,1741.1721571390517,None,1741.1721571390517,None,,,,,,,,,1,2022_Apr_12_1501,SAR-soap,2021.1.2,59.91871416959168,
152,Trial # 148,Group1-stimuli/group1-block1/fake-group2-b1/encoded_Group2_IMG_0355.jpg,0,encoded_Group2_IMG_0355.jpg,,,,,0.0,147.0,147.0,147.0,,,,,,,,,,,,,,,,,,,,,,,,,,,,,,,,,,,,,1745.3563946729992,None,1745.3563946729992,None,1745.3563946729992,None,1.0,2.163485666969791,1745.3563946729992,None,1745.3563946729992,None,2.0,2.720237862085924,1747.0740905140992,None,1745.3563946729992,None,2.0,4.193344613071531,1747.6403733801562,None,1745.3563946729992,None,space,1.105693451827392,4.220949112670496,None,1745.3563946729992,None,1745.3563946729992,None,,,,,,,,,1,2022_Apr_12_1501,SAR-soap,2021.1.2,59.91871416959168,
153,Trial # 149,Group1-stimuli/group1-block1/real-group1-b1/Group1_IMG_9765.jpg,1,Group1_IMG_9765.jpg,,,,,0.0,148.0,148.0,148.0,,,,,,,,,,,,,,,,,,,,,,,,,,,,,,,,,,,,,1750.723923814017,None,1750.723923814017,None,1750.723923814017,None,5.0,2.928531177109108,1750.723923814017,None,1750.723923814017,None,4.0,105.31643960019574,1753.2098347041756,None,1750.723923814017,None,6.0,107.3542680349201,1855.607794400072,None,1750.723923814017,None,space,0.773255388950929,107.38128680572844,None,1750.723923814017,None,1750.723923814017,None,,,,,,,,,1,2022_Apr_12_1501,SAR-soap,2021.1.2,59.91871416959168,
154,Trial # 150,Group1-stimuli/group1-block1/fake-group2-b1/encoded_Group2_IMG_1378.jpg,0,encoded_Group2_IMG_1378.jpg,,,,,0.0,149.0,149.0,149.0,,,,,,,,,,,,,,,,,,,,,,,,,,,,,,,,,,,,,1858.9418255581984,None,1858.9418255581984,None,1858.9418255581984,None,3.0,3.727550939191133,1858.9418255581984,None,1858.9418255581984,None,4.0,16.62205476895906,1862.2084716111424,None,1858.9418255581984,None,5.0,18.861160290893167,1875.1130756500645,None,1858.9418255581984,None,space,1.7149721370078623,18.286369983805344,None,1858.9418255581984,None,1858.9418255581984,None,,,,,,,,,1,2022_Apr_12_1501,SAR-soap,2021.1.2,59.91871416959168,
155,Trial # 1,Group1-stimuli/group1-block2/fake-group2-b2/encoded_Group2_IMG_0155.jpg,0,encoded_Group2_IMG_0155.jpg,,,,,,,,,0.0,0.0,0.0,0.0,,,,,,,,,,,,,,,,,,,,,,,,,,,,,,,,,2006.6860874569973,None,2006.6860874569973,None,2006.6860874569973,None,7.0,4.220718017080799,2006.6860874569973,None,2006.6860874569973,None,6.0,10.19572986010462,2010.4543261751533,None,2006.6860874569973,None,7.0,11.76771504106,2016.4397978701163,None,2006.6860874569973,None,space,1.093527696095407,11.803471533814443,None,2006.6860874569973,None,2006.6860874569973,None,1999.3525231920648,None,1999.3525231920648,None,1999.3525231920648,None,1878.46479856316,None,1,2022_Apr_12_1501,SAR-soap,2021.1.2,59.91871416959168,
156,Trial # 2,Group1-stimuli/group1-block2/real-group1-b2/Group1_IMG_0519.jpg,1,Group1_IMG_0519.jpg,,,,,,,,,0.0,1.0,1.0,1.0,,,,,,,,,,,,,,,,,,,,,,,,,,,,,,,,,2019.6083223130556,None,2019.6083223130556,None,2019.6083223130556,None,3.0,4.82391711208038,2019.6083223130556,None,2019.6083223130556,None,5.0,6.996234765043482,2023.976455252152,None,2019.6083223130556,None,2.0,9.036177373025566,2026.159093500115,None,2019.6083223130556,None,space,0.3871851989533752,9.056880278745666,None,2019.6083223130556,None,2019.6083223130556,None,,,,,,,,,1,2022_Apr_12_1501,SAR-soap,2021.1.2,59.91871416959168,
157,Trial # 3,Group1-stimuli/group1-block2/fake-group2-b2/encoded_Group2_IMG_0135.jpg,0,encoded_Group2_IMG_0135.jpg,,,,,,,,,0.0,2.0,2.0,2.0,,,,,,,,,,,,,,,,,,,,,,,,,,,,,,,,,2029.077871909132,None,2029.077871909132,None,2029.077871909132,None,1.0,2.231246172916144,2029.077871909132,None,2029.077871909132,None,1.0,2.8194982178974897,2030.8608461960685,None,2029.077871909132,None,1.0,3.3244557220023125,2031.461184821092,None,2029.077871909132,None,space,0.2848454001359641,3.3523534059058875,None,2029.077871909132,None,2029.077871909132,None,,,,,,,,,1,2022_Apr_12_1501,SAR-soap,2021.1.2,59.91871416959168,
158,Trial # 4,Group1-stimuli/group1-block2/real-group1-b2/Group1_IMG_5310.jpg,1,Group1_IMG_5310.jpg,,,,,,,,,0.0,3.0,3.0,3.0,,,,,,,,,,,,,,,,,,,,,,,,,,,,,,,,,2032.7611391982064,None,2032.7611391982064,None,2032.7611391982064,None,4.0,3.461761408951133,2032.7611391982064,None,2032.7611391982064,None,6.0,6.434611717006192,2035.7623833811376,None,2032.7611391982064,None,5.0,9.50786786712706,2038.747809687164,None,2032.7611391982064,None,space,0.487406870117411,9.532586192945018,None,2032.7611391982064,None,2032.7611391982064,None,,,,,,,,,1,2022_Apr_12_1501,SAR-soap,2021.1.2,59.91871416959168,
159,Trial # 5,Group1-stimuli/group1-block2/real-group1-b2/Group1_IMG_0522.jpg,1,Group1_IMG_0522.jpg,,,,,,,,,0.0,4.0,4.0,4.0,,,,,,,,,,,,,,,,,,,,,,,,,,,,,,,,,2042.813610571204,None,2042.813610571204,None,2042.813610571204,None,2.0,2.5736431069672108,2042.813610571204,None,2042.813610571204,None,4.0,4.562582212034613,2044.9330253670923,None,2042.813610571204,None,3.0,7.936665877932683,2046.9322851879988,None,2042.813610571204,None,space,1.166675654007122,7.224203703692183,None,2042.813610571204,None,2042.813610571204,None,,,,,,,,,1,2022_Apr_12_1501,SAR-soap,2021.1.2,59.91871416959168,
160,Trial # 6,Group1-stimuli/group1-block2/fake-group2-b2/encoded_Group2_IMG_0484.jpg,0,encoded_Group2_IMG_0484.jpg,,,,,,,,,0.0,5.0,5.0,5.0,,,,,,,,,,,,,,,,,,,,,,,,,,,,,,,,,2051.2167688461486,None,2051.2167688461486,None,2051.2167688461486,None,1.0,1.6144119810778648,2051.2167688461486,None,2051.2167688461486,None,1.0,2.2706224860157818,2052.383795774076,None,2051.2167688461486,None,1.0,2.9093257791828364,2053.051979119191,None,2051.2167688461486,None,space,0.3921749950386584,2.9381993249990046,None,2051.2167688461486,None,2051.2167688461486,None,,,,,,,,,1,2022_Apr_12_1501,SAR-soap,2021.1.2,59.91871416959168,
161,Trial # 7,Group1-stimuli/group1-block2/fake-group2-b2/encoded_Group2_IMG_5948.jpg,0,encoded_Group2_IMG_5948.jpg,,,,,,,,,0.0,6.0,6.0,6.0,,,,,,,,,,,,,,,,,,,,,,,,,,,,,,,,,2054.584704843117,None,2054.584704843117,None,2054.584704843117,None,1.0,1.542494423920289,2054.584704843117,None,2054.584704843117,None,1.0,2.232923791045323,2055.6688954001293,None,2054.584704843117,None,1.0,3.4367588981986046,2056.3694252471905,None,2054.584704843117,None,space,0.4359673617873341,3.4625800468493253,None,2054.584704843117,None,2054.584704843117,None,,,,,,,,,1,2022_Apr_12_1501,SAR-soap,2021.1.2,59.91871416959168,
162,Trial # 8,Group1-stimuli/group1-block2/fake-group2-b2/encoded_Group2_IMG_3591.jpg,0,encoded_Group2_IMG_3591.jpg,,,,,,,,,0.0,7.0,7.0,7.0,,,,,,,,,,,,,,,,,,,,,,,,,,,,,,,,,2058.519373136107,None,2058.519373136107,None,2058.519373136107,None,2.0,2.5622529310639948,2058.519373136107,None,2058.519373136107,None,2.0,4.985994693823159,2060.637401472078,None,2058.519373136107,None,2.0,6.1920615108683705,2063.072311902186,None,2058.519373136107,None,space,0.9260980179533362,6.219797754660249,None,2058.519373136107,None,2058.519373136107,None,,,,,,,,,1,2022_Apr_12_1501,SAR-soap,2021.1.2,59.91871416959168,
