,Trial_num,image_path,ground_truth,image_name,demos.thisRepN,demos.thisTrialN,demos.thisN,demos.thisIndex,block_1.thisRepN,block_1.thisTrialN,block_1.thisN,block_1.thisIndex,block_2.thisRepN,block_2.thisTrialN,block_2.thisN,block_2.thisIndex,text_3.started,text_3.stopped,Task.started,Task.stopped,text_10.started,text_10.stopped,key_resp.keys,key_resp.rt,key_resp.started,key_resp.stopped,image_2.started,image_2.stopped,text_5.started,text_5.stopped,image_3.started,image_3.stopped,text_6.started,text_6.stopped,translucency.started,translucency.stopped,see_throughness.started,see_throughness.stopped,glow.started,glow.stopped,key_resp_10.keys,key_resp_10.rt,key_resp_10.started,key_resp_10.stopped,instruction.started,instruction.stopped,text_12.started,text_12.stopped,Trial_number.started,Trial_number.stopped,image.started,image.stopped,Instruction.started,Instruction.stopped,translucency_score.response,translucency_score.rt,translucency_score.started,translucency_score.stopped,Translucency.started,Translucency.stopped,seethroughness_score.response,seethroughness_score.rt,seethroughness_score.started,seethroughness_score.stopped,SeeThroughness.started,SeeThroughness.stopped,glow_score.response,glow_score.rt,glow_score.started,glow_score.stopped,Glow.started,Glow.stopped,to_next.keys,to_next.rt,to_next.started,to_next.stopped,grading_label_left.started,grading_label_left.stopped,grading_label_right.started,grading_label_right.stopped,instruct1.started,instruct1.stopped,instruct2.started,instruct2.stopped,text_4.started,text_4.stopped,text_2.started,text_2.stopped,session,date,expName,psychopyVersion,frameRate,Unnamed: 94
0,,,,,,,,,,,,,,,,,11.333950779022416,None,105.82983055899967,None,110.96479337400524,None,space,13.475084064004475,115.93392461401528,None,,,,,,,,,,,,,,,,,,,,,,,,,,,,,,,,,,,,,,,,,,,,,,,,,,,,,,,,,,,,,,,1,2022_Mar_25_1706,SAR-soap,2021.1.2,59.95664834685586,
1,,,,,,,,,,,,,,,,,,,,,,,,,,,129.90513303500484,None,129.90513303500484,None,135.44012034501066,None,135.44012034501066,None,142.82461720201536,None,142.82461720201536,None,142.82461720201536,None,space,17.82433276801021,142.82461720201536,None,,,,,,,,,,,,,,,,,,,,,,,,,,,,,,,,,,,,,,,,,,,,,1,2022_Mar_25_1706,SAR-soap,2021.1.2,59.95664834685586,
2,Demo 1,demo/Demo_IMG_0974.jpg,demo,Demo_IMG_0974.jpg,0.0,0.0,0.0,0.0,,,,,,,,,,,,,,,,,,,,,,,,,,,,,,,,,,,,,142.82461720201536,None,160.68134756601648,None,163.0642919560196,None,163.0642919560196,None,163.0642919560196,None,5.0,31.85122633201536,163.0642919560196,None,163.0642919560196,None,5.0,29.989477447001263,187.78908002900425,None,163.0642919560196,None,2.0,46.13299796800129,192.59023947801325,None,163.0642919560196,None,space,2.841495003987802,46.15935613922193,None,163.0642919560196,None,163.0642919560196,None,,,,,,,,,1,2022_Mar_25_1706,SAR-soap,2021.1.2,59.95664834685586,
3,Demo 2,demo/Demo_IMG_1024.jpg,demo,Demo_IMG_1024.jpg,0.0,1.0,1.0,1.0,,,,,,,,,,,,,,,,,,,,,,,,,,,,,,,,,,,,,,,,,212.14587962802037,None,212.14587962802037,None,212.14587962802037,None,1.0,2.9890703129931357,212.14587962802037,None,212.14587962802037,None,1.0,4.678605395019986,214.681648141006,None,212.14587962802037,None,1.0,6.0838502410042565,216.38185632502427,None,212.14587962802037,None,space,1.948481967003317,6.105438344471622,None,212.14587962802037,None,212.14587962802037,None,,,,,,,,,1,2022_Mar_25_1706,SAR-soap,2021.1.2,59.95664834685586,
4,Demo 3,demo/Demo_seed_80003.png,demo,Demo_seed_80003.png,0.0,2.0,2.0,2.0,,,,,,,,,,,,,,,,,,,,,,,,,,,,,,,,,,,,,,,,,220.2993578880269,None,220.2993578880269,None,220.2993578880269,None,5.0,5.676999260002049,220.2993578880269,None,220.2993578880269,None,6.0,10.633415543008596,225.5185449050041,None,220.2993578880269,None,2.0,28.94370027998229,230.4855982100125,None,220.2993578880269,None,space,1.067586997000035,28.968291051511187,None,220.2993578880269,None,220.2993578880269,None,,,,,,,,,1,2022_Mar_25_1706,SAR-soap,2021.1.2,59.95664834685586,
5,Trial # 1,Group1-stimuli/group1-block1/real-group1-b1/Group1_IMG_0022.jpg,1,Group1_IMG_0022.jpg,,,,,0.0,0.0,0.0,0.0,,,,,,,,,,,,,,,,,,,,,,,,,,,,,,,,,,,,,274.849761725025,None,274.849761725025,None,274.849761725025,None,1.0,19.337197468994415,274.849761725025,None,274.849761725025,None,1.0,26.812490299984347,278.116460174002,None,274.849761725025,None,1.0,14.815316781023284,280.38411927901325,None,274.849761725025,None,space,12.941081621014746,14.845551188045649,None,274.849761725025,None,274.849761725025,None,250.3258542719996,None,250.3258542719996,None,250.3258542719996,None,,,1,2022_Mar_25_1706,SAR-soap,2021.1.2,59.95664834685586,
6,Trial # 2,Group1-stimuli/group1-block1/fake-group2-b1/encoded_Group2_IMG_0386.jpg,0,encoded_Group2_IMG_0386.jpg,,,,,0.0,1.0,1.0,1.0,,,,,,,,,,,,,,,,,,,,,,,,,,,,,,,,,,,,,302.69046819300274,None,302.69046819300274,None,302.69046819300274,None,2.0,6.794604542985326,302.69046819300274,None,302.69046819300274,None,1.0,8.884454531013034,309.025904456008,None,302.69046819300274,None,1.0,11.022882760007631,311.1279637920088,None,302.69046819300274,None,space,0.4217464170069434,11.046389327384531,None,302.69046819300274,None,302.69046819300274,None,,,,,,,,,1,2022_Mar_25_1706,SAR-soap,2021.1.2,59.95664834685586,
7,Trial # 3,Group1-stimuli/group1-block1/real-group1-b1/Group1_IMG_9704.jpg,1,Group1_IMG_9704.jpg,,,,,0.0,2.0,2.0,2.0,,,,,,,,,,,,,,,,,,,,,,,,,,,,,,,,,,,,,314.1778797900188,None,314.1778797900188,None,314.1778797900188,None,1.0,2.0290694760042243,314.1778797900188,None,314.1778797900188,None,1.0,2.852478341985261,315.76155905102496,None,314.1778797900188,None,1.0,3.956158132001292,316.5948006880062,None,314.1778797900188,None,space,13.499013502005257,3.983986342413118,None,314.1778797900188,None,314.1778797900188,None,,,,,,,,,1,2022_Mar_25_1706,SAR-soap,2021.1.2,59.95664834685586,
8,Trial # 4,Group1-stimuli/group1-block1/real-group1-b1/Group1_IMG_0406.jpg,1,Group1_IMG_0406.jpg,,,,,0.0,3.0,3.0,3.0,,,,,,,,,,,,,,,,,,,,,,,,,,,,,,,,,,,,,331.699982465012,None,331.699982465012,None,331.699982465012,None,2.0,10.89326767899911,331.699982465012,None,331.699982465012,None,1.0,12.450956206012052,342.1362165080209,None,331.699982465012,None,1.0,13.72363888801192,343.7036684760242,None,331.699982465012,None,space,0.4794930710049812,13.745305911405012,None,331.699982465012,None,331.699982465012,None,,,,,,,,,1,2022_Mar_25_1706,SAR-soap,2021.1.2,59.95664834685586,
9,Trial # 5,Group1-stimuli/group1-block1/fake-group2-b1/encoded_Group2_IMG_0364.jpg,0,encoded_Group2_IMG_0364.jpg,,,,,0.0,4.0,4.0,4.0,,,,,,,,,,,,,,,,,,,,,,,,,,,,,,,,,,,,,345.97145920302137,None,345.97145920302137,None,345.97145920302137,None,1.0,5.910660983005073,345.97145920302137,None,345.97145920302137,None,1.0,6.8324147920066025,351.4226413690194,None,345.97145920302137,None,1.0,7.70456886899774,352.35571888202685,None,345.97145920302137,None,space,0.370843843993498,7.729613265371881,None,345.97145920302137,None,345.97145920302137,None,,,,,,,,,1,2022_Mar_25_1706,SAR-soap,2021.1.2,59.95664834685586,
10,Trial # 6,Group1-stimuli/group1-block1/fake-group2-b1/encoded_Group2_IMG_0407.jpg,0,encoded_Group2_IMG_0407.jpg,,,,,0.0,5.0,5.0,5.0,,,,,,,,,,,,,,,,,,,,,,,,,,,,,,,,,,,,,354.1244042910112,None,354.1244042910112,None,354.1244042910112,None,1.0,27.47023411799455,354.1244042910112,None,354.1244042910112,None,1.0,24.5069556189992,371.2468877300271,None,354.1244042910112,None,1.0,28.312802966014715,376.3481172420143,None,354.1244042910112,None,space,-24.89161014399724,28.33856319639017,None,354.1244042910112,None,354.1244042910112,None,,,,,,,,,1,2022_Mar_25_1706,SAR-soap,2021.1.2,59.95664834685586,
11,Trial # 7,Group1-stimuli/group1-block1/real-group1-b1/Group1_IMG_0428.jpg,1,Group1_IMG_0428.jpg,,,,,0.0,6.0,6.0,6.0,,,,,,,,,,,,,,,,,,,,,,,,,,,,,,,,,,,,,382.4818328830006,None,382.4818328830006,None,382.4818328830006,None,5.0,4.942520192998927,382.4818328830006,None,382.4818328830006,None,3.0,8.417220173025271,386.9668127600162,None,382.4818328830006,None,2.0,15.95622023602482,389.2846820170234,None,382.4818328830006,None,space,-15.848762580018956,15.979492767364718,None,382.4818328830006,None,382.4818328830006,None,,,,,,,,,1,2022_Mar_25_1706,SAR-soap,2021.1.2,59.95664834685586,
12,Trial # 8,Group1-stimuli/group1-block1/fake-group2-b1/encoded_Group2_IMG_0474.jpg,0,encoded_Group2_IMG_0474.jpg,,,,,0.0,7.0,7.0,7.0,,,,,,,,,,,,,,,,,,,,,,,,,,,,,,,,,,,,,398.4867803110101,None,398.4867803110101,None,398.4867803110101,None,1.0,2.0279543480137363,398.4867803110101,None,398.4867803110101,None,1.0,2.816811052005505,400.05539693601895,None,398.4867803110101,None,1.0,3.621879501995864,400.8543520790117,None,398.4867803110101,None,space,1.3787587949773297,3.646942944382317,None,398.4867803110101,None,398.4867803110101,None,,,,,,,,,1,2022_Mar_25_1706,SAR-soap,2021.1.2,59.95664834685586,
13,Trial # 9,Group1-stimuli/group1-block1/fake-group2-b1/encoded_Group2_IMG_1506.jpg,0,encoded_Group2_IMG_1506.jpg,,,,,0.0,8.0,8.0,8.0,,,,,,,,,,,,,,,,,,,,,,,,,,,,,,,,,,,,,403.55503631502506,None,403.55503631502506,None,403.55503631502506,None,6.0,3.044205760990735,403.55503631502506,None,403.55503631502506,None,6.0,7.566353809001157,406.14058192502125,None,403.55503631502506,None,2.0,16.809631236013956,410.67491015800624,None,403.55503631502506,None,space,0.4507156860199757,16.833552429423435,None,403.55503631502506,None,403.55503631502506,None,,,,,,,,,1,2022_Mar_25_1706,SAR-soap,2021.1.2,59.95664834685586,
14,Trial # 10,Group1-stimuli/group1-block1/real-group1-b1/Group1_IMG_9789.jpg,1,Group1_IMG_9789.jpg,,,,,0.0,9.0,9.0,9.0,,,,,,,,,,,,,,,,,,,,,,,,,,,,,,,,,,,,,420.8773998130055,None,420.8773998130055,None,420.8773998130055,None,1.0,2.125970393011812,420.8773998130055,None,420.8773998130055,None,1.0,3.015124739991734,422.5449421600206,None,420.8773998130055,None,1.0,4.255222322011832,423.444789125002,None,420.8773998130055,None,space,1.162675647996366,4.280641716381069,None,420.8773998130055,None,420.8773998130055,None,,,,,,,,,1,2022_Mar_25_1706,SAR-soap,2021.1.2,59.95664834685586,
15,Trial # 11,Group1-stimuli/group1-block1/real-group1-b1/Group1_IMG_9778.jpg,1,Group1_IMG_9778.jpg,,,,,0.0,10.0,10.0,10.0,,,,,,,,,,,,,,,,,,,,,,,,,,,,,,,,,,,,,426.3288638930244,None,426.3288638930244,None,426.3288638930244,None,5.0,14.06672816799255,426.3288638930244,None,426.3288638930244,None,3.0,16.589461472001858,439.9510842660093,None,426.3288638930244,None,2.0,18.095129215013003,440.8838413780031,None,426.3288638930244,None,space,-8.806004406011198,18.122178829362383,None,426.3288638930244,None,426.3288638930244,None,,,,,,,,,1,2022_Mar_25_1706,SAR-soap,2021.1.2,59.95664834685586,
16,Trial # 12,Group1-stimuli/group1-block1/real-group1-b1/Group1_IMG_9813.jpg,1,Group1_IMG_9813.jpg,,,,,0.0,11.0,11.0,11.0,,,,,,,,,,,,,,,,,,,,,,,,,,,,,,,,,,,,,444.4855408860021,None,444.4855408860021,None,444.4855408860021,None,1.0,1.8120601630071176,444.4855408860021,None,444.4855408860021,None,1.0,2.467563693993725,445.835752207,None,444.4855408860021,None,1.0,3.205914660997223,446.5022070760024,None,444.4855408860021,None,space,2.006850099976873,3.231361973390449,None,444.4855408860021,None,444.4855408860021,None,,,,,,,,,1,2022_Mar_25_1706,SAR-soap,2021.1.2,59.95664834685586,
17,Trial # 13,Group1-stimuli/group1-block1/real-group1-b1/Group1_IMG_0516.jpg,1,Group1_IMG_0516.jpg,,,,,0.0,12.0,12.0,12.0,,,,,,,,,,,,,,,,,,,,,,,,,,,,,,,,,,,,,449.7529856840265,None,449.7529856840265,None,449.7529856840265,None,6.0,3.2951755760004744,449.7529856840265,None,449.7529856840265,None,3.0,7.351987011003075,452.6038245030213,None,449.7529856840265,None,3.0,17.660813060007058,453.97070897600497,None,449.7529856840265,None,space,6.076862618996529,11.886289750400463,None,449.7529856840265,None,449.7529856840265,None,,,,,,,,,1,2022_Mar_25_1706,SAR-soap,2021.1.2,59.95664834685586,
18,Trial # 14,Group1-stimuli/group1-block1/fake-group2-b1/encoded_Group2_IMG_0038.jpg,0,encoded_Group2_IMG_0038.jpg,,,,,0.0,13.0,13.0,13.0,,,,,,,,,,,,,,,,,,,,,,,,,,,,,,,,,,,,,467.7755246240122,None,467.7755246240122,None,467.7755246240122,None,2.0,14.598335966991726,467.7755246240122,None,467.7755246240122,None,1.0,8.66745214399998,471.8600158220215,None,467.7755246240122,None,1.0,16.375170893996255,473.6267725100042,None,467.7755246240122,None,space,7.712581330008106,9.666072646388784,None,467.7755246240122,None,467.7755246240122,None,,,,,,,,,1,2022_Mar_25_1706,SAR-soap,2021.1.2,59.95664834685586,
19,Trial # 15,Group1-stimuli/group1-block1/real-group1-b1/Group1_IMG_5984.jpg,1,Group1_IMG_5984.jpg,,,,,0.0,14.0,14.0,14.0,,,,,,,,,,,,,,,,,,,,,,,,,,,,,,,,,,,,,485.1807603200141,None,485.1807603200141,None,485.1807603200141,None,1.0,3.411695990012958,485.1807603200141,None,485.1807603200141,None,1.0,4.1679549450054765,488.1477206280106,None,485.1807603200141,None,1.0,4.940056185994763,488.91527110902825,None,485.1807603200141,None,space,1.7270912560052238,4.968084253399866,None,485.1807603200141,None,485.1807603200141,None,,,,,,,,,1,2022_Mar_25_1706,SAR-soap,2021.1.2,59.95664834685586,
20,Trial # 16,Group1-stimuli/group1-block1/real-group1-b1/Group1_IMG_0383.jpg,1,Group1_IMG_0383.jpg,,,,,0.0,15.0,15.0,15.0,,,,,,,,,,,,,,,,,,,,,,,,,,,,,,,,,,,,,491.9166916990071,None,491.9166916990071,None,491.9166916990071,None,6.0,19.51508391799871,491.9166916990071,None,491.9166916990071,None,3.0,8.4838804010069,496.5179246379994,None,491.9166916990071,None,4.0,25.659587089990964,499.0508829320024,None,491.9166916990071,None,space,6.301509579992853,24.116372999415034,None,491.9166916990071,None,491.9166916990071,None,,,,,,,,,1,2022_Mar_25_1706,SAR-soap,2021.1.2,59.95664834685586,
21,Trial # 17,Group1-stimuli/group1-block1/fake-group2-b1/encoded_Group2_IMG_0456.jpg,0,encoded_Group2_IMG_0456.jpg,,,,,0.0,16.0,16.0,16.0,,,,,,,,,,,,,,,,,,,,,,,,,,,,,,,,,,,,,522.3581741420203,None,522.3581741420203,None,522.3581741420203,None,5.0,2.594533074006904,522.3581741420203,None,522.3581741420203,None,3.0,15.485857446008596,524.4938386360009,None,522.3581741420203,None,3.0,12.624946393014396,526.826747802028,None,522.3581741420203,None,space,6.205020504014101,9.549271177413177,None,522.3581741420203,None,522.3581741420203,None,,,,,,,,,1,2022_Mar_25_1706,SAR-soap,2021.1.2,59.95664834685586,
22,Trial # 18,Group1-stimuli/group1-block1/fake-group2-b1/encoded_Group2_IMG_8390.jpg,0,encoded_Group2_IMG_8390.jpg,,,,,0.0,17.0,17.0,17.0,,,,,,,,,,,,,,,,,,,,,,,,,,,,,,,,,,,,,538.1470682250219,None,538.1470682250219,None,538.1470682250219,None,5.0,4.498781733011128,538.1470682250219,None,538.1470682250219,None,3.0,10.523073053976988,542.1987208540086,None,538.1470682250219,None,5.0,8.96148679498583,544.8000156360213,None,538.1470682250219,None,space,5.408236707007745,8.989829739439301,None,538.1470682250219,None,538.1470682250219,None,,,,,,,,,1,2022_Mar_25_1706,SAR-soap,2021.1.2,59.95664834685586,
23,Trial # 19,Group1-stimuli/group1-block1/real-group1-b1/Group1_IMG_0011.jpg,1,Group1_IMG_0011.jpg,,,,,0.0,18.0,18.0,18.0,,,,,,,,,,,,,,,,,,,,,,,,,,,,,,,,,,,,,552.6009556420031,None,552.6009556420031,None,552.6009556420031,None,5.0,12.595731187000638,552.6009556420031,None,552.6009556420031,None,3.0,20.68557239600341,564.7399366169993,None,552.6009556420031,None,3.0,19.090307027014205,568.639296052017,None,552.6009556420031,None,space,4.9056695990148,19.114841955393786,None,552.6009556420031,None,552.6009556420031,None,,,,,,,,,1,2022_Mar_25_1706,SAR-soap,2021.1.2,59.95664834685586,
24,Trial # 20,Group1-stimuli/group1-block1/fake-group2-b1/encoded_Group2_IMG_0328.jpg,0,encoded_Group2_IMG_0328.jpg,,,,,0.0,19.0,19.0,19.0,,,,,,,,,,,,,,,,,,,,,,,,,,,,,,,,,,,,,576.6591132900212,None,576.6591132900212,None,576.6591132900212,None,1.0,2.064315672992961,576.6591132900212,None,576.6591132900212,None,1.0,2.8203397399920505,578.2762155580276,None,576.6591132900212,None,1.0,3.6587302739790175,579.0422310540162,None,576.6591132900212,None,space,4.004784474003827,3.689762876398163,None,576.6591132900212,None,576.6591132900212,None,,,,,,,,,1,2022_Mar_25_1706,SAR-soap,2021.1.2,59.95664834685586,
25,Trial # 21,Group1-stimuli/group1-block1/fake-group2-b1/encoded_Group2_IMG_0163.jpg,0,encoded_Group2_IMG_0163.jpg,,,,,0.0,20.0,20.0,20.0,,,,,,,,,,,,,,,,,,,,,,,,,,,,,,,,,,,,,584.3954762590001,None,584.3954762590001,None,584.3954762590001,None,6.0,2.282520859997021,584.3954762590001,None,584.3954762590001,None,5.0,4.504665627988288,586.2299164760043,None,584.3954762590001,None,5.0,7.812750479002716,588.4621571350144,None,584.3954762590001,None,space,1.3589421049982775,7.840759903367143,None,584.3954762590001,None,584.3954762590001,None,,,,,,,,,1,2022_Mar_25_1706,SAR-soap,2021.1.2,59.95664834685586,
26,Trial # 22,Group1-stimuli/group1-block1/real-group1-b1/Group1_IMG_9862.jpg,1,Group1_IMG_9862.jpg,,,,,0.0,21.0,21.0,21.0,,,,,,,,,,,,,,,,,,,,,,,,,,,,,,,,,,,,,593.6135289270023,None,593.6135289270023,None,593.6135289270023,None,1.0,1.9287372319959104,593.6135289270023,None,593.6135289270023,None,1.0,2.4855749309936077,595.0989631940029,None,593.6135289270023,None,1.0,3.1555204309988767,595.6645575260045,None,593.6135289270023,None,space,0.2708042610029224,3.183447818417335,None,593.6135289270023,None,593.6135289270023,None,,,,,,,,,1,2022_Mar_25_1706,SAR-soap,2021.1.2,59.95664834685586,
27,Trial # 23,Group1-stimuli/group1-block1/fake-group2-b1/encoded_Group2_IMG_0296.jpg,0,encoded_Group2_IMG_0296.jpg,,,,,0.0,22.0,22.0,22.0,,,,,,,,,,,,,,,,,,,,,,,,,,,,,,,,,,,,,597.1148053880024,None,597.1148053880024,None,597.1148053880024,None,6.0,2.197609694005223,597.1148053880024,None,597.1148053880024,None,5.0,8.923331641010009,598.8656877220201,None,597.1148053880024,None,6.0,8.361058709997451,602.333223530004,None,597.1148053880024,None,space,4.29500618900056,8.390437648369698,None,597.1148053880024,None,597.1148053880024,None,,,,,,,,,1,2022_Mar_25_1706,SAR-soap,2021.1.2,59.95664834685586,
28,Trial # 24,Group1-stimuli/group1-block1/fake-group2-b1/encoded_Group2_IMG_0503.jpg,0,encoded_Group2_IMG_0503.jpg,,,,,0.0,23.0,23.0,23.0,,,,,,,,,,,,,,,,,,,,,,,,,,,,,,,,,,,,,609.8200732460245,None,609.8200732460245,None,609.8200732460245,None,6.0,2.3467877989751287,609.8200732460245,None,609.8200732460245,None,6.0,10.772712901991326,611.7198013529996,None,609.8200732460245,None,6.0,6.109103676019004,613.6863646370184,None,609.8200732460245,None,space,4.8505310470063705,6.138589260401204,None,609.8200732460245,None,609.8200732460245,None,,,,,,,,,1,2022_Mar_25_1706,SAR-soap,2021.1.2,59.95664834685586,
29,Trial # 25,Group1-stimuli/group1-block1/fake-group2-b1/encoded_Group2_IMG_9804.jpg,0,encoded_Group2_IMG_9804.jpg,,,,,0.0,24.0,24.0,24.0,,,,,,,,,,,,,,,,,,,,,,,,,,,,,,,,,,,,,620.8398624880065,None,620.8398624880065,None,620.8398624880065,None,1.0,1.698344170989003,620.8398624880065,None,620.8398624880065,None,1.0,2.287180031009484,622.0900953920209,None,620.8398624880065,None,1.0,2.760884713003179,622.6896444950253,None,620.8398624880065,None,space,0.2775692649884149,2.78721581940772,None,620.8398624880065,None,620.8398624880065,None,,,,,,,,,1,2022_Mar_25_1706,SAR-soap,2021.1.2,59.95664834685586,
30,Trial # 26,Group1-stimuli/group1-block1/real-group1-b1/Group1_IMG_0391.jpg,1,Group1_IMG_0391.jpg,,,,,0.0,25.0,25.0,25.0,,,,,,,,,,,,,,,,,,,,,,,,,,,,,,,,,,,,,623.9568687590072,None,623.9568687590072,None,623.9568687590072,None,5.0,4.829341925011249,623.9568687590072,None,623.9568687590072,None,3.0,8.052369434008142,627.6074182020093,None,623.9568687590072,None,1.0,9.623480299022049,631.5588911610248,None,623.9568687590072,None,space,2.1643355599953797,9.650701623409986,None,623.9568687590072,None,623.9568687590072,None,,,,,,,,,1,2022_Mar_25_1706,SAR-soap,2021.1.2,59.95664834685586,
31,Trial # 27,Group1-stimuli/group1-block1/fake-group2-b1/encoded_Group2_IMG_3584.jpg,0,encoded_Group2_IMG_3584.jpg,,,,,0.0,26.0,26.0,26.0,,,,,,,,,,,,,,,,,,,,,,,,,,,,,,,,,,,,,635.7944232200098,None,635.7944232200098,None,635.7944232200098,None,5.0,3.9931055750057567,635.7944232200098,None,635.7944232200098,None,3.0,5.083561653009383,639.3289877990028,None,635.7944232200098,None,2.0,7.788420055003371,640.4295610440022,None,635.7944232200098,None,space,0.3131614940066356,7.811156378389569,None,635.7944232200098,None,635.7944232200098,None,,,,,,,,,1,2022_Mar_25_1706,SAR-soap,2021.1.2,59.95664834685586,
32,Trial # 28,Group1-stimuli/group1-block1/fake-group2-b1/encoded_Group2_IMG_0434.jpg,0,encoded_Group2_IMG_0434.jpg,,,,,0.0,27.0,27.0,27.0,,,,,,,,,,,,,,,,,,,,,,,,,,,,,,,,,,,,,643.962745472003,None,643.962745472003,None,643.962745472003,None,6.0,4.527548921003472,643.962745472003,None,643.962745472003,None,5.0,8.501571616972797,648.0308159860142,None,643.962745472003,None,4.0,17.644570978998672,652.0157775780244,None,643.962745472003,None,space,8.59494173899293,11.499709039373556,None,643.962745472003,None,643.962745472003,None,,,,,,,,,1,2022_Mar_25_1706,SAR-soap,2021.1.2,59.95664834685586,
33,Trial # 29,Group1-stimuli/group1-block1/fake-group2-b1/encoded_Group2_IMG_9575.jpg,0,encoded_Group2_IMG_9575.jpg,,,,,0.0,28.0,28.0,28.0,,,,,,,,,,,,,,,,,,,,,,,,,,,,,,,,,,,,,664.0682056790101,None,664.0682056790101,None,664.0682056790101,None,1.0,5.465159582003253,664.0682056790101,None,664.0682056790101,None,1.0,15.62558199398336,669.087457726011,None,664.0682056790101,None,1.0,17.56236114600324,679.2583067900268,None,664.0682056790101,None,space,1.1953986609878484,17.592463696404593,None,664.0682056790101,None,664.0682056790101,None,,,,,,,,,1,2022_Mar_25_1706,SAR-soap,2021.1.2,59.95664834685586,
34,Trial # 30,Group1-stimuli/group1-block1/fake-group2-b1/encoded_Group2_IMG_1025.jpg,0,encoded_Group2_IMG_1025.jpg,,,,,0.0,29.0,29.0,29.0,,,,,,,,,,,,,,,,,,,,,,,,,,,,,,,,,,,,,682.8744912120164,None,682.8744912120164,None,682.8744912120164,None,1.0,1.9307437319948804,682.8744912120164,None,682.8744912120164,None,1.0,2.68799951398978,684.3600133720029,None,682.8744912120164,None,1.0,4.1254084069805685,685.1262692720047,None,682.8744912120164,None,space,2.610916040983284,4.155018685385585,None,682.8744912120164,None,682.8744912120164,None,,,,,,,,,1,2022_Mar_25_1706,SAR-soap,2021.1.2,59.95664834685586,
35,Trial # 31,Group1-stimuli/group1-block1/real-group1-b1/Group1_IMG_0502.jpg,1,Group1_IMG_0502.jpg,,,,,0.0,30.0,30.0,30.0,,,,,,,,,,,,,,,,,,,,,,,,,,,,,,,,,,,,,689.6779185960186,None,689.6779185960186,None,689.6779185960186,None,6.0,9.414136666018749,689.6779185960186,None,689.6779185960186,None,4.0,18.07296926301205,698.646131106012,None,689.6779185960186,None,6.0,12.543205713009227,699.8468477890128,None,689.6779185960186,None,space,6.028582207974978,12.570547615381656,None,689.6779185960186,None,689.6779185960186,None,,,,,,,,,1,2022_Mar_25_1706,SAR-soap,2021.1.2,59.95664834685586,
36,Trial # 32,Group1-stimuli/group1-block1/real-group1-b1/Group1_IMG_0182.jpg,1,Group1_IMG_0182.jpg,,,,,0.0,31.0,31.0,31.0,,,,,,,,,,,,,,,,,,,,,,,,,,,,,,,,,,,,,708.3155600980099,None,708.3155600980099,None,708.3155600980099,None,6.0,3.095012714009499,708.3155600980099,None,708.3155600980099,None,6.0,8.285093489976134,710.9517724930192,None,708.3155600980099,None,3.0,23.42754492998938,716.1523218360089,None,708.3155600980099,None,space,10.86384701501811,13.550557922397276,None,708.3155600980099,None,708.3155600980099,None,,,,,,,,,1,2022_Mar_25_1706,SAR-soap,2021.1.2,59.95664834685586,
37,Trial # 33,Group1-stimuli/group1-block1/fake-group2-b1/encoded_Group2_IMG_2728.jpg,0,encoded_Group2_IMG_2728.jpg,,,,,0.0,32.0,32.0,32.0,,,,,,,,,,,,,,,,,,,,,,,,,,,,,,,,,,,,,732.7402397550177,None,732.7402397550177,None,732.7402397550177,None,2.0,6.967076368018752,732.7402397550177,None,732.7402397550177,None,1.0,3.5721638149989303,735.1416508110124,None,732.7402397550177,None,1.0,4.210432200983632,735.8744337970275,None,732.7402397550177,None,space,10.406256521004252,4.238955587352393,None,732.7402397550177,None,732.7402397550177,None,,,,,,,,,1,2022_Mar_25_1706,SAR-soap,2021.1.2,59.95664834685586,
38,Trial # 34,Group1-stimuli/group1-block1/fake-group2-b1/encoded_Group2_IMG_4867.jpg,0,encoded_Group2_IMG_4867.jpg,,,,,0.0,33.0,33.0,33.0,,,,,,,,,,,,,,,,,,,,,,,,,,,,,,,,,,,,,747.4275152800255,None,747.4275152800255,None,747.4275152800255,None,5.0,2.115773318975698,747.4275152800255,None,747.4275152800255,None,2.0,4.254967407992808,749.0956929010281,None,747.4275152800255,None,5.0,8.96275393399992,751.2458624600258,None,747.4275152800255,None,space,4.366598212975077,6.424200560402824,None,747.4275152800255,None,747.4275152800255,None,,,,,,,,,1,2022_Mar_25_1706,SAR-soap,2021.1.2,59.95664834685586,
39,Trial # 35,Group1-stimuli/group1-block1/real-group1-b1/Group1_IMG_9894.jpg,1,Group1_IMG_9894.jpg,,,,,0.0,34.0,34.0,34.0,,,,,,,,,,,,,,,,,,,,,,,,,,,,,,,,,,,,,758.230584769015,None,758.230584769015,None,758.230584769015,None,1.0,1.630123592010932,758.230584769015,None,758.230584769015,None,1.0,2.219167464994825,759.4162429320277,None,758.230584769015,None,1.0,2.8232547660009004,760.016669810022,None,758.230584769015,None,space,0.7375741130090319,2.852128994418308,None,758.230584769015,None,758.230584769015,None,,,,,,,,,1,2022_Mar_25_1706,SAR-soap,2021.1.2,59.95664834685586,
40,Trial # 36,Group1-stimuli/group1-block1/fake-group2-b1/encoded_Group2_IMG_0444.jpg,0,encoded_Group2_IMG_0444.jpg,,,,,0.0,35.0,35.0,35.0,,,,,,,,,,,,,,,,,,,,,,,,,,,,,,,,,,,,,761.8664076109999,None,761.8664076109999,None,761.8664076109999,None,2.0,5.450892627006397,761.8664076109999,None,761.8664076109999,None,1.0,6.822643013991183,763.5162327070138,None,761.8664076109999,None,1.0,8.26232222301769,768.250756243011,None,761.8664076109999,None,space,2.292339206003817,8.292851669364609,None,761.8664076109999,None,761.8664076109999,None,,,,,,,,,1,2022_Mar_25_1706,SAR-soap,2021.1.2,59.95664834685586,
41,Trial # 37,Group1-stimuli/group1-block1/real-group1-b1/Group1_IMG_2656.jpg,1,Group1_IMG_2656.jpg,,,,,0.0,36.0,36.0,36.0,,,,,,,,,,,,,,,,,,,,,,,,,,,,,,,,,,,,,772.4694939710025,None,772.4694939710025,None,772.4694939710025,None,1.0,3.030507441988448,772.4694939710025,None,772.4694939710025,None,1.0,3.6874666740186512,775.0539382720017,None,772.4694939710025,None,1.0,4.25848530800431,775.7206760870176,None,772.4694939710025,None,space,0.4592502870073076,4.286613501375541,None,772.4694939710025,None,772.4694939710025,None,,,,,,,,,1,2022_Mar_25_1706,SAR-soap,2021.1.2,59.95664834685586,
42,Trial # 38,Group1-stimuli/group1-block1/real-group1-b1/Group1_IMG_0207.jpg,1,Group1_IMG_0207.jpg,,,,,0.0,37.0,37.0,37.0,,,,,,,,,,,,,,,,,,,,,,,,,,,,,,,,,,,,,777.253738651023,None,777.253738651023,None,777.253738651023,None,1.0,2.6416308880143333,777.253738651023,None,777.253738651023,None,1.0,3.232362443988677,779.4394587570278,None,777.253738651023,None,1.0,4.104081083001802,780.03921984302,None,777.253738651023,None,space,0.6642910689988639,4.126528508408228,None,777.253738651023,None,777.253738651023,None,,,,,,,,,1,2022_Mar_25_1706,SAR-soap,2021.1.2,59.95664834685586,
43,Trial # 39,Group1-stimuli/group1-block1/real-group1-b1/Group1_IMG_9638.jpg,1,Group1_IMG_9638.jpg,,,,,0.0,38.0,38.0,38.0,,,,,,,,,,,,,,,,,,,,,,,,,,,,,,,,,,,,,782.0722645500209,None,782.0722645500209,None,782.0722645500209,None,5.0,6.664449139992939,782.0722645500209,None,782.0722645500209,None,3.0,13.472102866013302,783.8723845390195,None,782.0722645500209,None,5.0,15.4098484510032,795.094094206026,None,782.0722645500209,None,space,2.783701648004353,15.43668215238722,None,782.0722645500209,None,782.0722645500209,None,,,,,,,,,1,2022_Mar_25_1706,SAR-soap,2021.1.2,59.95664834685586,
44,Trial # 40,Group1-stimuli/group1-block1/real-group1-b1/Group1_IMG_0148.jpg,1,Group1_IMG_0148.jpg,,,,,0.0,39.0,39.0,39.0,,,,,,,,,,,,,,,,,,,,,,,,,,,,,,,,,,,,,800.3116940780019,None,800.3116940780019,None,800.3116940780019,None,6.0,1.9281264320015907,800.3116940780019,None,800.3116940780019,None,6.0,5.920032630005153,801.7949560550041,None,800.3116940780019,None,3.0,9.857992431992898,805.7972067700175,None,800.3116940780019,None,space,3.190490824985318,9.886344461410772,None,800.3116940780019,None,800.3116940780019,None,,,,,,,,,1,2022_Mar_25_1706,SAR-soap,2021.1.2,59.95664834685586,
45,Trial # 41,Group1-stimuli/group1-block1/real-group1-b1/Group1_IMG_2891.jpg,1,Group1_IMG_2891.jpg,,,,,0.0,40.0,40.0,40.0,,,,,,,,,,,,,,,,,,,,,,,,,,,,,,,,,,,,,813.432152955007,None,813.432152955007,None,813.432152955007,None,2.0,3.5294282599934377,813.432152955007,None,813.432152955007,None,1.0,4.168157010019058,814.6495912550017,None,813.432152955007,None,1.0,5.972816155990586,817.1496025510132,None,813.432152955007,None,space,6.436657810001634,5.999993828358129,None,813.432152955007,None,813.432152955007,None,,,,,,,,,1,2022_Mar_25_1706,SAR-soap,2021.1.2,59.95664834685586,
46,Trial # 42,Group1-stimuli/group1-block1/real-group1-b1/Group1_IMG_0157.jpg,1,Group1_IMG_0157.jpg,,,,,0.0,41.0,41.0,41.0,,,,,,,,,,,,,,,,,,,,,,,,,,,,,,,,,,,,,825.8863253210147,None,825.8863253210147,None,825.8863253210147,None,5.0,2.3438008680241182,825.8863253210147,None,825.8863253210147,None,3.0,6.000699368014466,827.7696307210135,None,825.8863253210147,None,4.0,9.608424556994578,830.3040243800206,None,825.8863253210147,None,space,1.4436543729971163,9.632599940377986,None,825.8863253210147,None,825.8863253210147,None,,,,,,,,,1,2022_Mar_25_1706,SAR-soap,2021.1.2,59.95664834685586,
47,Trial # 43,Group1-stimuli/group1-block1/real-group1-b1/Group1_IMG_9833.jpg,1,Group1_IMG_9833.jpg,,,,,0.0,42.0,42.0,42.0,,,,,,,,,,,,,,,,,,,,,,,,,,,,,,,,,,,,,837.005923388002,None,837.005923388002,None,837.005923388002,None,1.0,1.678357231983682,837.005923388002,None,837.005923388002,None,1.0,2.334895890002372,838.2237700780097,None,837.005923388002,None,1.0,2.974246718018549,838.8895015520102,None,837.005923388002,None,space,0.9422428469988516,2.9986981773690786,None,837.005923388002,None,837.005923388002,None,,,,,,,,,1,2022_Mar_25_1706,SAR-soap,2021.1.2,59.95664834685586,
48,Trial # 44,Group1-stimuli/group1-block1/fake-group2-b1/encoded_Group2_IMG_2230.jpg,0,encoded_Group2_IMG_2230.jpg,,,,,0.0,43.0,43.0,43.0,,,,,,,,,,,,,,,,,,,,,,,,,,,,,,,,,,,,,840.9745535170077,None,840.9745535170077,None,840.9745535170077,None,5.0,2.897588669991819,840.9745535170077,None,840.9745535170077,None,4.0,8.222190568980295,843.4247419730236,None,840.9745535170077,None,3.0,13.129040080006234,848.7597524140147,None,840.9745535170077,None,space,3.692438139987644,10.59112548836856,None,840.9745535170077,None,840.9745535170077,None,,,,,,,,,1,2022_Mar_25_1706,SAR-soap,2021.1.2,59.95664834685586,
49,Trial # 45,Group1-stimuli/group1-block1/real-group1-b1/Group1_IMG_9966.jpg,1,Group1_IMG_9966.jpg,,,,,0.0,44.0,44.0,44.0,,,,,,,,,,,,,,,,,,,,,,,,,,,,,,,,,,,,,855.295717830013,None,855.295717830013,None,855.295717830013,None,5.0,3.258569586003432,855.295717830013,None,855.295717830013,None,3.0,5.415058471990051,858.0953674050106,None,855.295717830013,None,5.0,7.520463577995542,860.2629928880197,None,855.295717830013,None,space,1.6547979919996578,7.542410251393449,None,855.295717830013,None,855.295717830013,None,,,,,,,,,1,2022_Mar_25_1706,SAR-soap,2021.1.2,59.95664834685586,
50,Trial # 46,Group1-stimuli/group1-block1/real-group1-b1/Group1_IMG_0239.jpg,1,Group1_IMG_0239.jpg,,,,,0.0,45.0,45.0,45.0,,,,,,,,,,,,,,,,,,,,,,,,,,,,,,,,,,,,,864.5145475400204,None,864.5145475400204,None,864.5145475400204,None,1.0,1.945833922014572,864.5145475400204,None,864.5145475400204,None,1.0,4.569174453004962,866.0155290820112,None,864.5145475400204,None,1.0,5.9080306550022215,868.6484915000037,None,864.5145475400204,None,space,1.6514092769939452,5.933747383387527,None,864.5145475400204,None,864.5145475400204,None,,,,,,,,,1,2022_Mar_25_1706,SAR-soap,2021.1.2,59.95664834685586,
51,Trial # 47,Group1-stimuli/group1-block1/fake-group2-b1/encoded_Group2_IMG_0536.jpg,0,encoded_Group2_IMG_0536.jpg,,,,,0.0,46.0,46.0,46.0,,,,,,,,,,,,,,,,,,,,,,,,,,,,,,,,,,,,,872.1336063710041,None,872.1336063710041,None,872.1336063710041,None,1.0,2.7495921130175702,872.1336063710041,None,872.1336063710041,None,1.0,3.6728036740096286,874.4356647410023,None,872.1336063710041,None,1.0,4.509718007990159,875.3686529170081,None,872.1336063710041,None,space,0.6961564939992968,4.540641691390192,None,872.1336063710041,None,872.1336063710041,None,,,,,,,,,1,2022_Mar_25_1706,SAR-soap,2021.1.2,59.95664834685586,
52,Trial # 48,Group1-stimuli/group1-block1/fake-group2-b1/encoded_Group2_IMG_0521.jpg,0,encoded_Group2_IMG_0521.jpg,,,,,0.0,47.0,47.0,47.0,,,,,,,,,,,,,,,,,,,,,,,,,,,,,,,,,,,,,877.3846286040207,None,877.3846286040207,None,877.3846286040207,None,4.0,11.367968121980084,877.3846286040207,None,877.3846286040207,None,1.0,5.072308044997044,880.1540788520069,None,877.3846286040207,None,3.0,8.644617550977273,882.0204886570282,None,877.3846286040207,None,space,10.126759995997418,8.674070547363954,None,877.3846286040207,None,877.3846286040207,None,,,,,,,,,1,2022_Mar_25_1706,SAR-soap,2021.1.2,59.95664834685586,
53,Trial # 49,Group1-stimuli/group1-block1/fake-group2-b1/encoded_Group2_IMG_9924.jpg,0,encoded_Group2_IMG_9924.jpg,,,,,0.0,48.0,48.0,48.0,,,,,,,,,,,,,,,,,,,,,,,,,,,,,,,,,,,,,896.2081657510134,None,896.2081657510134,None,896.2081657510134,None,1.0,2.0985648939968087,896.2081657510134,None,896.2081657510134,None,1.0,2.7205817950016358,897.8586615540262,None,896.2081657510134,None,1.0,3.259263954008929,898.4906832680281,None,896.2081657510134,None,space,0.6013806789997034,3.2885280813788995,None,896.2081657510134,None,896.2081657510134,None,,,,,,,,,1,2022_Mar_25_1706,SAR-soap,2021.1.2,59.95664834685586,
54,Trial # 50,Group1-stimuli/group1-block1/real-group1-b1/Group1_IMG_9730.jpg,1,Group1_IMG_9730.jpg,,,,,0.0,49.0,49.0,49.0,,,,,,,,,,,,,,,,,,,,,,,,,,,,,,,,,,,,,900.1254166940053,None,900.1254166940053,None,900.1254166940053,None,6.0,1.9770008740015328,900.1254166940053,None,900.1254166940053,None,5.0,3.5328656360215973,901.6427135450068,None,900.1254166940053,None,2.0,5.573475773999235,903.2091257960128,None,900.1254166940053,None,space,6.198816451011226,5.599339710403001,None,900.1254166940053,None,900.1254166940053,None,,,,,,,,,1,2022_Mar_25_1706,SAR-soap,2021.1.2,59.95664834685586,
55,Trial # 51,Group1-stimuli/group1-block1/real-group1-b1/Group1_IMG_0053.jpg,1,Group1_IMG_0053.jpg,,,,,0.0,50.0,50.0,50.0,,,,,,,,,,,,,,,,,,,,,,,,,,,,,,,,,,,,,911.9287293480012,None,911.9287293480012,None,911.9287293480012,None,1.0,2.0302141110005323,911.9287293480012,None,911.9287293480012,None,1.0,2.752221290982561,913.5126397300046,None,911.9287293480012,None,1.0,3.424556070996914,914.2461673040234,None,911.9287293480012,None,space,0.7849739480006974,3.4518632613762747,None,911.9287293480012,None,911.9287293480012,None,,,,,,,,,1,2022_Mar_25_1706,SAR-soap,2021.1.2,59.95664834685586,
56,Trial # 52,Group1-stimuli/group1-block1/real-group1-b1/Group1_IMG_9698.jpg,1,Group1_IMG_9698.jpg,,,,,0.0,51.0,51.0,51.0,,,,,,,,,,,,,,,,,,,,,,,,,,,,,,,,,,,,,916.1974842340278,None,916.1974842340278,None,916.1974842340278,None,1.0,1.5802138709987048,916.1974842340278,None,916.1974842340278,None,1.0,2.8673662090150174,917.3307292030076,None,916.1974842340278,None,1.0,3.44082331401296,918.6312386520148,None,916.1974842340278,None,space,0.6607792589929886,3.4673258104012348,None,916.1974842340278,None,916.1974842340278,None,,,,,,,,,1,2022_Mar_25_1706,SAR-soap,2021.1.2,59.95664834685586,
57,Trial # 53,Group1-stimuli/group1-block1/fake-group2-b1/encoded_Group2_IMG_0553.jpg,0,encoded_Group2_IMG_0553.jpg,,,,,0.0,52.0,52.0,52.0,,,,,,,,,,,,,,,,,,,,,,,,,,,,,,,,,,,,,920.348154059,None,920.348154059,None,920.348154059,None,1.0,1.61490518602659,920.348154059,None,920.348154059,None,1.0,2.1368015620100778,921.515529344004,None,920.348154059,None,1.0,2.6751245759951416,922.0487515970016,None,920.348154059,None,space,0.4920833930082153,2.7053273763740435,None,920.348154059,None,920.348154059,None,,,,,,,,,1,2022_Mar_25_1706,SAR-soap,2021.1.2,59.95664834685586,
58,Trial # 54,Group1-stimuli/group1-block1/fake-group2-b1/encoded_Group2_IMG_9758.jpg,0,encoded_Group2_IMG_9758.jpg,,,,,0.0,53.0,53.0,53.0,,,,,,,,,,,,,,,,,,,,,,,,,,,,,,,,,,,,,923.5655910130008,None,923.5655910130008,None,923.5655910130008,None,5.0,13.785542358993553,923.5655910130008,None,923.5655910130008,None,4.0,8.287972025980707,924.833558733022,None,923.5655910130008,None,2.0,9.828654701996127,931.4179683190014,None,923.5655910130008,None,space,5.442701666994253,9.856476320390357,None,923.5655910130008,None,923.5655910130008,None,,,,,,,,,1,2022_Mar_25_1706,SAR-soap,2021.1.2,59.95664834685586,
59,Trial # 55,Group1-stimuli/group1-block1/fake-group2-b1/encoded_Group2_IMG_0339.jpg,0,encoded_Group2_IMG_0339.jpg,,,,,0.0,54.0,54.0,54.0,,,,,,,,,,,,,,,,,,,,,,,,,,,,,,,,,,,,,938.9037549280038,None,938.9037549280038,None,938.9037549280038,None,1.0,1.5997719419829082,938.9037549280038,None,938.9037549280038,None,1.0,2.356537154992111,940.0554729670112,None,938.9037549280038,None,1.0,3.062429901008727,940.8210838620143,None,938.9037549280038,None,space,0.4884449320088606,3.0901280964026228,None,938.9037549280038,None,938.9037549280038,None,,,,,,,,,1,2022_Mar_25_1706,SAR-soap,2021.1.2,59.95664834685586,
60,Trial # 56,Group1-stimuli/group1-block1/real-group1-b1/Group1_IMG_0314.jpg,1,Group1_IMG_0314.jpg,,,,,0.0,55.0,55.0,55.0,,,,,,,,,,,,,,,,,,,,,,,,,,,,,,,,,,,,,942.5046756850206,None,942.5046756850206,None,942.5046756850206,None,1.0,2.263304961990798,942.5046756850206,None,942.5046756850206,None,1.0,2.78742117100046,944.3233393110276,None,942.5046756850206,None,1.0,3.426234513986856,944.8567826220242,None,942.5046756850206,None,space,0.6083538189996034,3.452218697406352,None,942.5046756850206,None,942.5046756850206,None,,,,,,,,,1,2022_Mar_25_1706,SAR-soap,2021.1.2,59.95664834685586,
61,Trial # 57,Group1-stimuli/group1-block1/fake-group2-b1/encoded_Group2_IMG_0532.jpg,0,encoded_Group2_IMG_0532.jpg,,,,,0.0,56.0,56.0,56.0,,,,,,,,,,,,,,,,,,,,,,,,,,,,,,,,,,,,,946.6060645360268,None,946.6060645360268,None,946.6060645360268,None,4.0,3.848406873003114,946.6060645360268,None,946.6060645360268,None,2.0,5.854150956001831,949.9924790100196,None,946.6060645360268,None,3.0,7.927018943009898,952.0254245190008,None,946.6060645360268,None,space,1.1738909410196356,7.955526191391982,None,946.6060645360268,None,946.6060645360268,None,,,,,,,,,1,2022_Mar_25_1706,SAR-soap,2021.1.2,59.95664834685586,
62,Trial # 58,Group1-stimuli/group1-block1/fake-group2-b1/encoded_Group2_IMG_0462.jpg,0,encoded_Group2_IMG_0462.jpg,,,,,0.0,57.0,57.0,57.0,,,,,,,,,,,,,,,,,,,,,,,,,,,,,,,,,,,,,955.775607920019,None,955.775607920019,None,955.775607920019,None,5.0,2.6976313309860416,955.775607920019,None,955.775607920019,None,3.0,4.255103756993776,958.0265921850224,None,955.775607920019,None,4.0,5.961340920999646,959.5937355310016,None,955.775607920019,None,space,1.196250848006457,5.9890936613956,None,955.775607920019,None,955.775607920019,None,,,,,,,,,1,2022_Mar_25_1706,SAR-soap,2021.1.2,59.95664834685586,
63,Trial # 59,Group1-stimuli/group1-block1/real-group1-b1/Group1_IMG_0172.jpg,1,Group1_IMG_0172.jpg,,,,,0.0,58.0,58.0,58.0,,,,,,,,,,,,,,,,,,,,,,,,,,,,,,,,,,,,,962.9944759080244,None,962.9944759080244,None,962.9944759080244,None,1.0,1.896666683984222,962.9944759080244,None,962.9944759080244,None,1.0,2.4855986769835,964.4291850060108,None,962.9944759080244,None,1.0,3.191734007996274,965.0290538620028,None,962.9944759080244,None,space,1.1282981249969453,3.217521046375623,None,962.9944759080244,None,962.9944759080244,None,,,,,,,,,1,2022_Mar_25_1706,SAR-soap,2021.1.2,59.95664834685586,
64,Trial # 60,Group1-stimuli/group1-block1/real-group1-b1/Group1_IMG_4841.jpg,1,Group1_IMG_4841.jpg,,,,,0.0,59.0,59.0,59.0,,,,,,,,,,,,,,,,,,,,,,,,,,,,,,,,,,,,,967.3464784550016,None,967.3464784550016,None,967.3464784550016,None,5.0,2.7806611489795614,967.3464784550016,None,967.3464784550016,None,4.0,5.036186968005495,969.6805502820062,None,967.3464784550016,None,5.0,7.676060780999251,971.9477239680128,None,967.3464784550016,None,space,0.9793397259782068,7.703459288401063,None,967.3464784550016,None,967.3464784550016,None,,,,,,,,,1,2022_Mar_25_1706,SAR-soap,2021.1.2,59.95664834685586,
65,Trial # 61,Group1-stimuli/group1-block1/fake-group2-b1/encoded_Group2_IMG_0352.jpg,0,encoded_Group2_IMG_0352.jpg,,,,,0.0,60.0,60.0,60.0,,,,,,,,,,,,,,,,,,,,,,,,,,,,,,,,,,,,,976.0662389210192,None,976.0662389210192,None,976.0662389210192,None,1.0,1.6479832159820944,976.0662389210192,None,976.0662389210192,None,1.0,2.2713689999945927,977.2656295090272,None,976.0662389210192,None,1.0,4.144056377001107,977.8994608600042,None,976.0662389210192,None,space,0.3786150950181763,4.173600119393086,None,976.0662389210192,None,976.0662389210192,None,,,,,,,,,1,2022_Mar_25_1706,SAR-soap,2021.1.2,59.95664834685586,
66,Trial # 62,Group1-stimuli/group1-block1/fake-group2-b1/encoded_Group2_IMG_9726.jpg,0,encoded_Group2_IMG_9726.jpg,,,,,0.0,61.0,61.0,61.0,,,,,,,,,,,,,,,,,,,,,,,,,,,,,,,,,,,,,980.6510915380204,None,980.6510915380204,None,980.6510915380204,None,6.0,2.113556915021036,980.6510915380204,None,980.6510915380204,None,5.0,6.903352701978292,982.3172097500064,None,980.6510915380204,None,2.0,8.542423773993505,987.118794648006,None,980.6510915380204,None,space,1.1372666759998538,8.572203782387078,None,980.6510915380204,None,980.6510915380204,None,,,,,,,,,1,2022_Mar_25_1706,SAR-soap,2021.1.2,59.95664834685586,
67,Trial # 63,Group1-stimuli/group1-block1/fake-group2-b1/encoded_Group2_IMG_9785.jpg,0,encoded_Group2_IMG_9785.jpg,,,,,0.0,62.0,62.0,62.0,,,,,,,,,,,,,,,,,,,,,,,,,,,,,,,,,,,,,990.4041722880212,None,990.4041722880212,None,990.4041722880212,None,5.0,2.24783321400173,990.4041722880212,None,990.4041722880212,None,2.0,3.703030475007836,992.204018258024,None,990.4041722880212,None,2.0,7.076015936996555,993.6710577410122,None,990.4041722880212,None,space,1.4494602869963271,6.539472621399909,None,990.4041722880212,None,990.4041722880212,None,,,,,,,,,1,2022_Mar_25_1706,SAR-soap,2021.1.2,59.95664834685586,
68,Trial # 64,Group1-stimuli/group1-block1/fake-group2-b1/encoded_Group2_IMG_0440.jpg,0,encoded_Group2_IMG_0440.jpg,,,,,0.0,63.0,63.0,63.0,,,,,,,,,,,,,,,,,,,,,,,,,,,,,,,,,,,,,998.4220610590128,None,998.4220610590128,None,998.4220610590128,None,6.0,3.0654598900000565,998.4220610590128,None,998.4220610590128,None,4.0,6.353981481981464,1001.0412490300076,None,998.4220610590128,None,1.0,8.094612815009896,1004.3413625270186,None,998.4220610590128,None,space,0.4870296220178716,8.124120208405657,None,998.4220610590128,None,998.4220610590128,None,,,,,,,,,1,2022_Mar_25_1706,SAR-soap,2021.1.2,59.95664834685586,
69,Trial # 65,Group1-stimuli/group1-block1/fake-group2-b1/encoded_Group2_IMG_1695.jpg,0,encoded_Group2_IMG_1695.jpg,,,,,0.0,64.0,64.0,64.0,,,,,,,,,,,,,,,,,,,,,,,,,,,,,,,,,,,,,1007.0589122550156,None,1007.0589122550156,None,1007.0589122550156,None,1.0,1.7990499869920311,1007.0589122550156,None,1007.0589122550156,None,1.0,2.320793771010358,1008.4086084320152,None,1007.0589122550156,None,1.0,2.9270727339899167,1008.9415742660058,None,1007.0589122550156,None,space,0.7874422759923618,2.956331684370525,None,1007.0589122550156,None,1007.0589122550156,None,,,,,,,,,1,2022_Mar_25_1706,SAR-soap,2021.1.2,59.95664834685586,
70,Trial # 66,Group1-stimuli/group1-block1/real-group1-b1/Group1_IMG_0552.jpg,1,Group1_IMG_0552.jpg,,,,,0.0,65.0,65.0,65.0,,,,,,,,,,,,,,,,,,,,,,,,,,,,,,,,,,,,,1010.8270655650122,None,1010.8270655650122,None,1010.8270655650122,None,1.0,1.7628722730150912,1010.8270655650122,None,1010.8270655650122,None,1.0,2.252251758996863,1012.1431600340002,None,1010.8270655650122,None,1.0,2.889619227993535,1012.6429073080072,None,1010.8270655650122,None,space,0.5179416190076154,2.9173811043729074,None,1010.8270655650122,None,1010.8270655650122,None,,,,,,,,,1,2022_Mar_25_1706,SAR-soap,2021.1.2,59.95664834685586,
71,Trial # 67,Group1-stimuli/group1-block1/real-group1-b1/Group1_IMG_1029.jpg,1,Group1_IMG_1029.jpg,,,,,0.0,66.0,66.0,66.0,,,,,,,,,,,,,,,,,,,,,,,,,,,,,,,,,,,,,1014.2949339059996,None,1014.2949339059996,None,1014.2949339059996,None,4.0,3.897730875003617,1014.2949339059996,None,1014.2949339059996,None,2.0,8.754983819002518,1017.7449821920018,None,1014.2949339059996,None,2.0,12.960164001007795,1020.7127186700236,None,1014.2949339059996,None,space,3.878907743986929,10.121414036373608,None,1014.2949339059996,None,1014.2949339059996,None,,,,,,,,,1,2022_Mar_25_1706,SAR-soap,2021.1.2,59.95664834685586,
72,Trial # 68,Group1-stimuli/group1-block1/fake-group2-b1/encoded_Group2_IMG_6517.jpg,0,encoded_Group2_IMG_6517.jpg,,,,,0.0,67.0,67.0,67.0,,,,,,,,,,,,,,,,,,,,,,,,,,,,,,,,,,,,,1028.3319662790163,None,1028.3319662790163,None,1028.3319662790163,None,1.0,1.815790095017292,1028.3319662790163,None,1028.3319662790163,None,1.0,2.505452379002236,1029.6995988690178,None,1028.3319662790163,None,1.0,3.177236463001464,1030.3993356980209,None,1028.3319662790163,None,space,0.7194341019785497,3.206569559406489,None,1028.3319662790163,None,1028.3319662790163,None,,,,,,,,,1,2022_Mar_25_1706,SAR-soap,2021.1.2,59.95664834685586,
73,Trial # 69,Group1-stimuli/group1-block1/fake-group2-b1/encoded_Group2_IMG_0002.jpg,0,encoded_Group2_IMG_0002.jpg,,,,,0.0,68.0,68.0,68.0,,,,,,,,,,,,,,,,,,,,,,,,,,,,,,,,,,,,,1032.282370254019,None,1032.282370254019,None,1032.282370254019,None,3.0,1.8481039019825405,1032.282370254019,None,1032.282370254019,None,1.0,5.237036734004505,1033.683483890025,None,1032.282370254019,None,2.0,9.511398533999454,1037.0842003350265,None,1032.282370254019,None,space,2.105046145996312,9.541161676403137,None,1032.282370254019,None,1032.282370254019,None,,,,,,,,,1,2022_Mar_25_1706,SAR-soap,2021.1.2,59.95664834685586,
74,Trial # 70,Group1-stimuli/group1-block1/real-group1-b1/Group1_IMG_0495.jpg,1,Group1_IMG_0495.jpg,,,,,0.0,69.0,69.0,69.0,,,,,,,,,,,,,,,,,,,,,,,,,,,,,,,,,,,,,1043.986293029011,None,1043.986293029011,None,1043.986293029011,None,1.0,1.5956777239916846,1043.986293029011,None,1043.986293029011,None,1.0,2.317844008008251,1045.1205052700243,None,1043.986293029011,None,1.0,3.023452550987713,1045.854221269023,None,1043.986293029011,None,space,0.1673509340034797,3.050414631376043,None,1043.986293029011,None,1043.986293029011,None,,,,,,,,,1,2022_Mar_25_1706,SAR-soap,2021.1.2,59.95664834685586,
75,Trial # 71,Group1-stimuli/group1-block1/real-group1-b1/Group1_IMG_1391.jpg,1,Group1_IMG_1391.jpg,,,,,0.0,70.0,70.0,70.0,,,,,,,,,,,,,,,,,,,,,,,,,,,,,,,,,,,,,1047.2377156530274,None,1047.2377156530274,None,1047.2377156530274,None,3.0,4.963111055985792,1047.2377156530274,None,1047.2377156530274,None,1.0,6.885470124980202,1051.7562907150132,None,1047.2377156530274,None,2.0,13.795014670002274,1053.6892184540047,None,1047.2377156530274,None,space,2.002626110013807,13.820606646389932,None,1047.2377156530274,None,1047.2377156530274,None,,,,,,,,,1,2022_Mar_25_1706,SAR-soap,2021.1.2,59.95664834685586,
76,Trial # 72,Group1-stimuli/group1-block1/real-group1-b1/Group1_IMG_0343.jpg,1,Group1_IMG_0343.jpg,,,,,0.0,71.0,71.0,71.0,,,,,,,,,,,,,,,,,,,,,,,,,,,,,,,,,,,,,1063.1091526930104,None,1063.1091526930104,None,1063.1091526930104,None,1.0,1.7471979320107494,1063.1091526930104,None,1063.1091526930104,None,1.0,2.269055117998505,1064.410782136023,None,1063.1091526930104,None,1.0,2.8071325999917462,1064.943213704013,None,1063.1091526930104,None,space,0.1337820049957372,2.834382724395254,None,1063.1091526930104,None,1063.1091526930104,None,,,,,,,,,1,2022_Mar_25_1706,SAR-soap,2021.1.2,59.95664834685586,
77,Trial # 73,Group1-stimuli/group1-block1/fake-group2-b1/encoded_Group2_IMG_9810.jpg,0,encoded_Group2_IMG_9810.jpg,,,,,0.0,72.0,72.0,72.0,,,,,,,,,,,,,,,,,,,,,,,,,,,,,,,,,,,,,1066.126646983001,None,1066.126646983001,None,1066.126646983001,None,1.0,2.6307362689985894,1066.126646983001,None,1066.126646983001,None,1.0,3.45429130300181,1068.3105785240186,None,1066.126646983001,None,1.0,4.092857284995262,1069.1434926090003,None,1066.126646983001,None,space,0.1917353300086688,4.121931961388327,None,1066.126646983001,None,1066.126646983001,None,,,,,,,,,1,2022_Mar_25_1706,SAR-soap,2021.1.2,59.95664834685586,
78,Trial # 74,Group1-stimuli/group1-block1/fake-group2-b1/encoded_Group2_IMG_5900.jpg,0,encoded_Group2_IMG_5900.jpg,,,,,0.0,73.0,73.0,73.0,,,,,,,,,,,,,,,,,,,,,,,,,,,,,,,,,,,,,1070.478915690008,None,1070.478915690008,None,1070.478915690008,None,1.0,1.7433260550023988,1070.478915690008,None,1070.478915690008,None,1.0,2.333780670014676,1071.7614730710047,None,1070.478915690008,None,1.0,3.004848063981626,1072.361542536004,None,1070.478915690008,None,space,0.1819987480121199,3.0300667413685005,None,1070.478915690008,None,1070.478915690008,None,,,,,,,,,1,2022_Mar_25_1706,SAR-soap,2021.1.2,59.95664834685586,
79,Trial # 75,Group1-stimuli/group1-block1/real-group1-b1/Group1_IMG_9679.jpg,1,Group1_IMG_9679.jpg,,,,,0.0,74.0,74.0,74.0,,,,,,,,,,,,,,,,,,,,,,,,,,,,,,,,,,,,,1073.7283521089994,None,1073.7283521089994,None,1073.7283521089994,None,1.0,1.478144369990332,1073.7283521089994,None,1073.7283521089994,None,1.0,2.167588605982018,1074.7467091750004,None,1073.7283521089994,None,1.0,2.706662181008141,1075.446239404002,None,1073.7283521089994,None,space,0.1738383829942904,2.731844792346237,None,1073.7283521089994,None,1073.7283521089994,None,,,,,,,,,1,2022_Mar_25_1706,SAR-soap,2021.1.2,59.95664834685586,
80,Trial # 76,Group1-stimuli/group1-block1/fake-group2-b1/encoded_Group2_IMG_4249.jpg,0,encoded_Group2_IMG_4249.jpg,,,,,0.0,75.0,75.0,75.0,,,,,,,,,,,,,,,,,,,,,,,,,,,,,,,,,,,,,1076.6636904000188,None,1076.6636904000188,None,1076.6636904000188,None,4.0,2.9965329940023366,1076.6636904000188,None,1076.6636904000188,None,3.0,5.953619217994856,1079.2140577570244,None,1076.6636904000188,None,2.0,7.460883004998323,1082.181721504021,None,1076.6636904000188,None,space,2.26464406598825,7.488208664377453,None,1076.6636904000188,None,1076.6636904000188,None,,,,,,,,,1,2022_Mar_25_1706,SAR-soap,2021.1.2,59.95664834685586,
81,Trial # 77,Group1-stimuli/group1-block1/fake-group2-b1/encoded_Group2_IMG_0174.jpg,0,encoded_Group2_IMG_0174.jpg,,,,,0.0,76.0,76.0,76.0,,,,,,,,,,,,,,,,,,,,,,,,,,,,,,,,,,,,,1086.433384996024,None,1086.433384996024,None,1086.433384996024,None,1.0,2.0985922649852,1086.433384996024,None,1086.433384996024,None,1.0,2.722036805993412,1088.0831861370243,None,1086.433384996024,None,1.0,3.2935642680095043,1088.717047404003,None,1086.433384996024,None,space,1.0861373569932766,3.3229898753925227,None,1086.433384996024,None,1086.433384996024,None,,,,,,,,,1,2022_Mar_25_1706,SAR-soap,2021.1.2,59.95664834685586,
82,Trial # 78,Group1-stimuli/group1-block1/fake-group2-b1/encoded_Group2_IMG_0475.jpg,0,encoded_Group2_IMG_0475.jpg,,,,,0.0,77.0,77.0,77.0,,,,,,,,,,,,,,,,,,,,,,,,,,,,,,,,,,,,,1090.8685443480208,None,1090.8685443480208,None,1090.8685443480208,None,1.0,1.798710397008108,1090.8685443480208,None,1090.8685443480208,None,1.0,2.321129982999992,1092.217940151022,None,1090.8685443480208,None,1.0,2.9570520630222745,1092.7514506060106,None,1090.8685443480208,None,space,0.2090533790178597,2.9886480053828564,None,1090.8685443480208,None,1090.8685443480208,None,,,,,,,,,1,2022_Mar_25_1706,SAR-soap,2021.1.2,59.95664834685586,
83,Trial # 79,Group1-stimuli/group1-block1/fake-group2-b1/encoded_Group2_IMG_9751.jpg,0,encoded_Group2_IMG_9751.jpg,,,,,0.0,78.0,78.0,78.0,,,,,,,,,,,,,,,,,,,,,,,,,,,,,,,,,,,,,1094.102035148011,None,1094.102035148011,None,1094.102035148011,None,5.0,1.9333306049811652,1094.102035148011,None,1094.102035148011,None,4.0,4.954603993013734,1095.5870730500028,None,1094.102035148011,None,2.0,8.395487706002314,1098.6197481320123,None,1094.102035148011,None,space,1.7161179750110025,8.423848547390662,None,1094.102035148011,None,1094.102035148011,None,,,,,,,,,1,2022_Mar_25_1706,SAR-soap,2021.1.2,59.95664834685586,
84,Trial # 80,Group1-stimuli/group1-block1/fake-group2-b1/encoded_Group2_IMG_0492.jpg,0,encoded_Group2_IMG_0492.jpg,,,,,0.0,79.0,79.0,79.0,,,,,,,,,,,,,,,,,,,,,,,,,,,,,,,,,,,,,1104.2718971470022,None,1104.2718971470022,None,1104.2718971470022,None,1.0,1.6317431979987305,1104.2718971470022,None,1104.2718971470022,None,1.0,2.654707981011597,1105.456662269018,None,1104.2718971470022,None,1.0,3.1590560140029997,1106.4896326660237,None,1104.2718971470022,None,space,0.3161198000016156,3.1880953933869023,None,1104.2718971470022,None,1104.2718971470022,None,,,,,,,,,1,2022_Mar_25_1706,SAR-soap,2021.1.2,59.95664834685586,
85,Trial # 81,Group1-stimuli/group1-block1/real-group1-b1/Group1_IMG_0535.jpg,1,Group1_IMG_0535.jpg,,,,,0.0,80.0,80.0,80.0,,,,,,,,,,,,,,,,,,,,,,,,,,,,,,,,,,,,,1107.8233673800132,None,1107.8233673800132,None,1107.8233673800132,None,1.0,1.6121619659825228,1107.8233673800132,None,1107.8233673800132,None,1.0,2.1346285559993703,1108.973147914017,None,1107.8233673800132,None,1.0,2.7408326000149827,1109.5072487680009,None,1107.8233673800132,None,space,0.2943969039770309,2.767373139387928,None,1107.8233673800132,None,1107.8233673800132,None,,,,,,,,,1,2022_Mar_25_1706,SAR-soap,2021.1.2,59.95664834685586,
86,Trial # 82,Group1-stimuli/group1-block1/real-group1-b1/Group1_IMG_0077.jpg,1,Group1_IMG_0077.jpg,,,,,0.0,81.0,81.0,81.0,,,,,,,,,,,,,,,,,,,,,,,,,,,,,,,,,,,,,1110.9070820520285,None,1110.9070820520285,None,1110.9070820520285,None,5.0,3.34395002402016,1110.9070820520285,None,1110.9070820520285,None,3.0,8.767871906020446,1113.7911903650092,None,1110.9070820520285,None,4.0,10.207101058011176,1119.2264050980157,None,1110.9070820520285,None,space,0.9579586770269088,10.232687269395685,None,1110.9070820520285,None,1110.9070820520285,None,,,,,,,,,1,2022_Mar_25_1706,SAR-soap,2021.1.2,59.95664834685586,
87,Trial # 83,Group1-stimuli/group1-block1/fake-group2-b1/encoded_Group2_IMG_9702.jpg,0,encoded_Group2_IMG_9702.jpg,,,,,0.0,82.0,82.0,82.0,,,,,,,,,,,,,,,,,,,,,,,,,,,,,,,,,,,,,1122.110750538006,None,1122.110750538006,None,1122.110750538006,None,1.0,1.5313055730075575,1122.110750538006,None,1122.110750538006,None,1.0,1.9542642649903428,1123.194077817025,None,1122.110750538006,None,1.0,3.4274447570205666,1123.6271247800032,None,1122.110750538006,None,space,0.0511486920004244,3.455281803413527,None,1122.110750538006,None,1122.110750538006,None,,,,,,,,,1,2022_Mar_25_1706,SAR-soap,2021.1.2,59.95664834685586,
88,Trial # 84,Group1-stimuli/group1-block1/real-group1-b1/Group1_IMG_0357.jpg,1,Group1_IMG_0357.jpg,,,,,0.0,83.0,83.0,83.0,,,,,,,,,,,,,,,,,,,,,,,,,,,,,,,,,,,,,1125.6617098010029,None,1125.6617098010029,None,1125.6617098010029,None,1.0,1.809831534017576,1125.6617098010029,None,1125.6617098010029,None,1.0,2.299644125974737,1127.0118109169998,None,1125.6617098010029,None,1.0,2.937649267987581,1127.5128526980116,None,1125.6617098010029,None,space,0.1761944410100113,2.9642010733950883,None,1125.6617098010029,None,1125.6617098010029,None,,,,,,,,,1,2022_Mar_25_1706,SAR-soap,2021.1.2,59.95664834685586,
89,Trial # 85,Group1-stimuli/group1-block1/real-group1-b1/Group1_IMG_9772.jpg,1,Group1_IMG_9772.jpg,,,,,0.0,84.0,84.0,84.0,,,,,,,,,,,,,,,,,,,,,,,,,,,,,,,,,,,,,1128.8289224990003,None,1128.8289224990003,None,1128.8289224990003,None,5.0,1.7807384009938687,1128.8289224990003,None,1128.8289224990003,None,5.0,5.651561386999674,1130.1799323760206,None,1128.8289224990003,None,4.0,9.360684070998104,1133.6140305950248,None,1128.8289224990003,None,space,0.5655701690120623,9.385609127377393,None,1128.8289224990003,None,1128.8289224990003,None,,,,,,,,,1,2022_Mar_25_1706,SAR-soap,2021.1.2,59.95664834685586,
90,Trial # 86,Group1-stimuli/group1-block1/real-group1-b1/Group1_IMG_0482.jpg,1,Group1_IMG_0482.jpg,,,,,0.0,85.0,85.0,85.0,,,,,,,,,,,,,,,,,,,,,,,,,,,,,,,,,,,,,1138.798384237016,None,1138.798384237016,None,1138.798384237016,None,1.0,1.497309121012222,1138.798384237016,None,1138.798384237016,None,1.0,2.0217474429809954,1139.8492039070115,None,1138.798384237016,None,1.0,2.5913661279773805,1140.3833061680198,None,1138.798384237016,None,space,0.1237405949796084,2.6193209184275474,None,1138.798384237016,None,1138.798384237016,None,,,,,,,,,1,2022_Mar_25_1706,SAR-soap,2021.1.2,59.95664834685586,
91,Trial # 87,Group1-stimuli/group1-block1/real-group1-b1/Group1_IMG_0299.jpg,1,Group1_IMG_0299.jpg,,,,,0.0,86.0,86.0,86.0,,,,,,,,,,,,,,,,,,,,,,,,,,,,,,,,,,,,,1141.5828992170282,None,1141.5828992170282,None,1141.5828992170282,None,6.0,3.5791418890003115,1141.5828992170282,None,1141.5828992170282,None,5.0,6.151988828001777,1144.701244704018,None,1141.5828992170282,None,4.0,12.891305577999448,1147.2854953210044,None,1141.5828992170282,None,space,0.4142835260136053,12.918348841398256,None,1141.5828992170282,None,1141.5828992170282,None,,,,,,,,,1,2022_Mar_25_1706,SAR-soap,2021.1.2,59.95664834685586,
92,Trial # 88,Group1-stimuli/group1-block1/fake-group2-b1/encoded_Group2_IMG_0301.jpg,0,encoded_Group2_IMG_0301.jpg,,,,,0.0,87.0,87.0,87.0,,,,,,,,,,,,,,,,,,,,,,,,,,,,,,,,,,,,,1154.9382561500242,None,1154.9382561500242,None,1154.9382561500242,None,5.0,2.097139616002096,1154.9382561500242,None,1154.9382561500242,None,3.0,4.518842193007004,1156.587632675015,None,1154.9382561500242,None,3.0,6.993264102988178,1158.1880770310236,None,1154.9382561500242,None,space,0.1370844889897853,7.022105115378508,None,1154.9382561500242,None,1154.9382561500242,None,,,,,,,,,1,2022_Mar_25_1706,SAR-soap,2021.1.2,59.95664834685586,
93,Trial # 89,Group1-stimuli/group1-block1/fake-group2-b1/encoded_Group2_IMG_5136.jpg,0,encoded_Group2_IMG_5136.jpg,,,,,0.0,88.0,88.0,88.0,,,,,,,,,,,,,,,,,,,,,,,,,,,,,,,,,,,,,1162.139500401012,None,1162.139500401012,None,1162.139500401012,None,5.0,6.515483692026464,1162.139500401012,None,1162.139500401012,None,3.0,9.122984465997432,1168.2078320920118,None,1162.139500401012,None,5.0,10.362478710972937,1170.826750200009,None,1162.139500401012,None,space,1.5352584939973897,10.390316964389058,None,1162.139500401012,None,1162.139500401012,None,,,,,,,,,1,2022_Mar_25_1706,SAR-soap,2021.1.2,59.95664834685586,
94,Trial # 90,Group1-stimuli/group1-block1/real-group1-b1/Group1_IMG_0460.jpg,1,Group1_IMG_0460.jpg,,,,,0.0,89.0,89.0,89.0,,,,,,,,,,,,,,,,,,,,,,,,,,,,,,,,,,,,,1174.1089640390128,None,1174.1089640390128,None,1174.1089640390128,None,6.0,3.3971366079931613,1174.1089640390128,None,1174.1089640390128,None,6.0,13.972940873994958,1177.0606216180022,None,1174.1089640390128,None,3.0,20.846553223003863,1181.7792283540184,None,1174.1089640390128,None,space,1.0688712619885337,20.87504846637603,None,1174.1089640390128,None,1174.1089640390128,None,,,,,,,,,1,2022_Mar_25_1706,SAR-soap,2021.1.2,59.95664834685586,
95,Trial # 91,Group1-stimuli/group1-block1/fake-group2-b1/encoded_Group2_IMG_0068.jpg,0,encoded_Group2_IMG_0068.jpg,,,,,0.0,90.0,90.0,90.0,,,,,,,,,,,,,,,,,,,,,,,,,,,,,,,,,,,,,1196.1007438939996,None,1196.1007438939996,None,1196.1007438939996,None,5.0,2.5141972650017124,1196.1007438939996,None,1196.1007438939996,None,3.0,5.621805323986337,1198.1672920210112,None,1196.1007438939996,None,4.0,10.862229510996258,1201.2852281580272,None,1196.1007438939996,None,space,0.1466959139797836,10.890323589381296,None,1196.1007438939996,None,1196.1007438939996,None,,,,,,,,,1,2022_Mar_25_1706,SAR-soap,2021.1.2,59.95664834685586,
96,Trial # 92,Group1-stimuli/group1-block1/real-group1-b1/Group1_IMG_0337.jpg,1,Group1_IMG_0337.jpg,,,,,0.0,91.0,91.0,91.0,,,,,,,,,,,,,,,,,,,,,,,,,,,,,,,,,,,,,1207.1697807700257,None,1207.1697807700257,None,1207.1697807700257,None,1.0,1.6131674489879515,1207.1697807700257,None,1207.1697807700257,None,1.0,2.73630021099234,1208.3377267140022,None,1207.1697807700257,None,1.0,3.374177265010076,1208.8370935800194,None,1207.1697807700257,None,space,0.4250164679833688,3.402560972404899,None,1207.1697807700257,None,1207.1697807700257,None,,,,,,,,,1,2022_Mar_25_1706,SAR-soap,2021.1.2,59.95664834685586,
97,Trial # 93,Group1-stimuli/group1-block1/fake-group2-b1/encoded_Group2_IMG_0346.jpg,0,encoded_Group2_IMG_0346.jpg,,,,,0.0,92.0,92.0,92.0,,,,,,,,,,,,,,,,,,,,,,,,,,,,,,,,,,,,,1211.0213806490065,None,1211.0213806490065,None,1211.0213806490065,None,1.0,1.9320081019832287,1211.0213806490065,None,1211.0213806490065,None,1.0,2.487304586014943,1212.5058288230211,None,1211.0213806490065,None,1.0,3.0250376740004867,1213.0725018240046,None,1211.0213806490065,None,space,0.1808054970169905,3.055581600405276,None,1211.0213806490065,None,1211.0213806490065,None,,,,,,,,,1,2022_Mar_25_1706,SAR-soap,2021.1.2,59.95664834685586,
98,Trial # 94,Group1-stimuli/group1-block1/real-group1-b1/Group1_IMG_4253.jpg,1,Group1_IMG_4253.jpg,,,,,0.0,93.0,93.0,93.0,,,,,,,,,,,,,,,,,,,,,,,,,,,,,,,,,,,,,1214.2886353380163,None,1214.2886353380163,None,1214.2886353380163,None,6.0,6.2480353729915805,1214.2886353380163,None,1214.2886353380163,None,5.0,8.403039692988386,1220.092308296007,None,1214.2886353380163,None,3.0,12.47760479801218,1222.2584245110047,None,1214.2886353380163,None,space,0.5632618469826411,12.504793775413418,None,1214.2886353380163,None,1214.2886353380163,None,,,,,,,,,1,2022_Mar_25_1706,SAR-soap,2021.1.2,59.95664834685586,
99,Trial # 95,Group1-stimuli/group1-block1/fake-group2-b1/encoded_Group2_IMG_9280.jpg,0,encoded_Group2_IMG_9280.jpg,,,,,0.0,94.0,94.0,94.0,,,,,,,,,,,,,,,,,,,,,,,,,,,,,,,,,,,,,1227.3758249290113,None,1227.3758249290113,None,1227.3758249290113,None,5.0,3.0158626179909334,1227.3758249290113,None,1227.3758249290113,None,3.0,6.638865872984752,1229.9444980660046,None,1227.3758249290113,None,4.0,9.245529781008372,1233.578082772001,None,1227.3758249290113,None,space,1.102886094013229,9.27493176938151,None,1227.3758249290113,None,1227.3758249290113,None,,,,,,,,,1,2022_Mar_25_1706,SAR-soap,2021.1.2,59.95664834685586,
100,Trial # 96,Group1-stimuli/group1-block1/real-group1-b1/Group1_IMG_0417.jpg,1,Group1_IMG_0417.jpg,,,,,0.0,95.0,95.0,95.0,,,,,,,,,,,,,,,,,,,,,,,,,,,,,,,,,,,,,1237.7958132210188,None,1237.7958132210188,None,1237.7958132210188,None,2.0,10.683452396013308,1237.7958132210188,None,1237.7958132210188,None,1.0,4.319782237987965,1239.5472029110242,None,1237.7958132210188,None,1.0,8.826596726983553,1241.6806344810177,None,1237.7958132210188,None,space,3.5634479360014666,8.854070790373953,None,1237.7958132210188,None,1237.7958132210188,None,,,,,,,,,1,2022_Mar_25_1706,SAR-soap,2021.1.2,59.95664834685586,
101,Trial # 97,Group1-stimuli/group1-block1/fake-group2-b1/encoded_Group2_IMG_9695.jpg,0,encoded_Group2_IMG_9695.jpg,,,,,0.0,96.0,96.0,96.0,,,,,,,,,,,,,,,,,,,,,,,,,,,,,,,,,,,,,1250.2343416340009,None,1250.2343416340009,None,1250.2343416340009,None,1.0,1.5650687080051284,1250.2343416340009,None,1250.2343416340009,None,1.0,2.1206465149880387,1251.3516416850034,None,1250.2343416340009,None,1.0,2.691606377979042,1251.9168966780126,None,1250.2343416340009,None,space,0.2300208950182423,2.721329445397714,None,1250.2343416340009,None,1250.2343416340009,None,,,,,,,,,1,2022_Mar_25_1706,SAR-soap,2021.1.2,59.95664834685586,
102,Trial # 98,Group1-stimuli/group1-block1/real-group1-b1/Group1_IMG_1160.jpg,1,Group1_IMG_1160.jpg,,,,,0.0,97.0,97.0,97.0,,,,,,,,,,,,,,,,,,,,,,,,,,,,,,,,,,,,,1253.2176106430124,None,1253.2176106430124,None,1253.2176106430124,None,3.0,3.0956719149835408,1253.2176106430124,None,1253.2176106430124,None,2.0,9.520035065012053,1255.8519435960045,None,1253.2176106430124,None,2.0,12.293392514984587,1262.287315669004,None,1253.2176106430124,None,space,0.5548663569788914,12.319042670394992,None,1253.2176106430124,None,1253.2176106430124,None,,,,,,,,,1,2022_Mar_25_1706,SAR-soap,2021.1.2,59.95664834685586,
103,Trial # 99,Group1-stimuli/group1-block1/real-group1-b1/Group1_IMG_0448.jpg,1,Group1_IMG_0448.jpg,,,,,0.0,98.0,98.0,98.0,,,,,,,,,,,,,,,,,,,,,,,,,,,,,,,,,,,,,1266.1057858560234,None,1266.1057858560234,None,1266.1057858560234,None,3.0,15.983862736989977,1266.1057858560234,None,1266.1057858560234,None,2.0,14.488687776989536,1273.7737723900063,None,1266.1057858560234,None,2.0,28.331184132985072,1280.159941426013,None,1266.1057858560234,None,space,1.7392437730159145,27.82644019142026,None,1266.1057858560234,None,1266.1057858560234,None,,,,,,,,,1,2022_Mar_25_1706,SAR-soap,2021.1.2,59.95664834685586,
104,Trial # 100,Group1-stimuli/group1-block1/fake-group2-b1/encoded_Group2_IMG_0393.jpg,0,encoded_Group2_IMG_0393.jpg,,,,,0.0,99.0,99.0,99.0,,,,,,,,,,,,,,,,,,,,,,,,,,,,,,,,,,,,,1295.7150584440096,None,1295.7150584440096,None,1295.7150584440096,None,4.0,2.1805922569765244,1295.7150584440096,None,1295.7150584440096,None,2.0,3.9029284339922015,1297.4488694940228,None,1295.7150584440096,None,3.0,5.175557527982164,1299.1813625040231,None,1295.7150584440096,None,space,0.304330842976924,5.20704806240974,None,1295.7150584440096,None,1295.7150584440096,None,,,,,,,,,1,2022_Mar_25_1706,SAR-soap,2021.1.2,59.95664834685586,
105,Trial # 101,Group1-stimuli/group1-block1/real-group1-b1/Group1_IMG_0090.jpg,1,Group1_IMG_0090.jpg,,,,,0.0,100.0,100.0,100.0,,,,,,,,,,,,,,,,,,,,,,,,,,,,,,,,,,,,,1301.2655485410069,None,1301.2655485410069,None,1301.2655485410069,None,1.0,2.796013490005862,1301.2655485410069,None,1301.2655485410069,None,1.0,3.3864093020092696,1303.616685690009,None,1301.2655485410069,None,1.0,3.8913428960077,1304.2164170200122,None,1301.2655485410069,None,space,0.2604473039973527,3.918791758362204,None,1301.2655485410069,None,1301.2655485410069,None,,,,,,,,,1,2022_Mar_25_1706,SAR-soap,2021.1.2,59.95664834685586,
106,Trial # 102,Group1-stimuli/group1-block1/real-group1-b1/Group1_IMG_0310.jpg,1,Group1_IMG_0310.jpg,,,,,0.0,101.0,101.0,101.0,,,,,,,,,,,,,,,,,,,,,,,,,,,,,,,,,,,,,1305.4679158470244,None,1305.4679158470244,None,1305.4679158470244,None,1.0,1.9621146470017263,1305.4679158470244,None,1305.4679158470244,None,1.0,2.91863691501203,1306.9847388830094,None,1305.4679158470244,None,1.0,3.456740580004407,1307.9511303600157,None,1305.4679158470244,None,space,0.2776789890194777,3.4837268724222668,None,1305.4679158470244,None,1305.4679158470244,None,,,,,,,,,1,2022_Mar_25_1706,SAR-soap,2021.1.2,59.95664834685586,
107,Trial # 103,Group1-stimuli/group1-block1/fake-group2-b1/encoded_Group2_IMG_0528.jpg,0,encoded_Group2_IMG_0528.jpg,,,,,0.0,102.0,102.0,102.0,,,,,,,,,,,,,,,,,,,,,,,,,,,,,,,,,,,,,1309.2673290730163,None,1309.2673290730163,None,1309.2673290730163,None,2.0,6.166428946977248,1309.2673290730163,None,1309.2673290730163,None,1.0,8.288977990974672,1314.9869770990044,None,1309.2673290730163,None,2.0,15.829343960009282,1317.120262167009,None,1309.2673290730163,None,space,6.043525575980311,10.056615089386469,None,1309.2673290730163,None,1309.2673290730163,None,,,,,,,,,1,2022_Mar_25_1706,SAR-soap,2021.1.2,59.95664834685586,
108,Trial # 104,Group1-stimuli/group1-block1/fake-group2-b1/encoded_Group2_IMG_1975.jpg,0,encoded_Group2_IMG_1975.jpg,,,,,0.0,103.0,103.0,103.0,,,,,,,,,,,,,,,,,,,,,,,,,,,,,,,,,,,,,1325.407458408008,None,1325.407458408008,None,1325.407458408008,None,1.0,1.6658818980213257,1325.407458408008,None,1325.407458408008,None,1.0,2.187715673004277,1326.6243510410131,None,1325.407458408008,None,1.0,2.9582116100064013,1327.1568905170134,None,1325.407458408008,None,space,0.2863311399996746,2.989291309379041,None,1325.407458408008,None,1325.407458408008,None,,,,,,,,,1,2022_Mar_25_1706,SAR-soap,2021.1.2,59.95664834685586,
109,Trial # 105,Group1-stimuli/group1-block1/fake-group2-b1/encoded_Group2_IMG_0052.jpg,0,encoded_Group2_IMG_0052.jpg,,,,,0.0,104.0,104.0,104.0,,,,,,,,,,,,,,,,,,,,,,,,,,,,,,,,,,,,,1328.7072360180027,None,1328.7072360180027,None,1328.7072360180027,None,1.0,1.4645870510139505,1328.7072360180027,None,1328.7072360180027,None,1.0,2.4544739540142477,1329.72483736102,None,1328.7072360180027,None,1.0,3.093307073984761,1330.7248956810215,None,1328.7072360180027,None,space,0.1231331049930304,3.122705752379261,None,1328.7072360180027,None,1328.7072360180027,None,,,,,,,,,1,2022_Mar_25_1706,SAR-soap,2021.1.2,59.95664834685586,
110,Trial # 106,Group1-stimuli/group1-block1/fake-group2-b1/encoded_Group2_IMG_0225.jpg,0,encoded_Group2_IMG_0225.jpg,,,,,0.0,105.0,105.0,105.0,,,,,,,,,,,,,,,,,,,,,,,,,,,,,,,,,,,,,1331.9748400660174,None,1331.9748400660174,None,1331.9748400660174,None,4.0,6.41709861002164,1331.9748400660174,None,1331.9748400660174,None,2.0,5.388534522004193,1334.5930186720216,None,1331.9748400660174,None,2.0,9.096629150008084,1336.2270822530263,None,1331.9748400660174,None,space,0.3426419570168946,9.124223971390164,None,1331.9748400660174,None,1331.9748400660174,None,,,,,,,,,1,2022_Mar_25_1706,SAR-soap,2021.1.2,59.95664834685586,
111,Trial # 107,Group1-stimuli/group1-block1/real-group1-b1/Group1_IMG_2231.jpg,1,Group1_IMG_2231.jpg,,,,,0.0,106.0,106.0,106.0,,,,,,,,,,,,,,,,,,,,,,,,,,,,,,,,,,,,,1341.4791221880005,None,1341.4791221880005,None,1341.4791221880005,None,5.0,2.34637085799477,1341.4791221880005,None,1341.4791221880005,None,4.0,7.436140517995227,1343.3794963220134,None,1341.4791221880005,None,3.0,10.975543440988986,1348.4805701100267,None,1341.4791221880005,None,space,2.018846318009309,10.004323837405536,None,1341.4791221880005,None,1341.4791221880005,None,,,,,,,,,1,2022_Mar_25_1706,SAR-soap,2021.1.2,59.95664834685586,
112,Trial # 108,Group1-stimuli/group1-block1/real-group1-b1/Group1_IMG_0217.jpg,1,Group1_IMG_0217.jpg,,,,,0.0,107.0,107.0,107.0,,,,,,,,,,,,,,,,,,,,,,,,,,,,,,,,,,,,,1353.581483255024,None,1353.581483255024,None,1353.581483255024,None,4.0,4.317906988988398,1353.581483255024,None,1353.581483255024,None,2.0,6.039935376000358,1357.4504771040229,None,1353.581483255024,None,2.0,9.94691956799943,1359.183583383012,None,1353.581483255024,None,space,0.1496327469940297,9.973437136388384,None,1353.581483255024,None,1353.581483255024,None,,,,,,,,,1,2022_Mar_25_1706,SAR-soap,2021.1.2,59.95664834685586,
113,Trial # 109,Group1-stimuli/group1-block1/real-group1-b1/Group1_IMG_0264.jpg,1,Group1_IMG_0264.jpg,,,,,0.0,108.0,108.0,108.0,,,,,,,,,,,,,,,,,,,,,,,,,,,,,,,,,,,,,1363.7354781470203,None,1363.7354781470203,None,1363.7354781470203,None,5.0,1.863226437009871,1363.7354781470203,None,1363.7354781470203,None,5.0,4.554070282989414,1365.1528906960157,None,1363.7354781470203,None,2.0,7.62714850800694,1367.8528638630232,None,1363.7354781470203,None,space,1.1055473140149843,7.65289171441691,None,1363.7354781470203,None,1363.7354781470203,None,,,,,,,,,1,2022_Mar_25_1706,SAR-soap,2021.1.2,59.95664834685586,
114,Trial # 110,Group1-stimuli/group1-block1/fake-group2-b1/encoded_Group2_IMG_0254.jpg,0,encoded_Group2_IMG_0254.jpg,,,,,0.0,109.0,109.0,109.0,,,,,,,,,,,,,,,,,,,,,,,,,,,,,,,,,,,,,1372.5378390590197,None,1372.5378390590197,None,1372.5378390590197,None,1.0,2.032902898004977,1372.5378390590197,None,1372.5378390590197,None,1.0,2.5228062870155554,1374.121518550004,None,1372.5378390590197,None,1.0,3.0610136069881264,1374.6223632000035,None,1372.5378390590197,None,space,0.1337386000086553,3.0914646424062084,None,1372.5378390590197,None,1372.5378390590197,None,,,,,,,,,1,2022_Mar_25_1706,SAR-soap,2021.1.2,59.95664834685586,
115,Trial # 111,Group1-stimuli/group1-block1/fake-group2-b1/encoded_Group2_IMG_5433.jpg,0,encoded_Group2_IMG_5433.jpg,,,,,0.0,110.0,110.0,110.0,,,,,,,,,,,,,,,,,,,,,,,,,,,,,,,,,,,,,1375.8063636940203,None,1375.8063636940203,None,1375.8063636940203,None,1.0,1.580377589998534,1375.8063636940203,None,1375.8063636940203,None,1.0,2.337064595980337,1376.9389093660284,None,1375.8063636940203,None,1.0,2.841246771014994,1377.7060351240216,None,1375.8063636940203,None,space,0.2600229640083853,2.87042198938434,None,1375.8063636940203,None,1375.8063636940203,None,,,,,,,,,1,2022_Mar_25_1706,SAR-soap,2021.1.2,59.95664834685586,
116,Trial # 112,Group1-stimuli/group1-block1/real-group1-b1/Group1_IMG_0252.jpg,1,Group1_IMG_0252.jpg,,,,,0.0,111.0,111.0,111.0,,,,,,,,,,,,,,,,,,,,,,,,,,,,,,,,,,,,,1378.9556360560236,None,1378.9556360560236,None,1378.9556360560236,None,1.0,2.179891154024517,1378.9556360560236,None,1378.9556360560236,None,1.0,2.7020330769883003,1380.690900955,None,1378.9556360560236,None,1.0,3.4744210310163908,1381.2243611850135,None,1378.9556360560236,None,space,0.1001137849816586,3.5009983234049287,None,1378.9556360560236,None,1378.9556360560236,None,,,,,,,,,1,2022_Mar_25_1706,SAR-soap,2021.1.2,59.95664834685586,
117,Trial # 113,Group1-stimuli/group1-block1/real-group1-b1/Group1_IMG_9720.jpg,1,Group1_IMG_9720.jpg,,,,,0.0,112.0,112.0,112.0,,,,,,,,,,,,,,,,,,,,,,,,,,,,,,,,,,,,,1382.5741030790086,None,1382.5741030790086,None,1382.5741030790086,None,5.0,1.6950331359985285,1382.5741030790086,None,1382.5741030790086,None,5.0,4.419330342992907,1383.8246303980122,None,1382.5741030790086,None,4.0,7.425607696990482,1386.5594697510242,None,1382.5741030790086,None,space,2.0297992800187785,6.783671980374493,None,1382.5741030790086,None,1382.5741030790086,None,,,,,,,,,1,2022_Mar_25_1706,SAR-soap,2021.1.2,59.95664834685586,
118,Trial # 114,Group1-stimuli/group1-block1/fake-group2-b1/encoded_Group2_IMG_0550.jpg,0,encoded_Group2_IMG_0550.jpg,,,,,0.0,113.0,113.0,113.0,,,,,,,,,,,,,,,,,,,,,,,,,,,,,,,,,,,,,1391.4104471910105,None,1391.4104471910105,None,1391.4104471910105,None,1.0,1.5480784749961458,1391.4104471910105,None,1391.4104471910105,None,1.0,2.0383585910021798,1392.5109756810125,None,1391.4104471910105,None,1.0,2.607268083986128,1393.010659540014,None,1391.4104471910105,None,space,0.1521204499877058,2.639122589403996,None,1391.4104471910105,None,1391.4104471910105,None,,,,,,,,,1,2022_Mar_25_1706,SAR-soap,2021.1.2,59.95664834685586,
119,Trial # 115,Group1-stimuli/group1-block1/real-group1-b1/Group1_IMG_9915.jpg,1,Group1_IMG_9915.jpg,,,,,0.0,114.0,114.0,114.0,,,,,,,,,,,,,,,,,,,,,,,,,,,,,,,,,,,,,1394.227837789018,None,1394.227837789018,None,1394.227837789018,None,1.0,1.46304010701715,1394.227837789018,None,1394.227837789018,None,1.0,2.0858635999902617,1395.2450952700165,None,1394.227837789018,None,1.0,2.589563843997894,1395.8792622740148,None,1394.227837789018,None,space,0.1029901099973358,2.6175928143784404,None,1394.227837789018,None,1394.227837789018,None,,,,,,,,,1,2022_Mar_25_1706,SAR-soap,2021.1.2,59.95664834685586,
120,Trial # 116,Group1-stimuli/group1-block1/real-group1-b1/Group1_IMG_9850.jpg,1,Group1_IMG_9850.jpg,,,,,0.0,115.0,115.0,115.0,,,,,,,,,,,,,,,,,,,,,,,,,,,,,,,,,,,,,1397.011718185007,None,1397.011718185007,None,1397.011718185007,None,1.0,1.3610451409767848,1397.011718185007,None,1397.011718185007,None,1.0,2.4178408510051668,1397.912989428005,None,1397.011718185007,None,1.0,3.1888948380074,1398.97926866301,None,1397.011718185007,None,space,0.1753252689959481,3.215667116397526,None,1397.011718185007,None,1397.011718185007,None,,,,,,,,,1,2022_Mar_25_1706,SAR-soap,2021.1.2,59.95664834685586,
121,Trial # 117,Group1-stimuli/group1-block1/real-group1-b1/Group1_IMG_3579.jpg,1,Group1_IMG_3579.jpg,,,,,0.0,116.0,116.0,116.0,,,,,,,,,,,,,,,,,,,,,,,,,,,,,,,,,,,,,1400.4305828190118,None,1400.4305828190118,None,1400.4305828190118,None,4.0,2.295861115999287,1400.4305828190118,None,1400.4305828190118,None,2.0,3.7679903020034544,1401.7298452200191,None,1400.4305828190118,None,2.0,14.04503354697954,1403.7643051950145,None,1400.4305828190118,None,space,2.2625755989865866,12.536225870397177,None,1400.4305828190118,None,1400.4305828190118,None,,,,,,,,,1,2022_Mar_25_1706,SAR-soap,2021.1.2,59.95664834685586,
122,Trial # 118,Group1-stimuli/group1-block1/fake-group2-b1/encoded_Group2_IMG_0377.jpg,0,encoded_Group2_IMG_0377.jpg,,,,,0.0,117.0,117.0,117.0,,,,,,,,,,,,,,,,,,,,,,,,,,,,,,,,,,,,,1415.2519425740174,None,1415.2519425740174,None,1415.2519425740174,None,1.0,1.6152422279992606,1415.2519425740174,None,1415.2519425740174,None,1.0,2.0714444640034344,1416.4191590450064,None,1415.2519425740174,None,1.0,2.5773730979999527,1416.8849821470212,None,1415.2519425740174,None,space,0.2255890409869607,2.604884339409182,None,1415.2519425740174,None,1415.2519425740174,None,,,,,,,,,1,2022_Mar_25_1706,SAR-soap,2021.1.2,59.95664834685586,
123,Trial # 119,Group1-stimuli/group1-block1/real-group1-b1/Group1_IMG_0469.jpg,1,Group1_IMG_0469.jpg,,,,,0.0,118.0,118.0,118.0,,,,,,,,,,,,,,,,,,,,,,,,,,,,,,,,,,,,,1418.118564354023,None,1418.118564354023,None,1418.118564354023,None,1.0,1.495084674010286,1418.118564354023,None,1418.118564354023,None,1.0,2.1523942110070493,1419.1527600110276,None,1418.118564354023,None,1.0,2.8571867879945785,1419.819041751005,None,1418.118564354023,None,space,0.170494959980715,2.8829315903712995,None,1418.118564354023,None,1418.118564354023,None,,,,,,,,,1,2022_Mar_25_1706,SAR-soap,2021.1.2,59.95664834685586,
124,Trial # 120,Group1-stimuli/group1-block1/fake-group2-b1/encoded_Group2_IMG_0100.jpg,0,encoded_Group2_IMG_0100.jpg,,,,,0.0,119.0,119.0,119.0,,,,,,,,,,,,,,,,,,,,,,,,,,,,,,,,,,,,,1421.2028925720078,None,1421.2028925720078,None,1421.2028925720078,None,1.0,1.4966564750066027,1421.2028925720078,None,1421.2028925720078,None,1.0,2.220900635991711,1422.2532557150116,None,1421.2028925720078,None,1.0,2.7586797639960423,1422.986315136019,None,1421.2028925720078,None,space,0.1146336709789466,2.785279470408568,None,1421.2028925720078,None,1421.2028925720078,None,,,,,,,,,1,2022_Mar_25_1706,SAR-soap,2021.1.2,59.95664834685586,
125,Trial # 121,Group1-stimuli/group1-block1/real-group1-b1/Group1_IMG_5359.jpg,1,Group1_IMG_5359.jpg,,,,,0.0,120.0,120.0,120.0,,,,,,,,,,,,,,,,,,,,,,,,,,,,,,,,,,,,,1424.1368071870238,None,1424.1368071870238,None,1424.1368071870238,None,2.0,4.23053281600005,1424.1368071870238,None,1424.1368071870238,None,1.0,5.486114285013173,1427.921604046016,None,1424.1368071870238,None,1.0,7.159540134016424,1429.1884715250053,None,1424.1368071870238,None,space,0.2656353309866972,7.186154167400673,None,1424.1368071870238,None,1424.1368071870238,None,,,,,,,,,1,2022_Mar_25_1706,SAR-soap,2021.1.2,59.95664834685586,
126,Trial # 122,Group1-stimuli/group1-block1/fake-group2-b1/encoded_Group2_IMG_0304.jpg,0,encoded_Group2_IMG_0304.jpg,,,,,0.0,121.0,121.0,121.0,,,,,,,,,,,,,,,,,,,,,,,,,,,,,,,,,,,,,1431.6058722890157,None,1431.6058722890157,None,1431.6058722890157,None,5.0,2.6976198089832906,1431.6058722890157,None,1431.6058722890157,None,4.0,4.254903617984382,1433.8569931420209,None,1431.6058722890157,None,3.0,6.327434909006115,1435.4244859560276,None,1431.6058722890157,None,space,0.1753284510050434,6.3555695233808365,None,1431.6058722890157,None,1431.6058722890157,None,,,,,,,,,1,2022_Mar_25_1706,SAR-soap,2021.1.2,59.95664834685586,
127,Trial # 123,Group1-stimuli/group1-block1/real-group1-b1/Group1_IMG_0306.jpg,1,Group1_IMG_0306.jpg,,,,,0.0,122.0,122.0,122.0,,,,,,,,,,,,,,,,,,,,,,,,,,,,,,,,,,,,,1438.174382827012,None,1438.174382827012,None,1438.174382827012,None,5.0,1.9289386839955116,1438.174382827012,None,1438.174382827012,None,5.0,12.953809947997796,1439.6586715450103,None,1438.174382827012,None,3.0,10.05889665801078,1443.0260804120044,None,1438.174382827012,None,space,4.760368503979407,10.085037894372364,None,1438.174382827012,None,1438.174382827012,None,,,,,,,,,1,2022_Mar_25_1706,SAR-soap,2021.1.2,59.95664834685586,
128,Trial # 124,Group1-stimuli/group1-block1/real-group1-b1/Group1_IMG_0224.jpg,1,Group1_IMG_0224.jpg,,,,,0.0,123.0,123.0,123.0,,,,,,,,,,,,,,,,,,,,,,,,,,,,,,,,,,,,,1453.062087082013,None,1453.062087082013,None,1453.062087082013,None,4.0,3.630146399023943,1453.062087082013,None,1453.062087082013,None,2.0,5.9025140760059,1456.2319290200248,None,1453.062087082013,None,2.0,7.209857657988323,1458.5146548540215,None,1453.062087082013,None,space,0.9628050290048122,7.234949085366679,None,1453.062087082013,None,1453.062087082013,None,,,,,,,,,1,2022_Mar_25_1706,SAR-soap,2021.1.2,59.95664834685586,
129,Trial # 125,Group1-stimuli/group1-block1/real-group1-b1/Group1_IMG_9889.jpg,1,Group1_IMG_9889.jpg,,,,,0.0,124.0,124.0,124.0,,,,,,,,,,,,,,,,,,,,,,,,,,,,,,,,,,,,,1461.2659693370224,None,1461.2659693370224,None,1461.2659693370224,None,1.0,2.2966356739925686,1461.2659693370224,None,1461.2659693370224,None,1.0,2.853625983989332,1463.115595891024,None,1461.2659693370224,None,1.0,3.491308361000847,1463.683052744018,None,1461.2659693370224,None,space,0.157836080994457,3.518875658424804,None,1461.2659693370224,None,1461.2659693370224,None,,,,,,,,,1,2022_Mar_25_1706,SAR-soap,2021.1.2,59.95664834685586,
130,Trial # 126,Group1-stimuli/group1-block1/real-group1-b1/Group1_IMG_0293.jpg,1,Group1_IMG_0293.jpg,,,,,0.0,125.0,125.0,125.0,,,,,,,,,,,,,,,,,,,,,,,,,,,,,,,,,,,,,1464.9838600840012,None,1464.9838600840012,None,1464.9838600840012,None,1.0,1.678092872025445,1464.9838600840012,None,1464.9838600840012,None,1.0,2.235286785988137,1466.201008931006,None,1464.9838600840012,None,1.0,3.006264869996812,1466.7674198890163,None,1464.9838600840012,None,space,0.1317208920081611,3.0334504244092386,None,1464.9838600840012,None,1464.9838600840012,None,,,,,,,,,1,2022_Mar_25_1706,SAR-soap,2021.1.2,59.95664834685586,
131,Trial # 127,Group1-stimuli/group1-block1/fake-group2-b1/encoded_Group2_IMG_0321.jpg,0,encoded_Group2_IMG_0321.jpg,,,,,0.0,126.0,126.0,126.0,,,,,,,,,,,,,,,,,,,,,,,,,,,,,,,,,,,,,1468.1500386040134,None,1468.1500386040134,None,1468.1500386040134,None,1.0,1.4652481180091854,1468.1500386040134,None,1468.1500386040134,None,1.0,2.1892571990028955,1469.1673703230044,None,1468.1500386040134,None,1.0,2.828852270002244,1469.902188253007,None,1468.1500386040134,None,space,0.16254924601526,2.8571810903958976,None,1468.1500386040134,None,1468.1500386040134,None,,,,,,,,,1,2022_Mar_25_1706,SAR-soap,2021.1.2,59.95664834685586,
132,Trial # 128,Group1-stimuli/group1-block1/fake-group2-b1/encoded_Group2_IMG_0400.jpg,0,encoded_Group2_IMG_0400.jpg,,,,,0.0,127.0,127.0,127.0,,,,,,,,,,,,,,,,,,,,,,,,,,,,,,,,,,,,,1471.1853200210026,None,1471.1853200210026,None,1471.1853200210026,None,4.0,3.431928590987809,1471.1853200210026,None,1471.1853200210026,None,3.0,5.423045021016151,1474.16963591901,None,1471.1853200210026,None,2.0,8.4952806319925,1476.1706902630103,None,1471.1853200210026,None,space,5.660982403991511,8.523726867395453,None,1471.1853200210026,None,1471.1853200210026,None,,,,,,,,,1,2022_Mar_25_1706,SAR-soap,2021.1.2,59.95664834685586,
133,Trial # 129,Group1-stimuli/group1-block1/fake-group2-b1/encoded_Group2_IMG_0443.jpg,0,encoded_Group2_IMG_0443.jpg,,,,,0.0,128.0,128.0,128.0,,,,,,,,,,,,,,,,,,,,,,,,,,,,,,,,,,,,,1485.3897788260074,None,1485.3897788260074,None,1485.3897788260074,None,6.0,2.664855790004367,1485.3897788260074,None,1485.3897788260074,None,5.0,4.369350928987842,1486.9903730640071,None,1485.3897788260074,None,4.0,7.277777601993876,1489.3237436590134,None,1485.3897788260074,None,space,0.4097414030111395,7.306486528366804,None,1485.3897788260074,None,1485.3897788260074,None,,,,,,,,,1,2022_Mar_25_1706,SAR-soap,2021.1.2,59.95664834685586,
134,Trial # 130,Group1-stimuli/group1-block1/fake-group2-b1/encoded_Group2_IMG_0542.jpg,0,encoded_Group2_IMG_0542.jpg,,,,,0.0,129.0,129.0,129.0,,,,,,,,,,,,,,,,,,,,,,,,,,,,,,,,,,,,,1493.1413149350265,None,1493.1413149350265,None,1493.1413149350265,None,1.0,1.5490803940047044,1493.1413149350265,None,1493.1413149350265,None,1.0,1.9722787869977765,1494.2416785390233,None,1493.1413149350265,None,1.0,2.610304163012188,1494.6755755820195,None,1493.1413149350265,None,space,0.1331343810015823,2.6396083293948323,None,1493.1413149350265,None,1493.1413149350265,None,,,,,,,,,1,2022_Mar_25_1706,SAR-soap,2021.1.2,59.95664834685586,
135,Trial # 131,Group1-stimuli/group1-block1/real-group1-b1/Group1_IMG_0885.jpg,1,Group1_IMG_0885.jpg,,,,,0.0,130.0,130.0,130.0,,,,,,,,,,,,,,,,,,,,,,,,,,,,,,,,,,,,,1495.9260867830017,None,1495.9260867830017,None,1495.9260867830017,None,5.0,2.163046512985602,1495.9260867830017,None,1495.9260867830017,None,5.0,3.902483660000144,1497.6427808860026,None,1495.9260867830017,None,5.0,10.177309713995784,1499.3935620060074,None,1495.9260867830017,None,space,9.051864818000467,10.20411762438016,None,1495.9260867830017,None,1495.9260867830017,None,,,,,,,,,1,2022_Mar_25_1706,SAR-soap,2021.1.2,59.95664834685586,
136,Trial # 132,Group1-stimuli/group1-block1/real-group1-b1/Group1_IMG_0375.jpg,1,Group1_IMG_0375.jpg,,,,,0.0,131.0,131.0,131.0,,,,,,,,,,,,,,,,,,,,,,,,,,,,,,,,,,,,,1515.2326154940238,None,1515.2326154940238,None,1515.2326154940238,None,1.0,1.644252675003372,1515.2326154940238,None,1515.2326154940238,None,1.0,2.7336637359985616,1516.4164992040023,None,1515.2326154940238,None,1.0,3.604442617011955,1517.5154356270214,None,1515.2326154940238,None,space,0.0991267000208608,3.6316286333894814,None,1515.2326154940238,None,1515.2326154940238,None,,,,,,,,,1,2022_Mar_25_1706,SAR-soap,2021.1.2,59.95664834685586,
137,Trial # 133,Group1-stimuli/group1-block1/fake-group2-b1/encoded_Group2_IMG_7351.jpg,0,encoded_Group2_IMG_7351.jpg,,,,,0.0,132.0,132.0,132.0,,,,,,,,,,,,,,,,,,,,,,,,,,,,,,,,,,,,,1518.9658737530117,None,1518.9658737530117,None,1518.9658737530117,None,5.0,10.9018051160092,1518.9658737530117,None,1518.9658737530117,None,3.0,15.857789811998371,1529.4193038560045,None,1518.9658737530117,None,4.0,16.965948050026782,1533.254031434015,None,1518.9658737530117,None,space,-3.053646740008844,16.994607747386908,None,1518.9658737530117,None,1518.9658737530117,None,,,,,,,,,1,2022_Mar_25_1706,SAR-soap,2021.1.2,59.95664834685586,
138,Trial # 134,Group1-stimuli/group1-block1/fake-group2-b1/encoded_Group2_IMG_0416.jpg,0,encoded_Group2_IMG_0416.jpg,,,,,0.0,133.0,133.0,133.0,,,,,,,,,,,,,,,,,,,,,,,,,,,,,,,,,,,,,1535.9712336710072,None,1535.9712336710072,None,1535.9712336710072,None,4.0,8.282182650000323,1535.9712336710072,None,1535.9712336710072,None,3.0,11.654980764986249,1537.9892643810017,None,1535.9712336710072,None,1.0,12.695083069993416,1545.125434215006,None,1535.9712336710072,None,space,1.1929348809935618,12.72232026339043,None,1535.9712336710072,None,1535.9712336710072,None,,,,,,,,,1,2022_Mar_25_1706,SAR-soap,2021.1.2,59.95664834685586,
139,Trial # 135,Group1-stimuli/group1-block1/fake-group2-b1/encoded_Group2_IMG_0139.jpg,0,encoded_Group2_IMG_0139.jpg,,,,,0.0,134.0,134.0,134.0,,,,,,,,,,,,,,,,,,,,,,,,,,,,,,,,,,,,,1549.9089223170013,None,1549.9089223170013,None,1549.9089223170013,None,1.0,1.5643136319995392,1549.9089223170013,None,1549.9089223170013,None,1.0,2.5537999080261216,1551.0272479240084,None,1549.9089223170013,None,1.0,3.0935712789942045,1552.026950311003,None,1549.9089223170013,None,space,0.1936752650071866,3.1227709394297563,None,1549.9089223170013,None,1549.9089223170013,None,,,,,,,,,1,2022_Mar_25_1706,SAR-soap,2021.1.2,59.95664834685586,
140,Trial # 136,Group1-stimuli/group1-block1/real-group1-b1/Group1_IMG_9677.jpg,1,Group1_IMG_9677.jpg,,,,,0.0,135.0,135.0,135.0,,,,,,,,,,,,,,,,,,,,,,,,,,,,,,,,,,,,,1553.243493401009,None,1553.243493401009,None,1553.243493401009,None,1.0,2.780640847980976,1553.243493401009,None,1553.243493401009,None,1.0,3.435802395979408,1555.5776776880084,None,1553.243493401009,None,1.0,4.006897860992467,1556.2448343500146,None,1553.243493401009,None,space,0.1505836540018208,4.035365247371374,None,1553.243493401009,None,1553.243493401009,None,,,,,,,,,1,2022_Mar_25_1706,SAR-soap,2021.1.2,59.95664834685586,
141,Trial # 137,Group1-stimuli/group1-block1/fake-group2-b1/encoded_Group2_IMG_5982.jpg,0,encoded_Group2_IMG_5982.jpg,,,,,0.0,136.0,136.0,136.0,,,,,,,,,,,,,,,,,,,,,,,,,,,,,,,,,,,,,1557.4617680040246,None,1557.4617680040246,None,1557.4617680040246,None,1.0,1.5655445659940597,1557.4617680040246,None,1557.4617680040246,None,1.0,2.054293254012009,1558.5784091600217,None,1557.4617680040246,None,1.0,2.627922726998804,1559.0792671470265,None,1557.4617680040246,None,space,0.1158912160026375,2.6566022034094203,None,1557.4617680040246,None,1557.4617680040246,None,,,,,,,,,1,2022_Mar_25_1706,SAR-soap,2021.1.2,59.95664834685586,
142,Trial # 138,Group1-stimuli/group1-block1/fake-group2-b1/encoded_Group2_IMG_1144.jpg,0,encoded_Group2_IMG_1144.jpg,,,,,0.0,137.0,137.0,137.0,,,,,,,,,,,,,,,,,,,,,,,,,,,,,,,,,,,,,1560.2801006920054,None,1560.2801006920054,None,1560.2801006920054,None,5.0,2.3975460750225466,1560.2801006920054,None,1560.2801006920054,None,5.0,24.927466594002908,1562.214104838,None,1560.2801006920054,None,4.0,35.538098060002085,1565.4473087940132,None,1560.2801006920054,None,space,21.859844407998025,16.95842692037695,None,1560.2801006920054,None,1560.2801006920054,None,,,,,,,,,1,2022_Mar_25_1706,SAR-soap,2021.1.2,59.95664834685586,
143,Trial # 139,Group1-stimuli/group1-block1/fake-group2-b1/encoded_Group2_IMG_0315.jpg,0,encoded_Group2_IMG_0315.jpg,,,,,0.0,138.0,138.0,138.0,,,,,,,,,,,,,,,,,,,,,,,,,,,,,,,,,,,,,1599.1073390690144,None,1599.1073390690144,None,1599.1073390690144,None,1.0,1.6667589510034304,1599.1073390690144,None,1599.1073390690144,None,1.0,2.1222326639981475,1600.3260385680187,None,1599.1073390690144,None,1.0,2.5958446570148226,1600.7923766750027,None,1599.1073390690144,None,space,0.1913166219892446,2.6247789743938483,None,1599.1073390690144,None,1599.1073390690144,None,,,,,,,,,1,2022_Mar_25_1706,SAR-soap,2021.1.2,59.95664834685586,
144,Trial # 140,Group1-stimuli/group1-block1/real-group1-b1/Group1_IMG_130.jpg,1,Group1_IMG_130.jpg,,,,,0.0,139.0,139.0,139.0,,,,,,,,,,,,,,,,,,,,,,,,,,,,,,,,,,,,,1601.9418493580015,None,1601.9418493580015,None,1601.9418493580015,None,6.0,1.6961571389983874,1601.9418493580015,None,1601.9418493580015,None,6.0,4.921077274018899,1603.1923610640224,None,1601.9418493580015,None,4.0,7.826255822001258,1606.4262546720274,None,1601.9418493580015,None,space,2.530643487989437,7.853941922396189,None,1601.9418493580015,None,1601.9418493580015,None,,,,,,,,,1,2022_Mar_25_1706,SAR-soap,2021.1.2,59.95664834685586,
145,Trial # 141,Group1-stimuli/group1-block1/real-group1-b1/Group1_IMG_0024.jpg,1,Group1_IMG_0024.jpg,,,,,0.0,140.0,140.0,140.0,,,,,,,,,,,,,,,,,,,,,,,,,,,,,,,,,,,,,1612.3613851520058,None,1612.3613851520058,None,1612.3613851520058,None,5.0,2.611311353015481,1612.3613851520058,None,1612.3613851520058,None,4.0,4.634488470008364,1614.514414090023,None,1612.3613851520058,None,5.0,5.7058737780025695,1616.5474570730005,None,1612.3613851520058,None,space,1.7171336690080352,5.732327060395619,None,1612.3613851520058,None,1612.3613851520058,None,,,,,,,,,1,2022_Mar_25_1706,SAR-soap,2021.1.2,59.95664834685586,
146,Trial # 142,Group1-stimuli/group1-block1/fake-group2-b1/encoded_Group2_IMG_5012.jpg,0,encoded_Group2_IMG_5012.jpg,,,,,0.0,141.0,141.0,141.0,,,,,,,,,,,,,,,,,,,,,,,,,,,,,,,,,,,,,1619.8316988230215,None,1619.8316988230215,None,1619.8316988230215,None,3.0,2.684194603003561,1619.8316988230215,None,1619.8316988230215,None,2.0,4.356224700983148,1622.064794415026,None,1619.8316988230215,None,1.0,5.49487614701502,1623.7490687200043,None,1619.8316988230215,None,space,0.6155837800179143,5.524963083385956,None,1619.8316988230215,None,1619.8316988230215,None,,,,,,,,,1,2022_Mar_25_1706,SAR-soap,2021.1.2,59.95664834685586,
147,Trial # 143,Group1-stimuli/group1-block1/fake-group2-b1/encoded_Group2_IMG_0209.jpg,0,encoded_Group2_IMG_0209.jpg,,,,,0.0,142.0,142.0,142.0,,,,,,,,,,,,,,,,,,,,,,,,,,,,,,,,,,,,,1625.9994915520074,None,1625.9994915520074,None,1625.9994915520074,None,1.0,1.464691128989216,1625.9994915520074,None,1625.9994915520074,None,1.0,2.0554373289924115,1627.016702538007,None,1625.9994915520074,None,1.0,2.5943420810217503,1627.6164957150177,None,1625.9994915520074,None,space,0.1237080940045416,2.623791047401028,None,1625.9994915520074,None,1625.9994915520074,None,,,,,,,,,1,2022_Mar_25_1706,SAR-soap,2021.1.2,59.95664834685586,
148,Trial # 144,Group1-stimuli/group1-block1/real-group1-b1/Group1_IMG_0373.jpg,1,Group1_IMG_0373.jpg,,,,,0.0,143.0,143.0,143.0,,,,,,,,,,,,,,,,,,,,,,,,,,,,,,,,,,,,,1628.766614541004,None,1628.766614541004,None,1628.766614541004,None,1.0,1.3967054890235886,1628.766614541004,None,1628.766614541004,None,1.0,2.620505718019558,1629.718140064011,None,1628.766614541004,None,1.0,3.0585486689815298,1630.9514313830005,None,1628.766614541004,None,space,0.1213393179932609,3.0859500583901536,None,1628.766614541004,None,1628.766614541004,None,,,,,,,,,1,2022_Mar_25_1706,SAR-soap,2021.1.2,59.95664834685586,
149,Trial # 145,Group1-stimuli/group1-block1/real-group1-b1/Group1_IMG_5899.jpg,1,Group1_IMG_5899.jpg,,,,,0.0,144.0,144.0,144.0,,,,,,,,,,,,,,,,,,,,,,,,,,,,,,,,,,,,,1632.0018426270108,None,1632.0018426270108,None,1632.0018426270108,None,1.0,1.4805287010094617,1632.0018426270108,None,1632.0018426270108,None,1.0,3.104430298000807,1633.0347839030146,None,1632.0018426270108,None,1.0,5.441683580022072,1634.6694624770023,None,1632.0018426270108,None,space,1.415594764985144,5.469908294384368,None,1632.0018426270108,None,1632.0018426270108,None,,,,,,,,,1,2022_Mar_25_1706,SAR-soap,2021.1.2,59.95664834685586,
150,Trial # 146,Group1-stimuli/group1-block1/real-group1-b1/Group1_IMG_0162.jpg,1,Group1_IMG_0162.jpg,,,,,0.0,145.0,145.0,145.0,,,,,,,,,,,,,,,,,,,,,,,,,,,,,,,,,,,,,1638.9366922310146,None,1638.9366922310146,None,1638.9366922310146,None,5.0,6.497681476990692,1638.9366922310146,None,1638.9366922310146,None,4.0,7.203250174992718,1643.588806353015,None,1638.9366922310146,None,4.0,9.575808295980096,1645.6898224060133,None,1638.9366922310146,None,space,0.2735725750098936,9.60226397338556,None,1638.9366922310146,None,1638.9366922310146,None,,,,,,,,,1,2022_Mar_25_1706,SAR-soap,2021.1.2,59.95664834685586,
151,Trial # 147,Group1-stimuli/group1-block1/real-group1-b1/Group1_IMG_0543.jpg,1,Group1_IMG_0543.jpg,,,,,0.0,146.0,146.0,146.0,,,,,,,,,,,,,,,,,,,,,,,,,,,,,,,,,,,,,1648.8397121440212,None,1648.8397121440212,None,1648.8397121440212,None,1.0,2.264302041003248,1648.8397121440212,None,1648.8397121440212,None,1.0,2.854138750000857,1650.6571551900124,None,1648.8397121440212,None,1.0,3.323572888999479,1651.2575605750026,None,1648.8397121440212,None,space,0.1824564400012605,3.3522216303972527,None,1648.8397121440212,None,1648.8397121440212,None,,,,,,,,,1,2022_Mar_25_1706,SAR-soap,2021.1.2,59.95664834685586,
152,Trial # 148,Group1-stimuli/group1-block1/fake-group2-b1/encoded_Group2_IMG_0355.jpg,0,encoded_Group2_IMG_0355.jpg,,,,,0.0,147.0,147.0,147.0,,,,,,,,,,,,,,,,,,,,,,,,,,,,,,,,,,,,,1652.4077053500223,None,1652.4077053500223,None,1652.4077053500223,None,1.0,2.265219788008835,1652.4077053500223,None,1652.4077053500223,None,1.0,2.790238932997454,1654.224555321009,None,1652.4077053500223,None,1.0,3.3624896700202958,1654.7591589700023,None,1652.4077053500223,None,space,0.1409807940071914,3.3902329053671565,None,1652.4077053500223,None,1652.4077053500223,None,,,,,,,,,1,2022_Mar_25_1706,SAR-soap,2021.1.2,59.95664834685586,
153,Trial # 149,Group1-stimuli/group1-block1/real-group1-b1/Group1_IMG_9765.jpg,1,Group1_IMG_9765.jpg,,,,,0.0,148.0,148.0,148.0,,,,,,,,,,,,,,,,,,,,,,,,,,,,,,,,,,,,,1655.9751361950184,None,1655.9751361950184,None,1655.9751361950184,None,5.0,1.6284932699927597,1655.9751361950184,None,1655.9751361950184,None,4.0,3.751399594009854,1657.1593564070065,None,1655.9751361950184,None,3.0,14.228339963010512,1659.2927635010274,None,1655.9751361950184,None,space,7.227800880005816,8.584765430394327,None,1655.9751361950184,None,1655.9751361950184,None,,,,,,,,,1,2022_Mar_25_1706,SAR-soap,2021.1.2,59.95664834685586,
154,Trial # 150,Group1-stimuli/group1-block1/fake-group2-b1/encoded_Group2_IMG_1378.jpg,0,encoded_Group2_IMG_1378.jpg,,,,,0.0,149.0,149.0,149.0,,,,,,,,,,,,,,,,,,,,,,,,,,,,,,,,,,,,,1671.8142824520182,None,1671.8142824520182,None,1671.8142824520182,None,5.0,16.71906030300306,1671.8142824520182,None,1671.8142824520182,None,4.0,19.35887207600172,1675.3994645570056,None,1671.8142824520182,None,4.0,6.593496870977106,1676.9315666110197,None,1671.8142824520182,None,space,14.396789102989716,6.622060307417996,None,1671.8142824520182,None,1671.8142824520182,None,,,,,,,,,1,2022_Mar_25_1706,SAR-soap,2021.1.2,59.95664834685586,
155,Trial # 1,Group1-stimuli/group1-block2/fake-group2-b2/encoded_Group2_IMG_0155.jpg,0,encoded_Group2_IMG_0155.jpg,,,,,,,,,0.0,0.0,0.0,0.0,,,,,,,,,,,,,,,,,,,,,,,,,,,,,,,,,1801.9041701450187,None,1801.9041701450187,None,1801.9041701450187,None,6.0,2.236957050015917,1801.9041701450187,None,1801.9041701450187,None,5.0,5.99283663398819,1803.6874526480096,None,1801.9041701450187,None,4.0,8.232847187988227,1807.455204463011,None,1801.9041701450187,None,space,5.224541172996396,8.267928392073372,None,1801.9041701450187,None,1801.9041701450187,None,1778.0128757269997,None,1778.0128757269997,None,1778.0128757269997,None,1692.3531304600183,None,1,2022_Mar_25_1706,SAR-soap,2021.1.2,59.95664834685586,
156,Trial # 2,Group1-stimuli/group1-block2/real-group1-b2/Group1_IMG_0519.jpg,1,Group1_IMG_0519.jpg,,,,,,,,,0.0,1.0,1.0,1.0,,,,,,,,,,,,,,,,,,,,,,,,,,,,,,,,,1815.425309349026,None,1815.425309349026,None,1815.425309349026,None,4.0,3.472373288997914,1815.425309349026,None,1815.425309349026,None,3.0,5.479746020981111,1817.0252759990108,None,1815.425309349026,None,4.0,6.519685212988406,1820.459446450026,None,1815.425309349026,None,space,1.077331997017609,6.538616070407443,None,1815.425309349026,None,1815.425309349026,None,,,,,,,,,1,2022_Mar_25_1706,SAR-soap,2021.1.2,59.95664834685586,
157,Trial # 3,Group1-stimuli/group1-block2/fake-group2-b2/encoded_Group2_IMG_0135.jpg,0,encoded_Group2_IMG_0135.jpg,,,,,,,,,0.0,2.0,2.0,2.0,,,,,,,,,,,,,,,,,,,,,,,,,,,,,,,,,1823.0938852010004,None,1823.0938852010004,None,1823.0938852010004,None,1.0,1.5783679020241834,1823.0938852010004,None,1823.0938852010004,None,1.0,2.001905664976221,1824.210131603002,None,1823.0938852010004,None,1.0,2.474556153989397,1824.6451007910075,None,1823.0938852010004,None,space,0.3147886070073582,2.498616725380998,None,1823.0938852010004,None,1823.0938852010004,None,,,,,,,,,1,2022_Mar_25_1706,SAR-soap,2021.1.2,59.95664834685586,
158,Trial # 4,Group1-stimuli/group1-block2/real-group1-b2/Group1_IMG_5310.jpg,1,Group1_IMG_5310.jpg,,,,,,,,,0.0,3.0,3.0,3.0,,,,,,,,,,,,,,,,,,,,,,,,,,,,,,,,,1825.9453337940213,None,1825.9453337940213,None,1825.9453337940213,None,5.0,11.078554085019276,1825.9453337940213,None,1825.9453337940213,None,4.0,11.617859949008562,1829.612660448009,None,1825.9453337940213,None,5.0,12.523147450992838,1832.213780558028,None,1825.9453337940213,None,space,3.951205584977288,9.077551123395097,None,1825.9453337940213,None,1825.9453337940213,None,,,,,,,,,1,2022_Mar_25_1706,SAR-soap,2021.1.2,59.95664834685586,
159,Trial # 5,Group1-stimuli/group1-block2/real-group1-b2/Group1_IMG_0522.jpg,1,Group1_IMG_0522.jpg,,,,,,,,,0.0,4.0,4.0,4.0,,,,,,,,,,,,,,,,,,,,,,,,,,,,,,,,,1838.9977781910277,None,1838.9977781910277,None,1838.9977781910277,None,5.0,4.547580844024196,1838.9977781910277,None,1838.9977781910277,None,3.0,5.18645332599408,1841.383483461017,None,1838.9977781910277,None,4.0,6.325614439003402,1843.7503001540024,None,1838.9977781910277,None,space,0.7819800339930225,6.35362801537849,None,1838.9977781910277,None,1838.9977781910277,None,,,,,,,,,1,2022_Mar_25_1706,SAR-soap,2021.1.2,59.95664834685586,
160,Trial # 6,Group1-stimuli/group1-block2/fake-group2-b2/encoded_Group2_IMG_0484.jpg,0,encoded_Group2_IMG_0484.jpg,,,,,,,,,0.0,5.0,5.0,5.0,,,,,,,,,,,,,,,,,,,,,,,,,,,,,,,,,1846.1676463260085,None,1846.1676463260085,None,1846.1676463260085,None,1.0,1.4802030870050658,1846.1676463260085,None,1846.1676463260085,None,1.0,1.937498152983608,1847.2016341680137,None,1846.1676463260085,None,1.0,2.407877955003641,1847.6672983910248,None,1846.1676463260085,None,space,0.0758242949959822,2.4379031954158563,None,1846.1676463260085,None,1846.1676463260085,None,,,,,,,,,1,2022_Mar_25_1706,SAR-soap,2021.1.2,59.95664834685586,
161,Trial # 7,Group1-stimuli/group1-block2/fake-group2-b2/encoded_Group2_IMG_5948.jpg,0,encoded_Group2_IMG_5948.jpg,,,,,,,,,0.0,6.0,6.0,6.0,,,,,,,,,,,,,,,,,,,,,,,,,,,,,,,,,1848.718155228009,None,1848.718155228009,None,1848.718155228009,None,1.0,1.5322910630202389,1848.718155228009,None,1848.718155228009,None,1.0,2.1564346610102803,1849.803226546006,None,1848.718155228009,None,1.0,2.694333499995992,1850.4353245600068,None,1848.718155228009,None,space,0.081082216987852,2.723252128373133,None,1848.718155228009,None,1848.718155228009,None,,,,,,,,,1,2022_Mar_25_1706,SAR-soap,2021.1.2,59.95664834685586,
162,Trial # 8,Group1-stimuli/group1-block2/fake-group2-b2/encoded_Group2_IMG_3591.jpg,0,encoded_Group2_IMG_3591.jpg,,,,,,,,,0.0,7.0,7.0,7.0,,,,,,,,,,,,,,,,,,,,,,,,,,,,,,,,,1851.552149214025,None,1851.552149214025,None,1851.552149214025,None,1.0,13.369634189002682,1851.552149214025,None,1851.552149214025,None,1.0,14.34110401198268,1858.254751403001,None,1851.552149214025,None,1.0,16.313379928993527,1865.456860129023,None,1851.552149214025,None,space,0.17843771900516,16.34338679141365,None,1851.552149214025,None,1851.552149214025,None,,,,,,,,,1,2022_Mar_25_1706,SAR-soap,2021.1.2,59.95664834685586,
