,Trial_num,image_name,image_path,pair_type,layers,block1.thisRepN,block1.thisTrialN,block1.thisN,block1.thisIndex,block2.thisRepN,block2.thisTrialN,block2.thisN,block2.thisIndex,block3.thisRepN,block3.thisTrialN,block3.thisN,block3.thisIndex,image_8.started,image_8.stopped,selected_semantic.response,selected_semantic.rt,selected_semantic.started,selected_semantic.stopped,Instruction.started,Instruction.stopped,Trial_number.started,Trial_number.stopped,session,date,expName,psychopyVersion,frameRate,Unnamed: 33
0,Trial # 1,layer0-5_O2_to_T1.jpg,layer0-5/layer0-5_O2_to_T1.jpg,OT,layer0-5,0.0,0.0,0.0,0.0,,,,,,,,,279.97386336606,None,1.0,145.91243552789092,279.97386336606,None,279.97386336606,None,279.97386336606,None,1,2022_Jul_11_1153,Semantic-hierachy,2021.1.2,59.9023854813632,
1,Trial # 2,layer0-5_O11_to_T7.jpg,layer0-5/layer0-5_O11_to_T7.jpg,OT,layer0-5,0.0,1.0,1.0,1.0,,,,,,,,,426.7033883999102,None,1.0,34.16515189805068,426.7033883999102,None,426.7033883999102,None,426.7033883999102,None,1,2022_Jul_11_1153,Semantic-hierachy,2021.1.2,59.9023854813632,
2,Trial # 3,layer6-8_O3_to_O5.jpg,layer6-8/layer6-8_O3_to_O5.jpg,OO,layer6-8,0.0,2.0,2.0,2.0,,,,,,,,,461.4637420868967,None,4.0,5.868250079918653,461.4637420868967,None,461.4637420868967,None,461.4637420868967,None,1,2022_Jul_11_1153,Semantic-hierachy,2021.1.2,59.9023854813632,
3,Trial # 4,layer6-8_O11_to_O4.jpg,layer6-8/layer6-8_O11_to_O4.jpg,OO,layer6-8,0.0,3.0,3.0,3.0,,,,,,,,,468.03193584107794,None,2.0,16.093580421991646,468.03193584107794,None,468.03193584107794,None,468.03193584107794,None,1,2022_Jul_11_1153,Semantic-hierachy,2021.1.2,59.9023854813632,
4,Trial # 5,layer6-8_O8_to_T8.jpg,layer6-8/layer6-8_O8_to_T8.jpg,OT,layer6-8,0.0,4.0,4.0,4.0,,,,,,,,,484.4199738809839,None,2.0,13.925698888022453,484.4199738809839,None,484.4199738809839,None,484.4199738809839,None,1,2022_Jul_11_1153,Semantic-hierachy,2021.1.2,59.9023854813632,
5,Trial # 6,layer0-5_O11_to_O8.jpg,layer0-5/layer0-5_O11_to_O8.jpg,OO,layer0-5,0.0,5.0,5.0,5.0,,,,,,,,,501.826545967022,None,1.0,5.434370839037001,501.826545967022,None,501.826545967022,None,501.826545967022,None,1,2022_Jul_11_1153,Semantic-hierachy,2021.1.2,59.9023854813632,
6,Trial # 7,layer0-5_T10_to_T11.jpg,layer0-5/layer0-5_T10_to_T11.jpg,TT,layer0-5,0.0,6.0,6.0,6.0,,,,,,,,,507.9605994420126,None,1.0,8.9631107209716,507.9605994420126,None,507.9605994420126,None,507.9605994420126,None,1,2022_Jul_11_1153,Semantic-hierachy,2021.1.2,59.9023854813632,
7,Trial # 8,layer9-17_O6_to_O9.jpg,layer9-17/layer9-17_O6_to_O9.jpg,OO,layer9-17,0.0,7.0,7.0,7.0,,,,,,,,,517.3810793820303,None,2.0,4.171047192998231,517.3810793820303,None,517.3810793820303,None,517.3810793820303,None,1,2022_Jul_11_1153,Semantic-hierachy,2021.1.2,59.9023854813632,
8,Trial # 9,layer6-8_O12_to_O9.jpg,layer6-8/layer6-8_O12_to_O9.jpg,OO,layer6-8,0.0,8.0,8.0,8.0,,,,,,,,,523.1985913610552,None,4.0,12.944046857999638,523.1985913610552,None,523.1985913610552,None,523.1985913610552,None,1,2022_Jul_11_1153,Semantic-hierachy,2021.1.2,59.9023854813632,
9,Trial # 10,layer0-5_O10_to_T2.jpg,layer0-5/layer0-5_O10_to_T2.jpg,OT,layer0-5,0.0,9.0,9.0,9.0,,,,,,,,,537.1869538829196,None,1.0,17.98008403601125,537.1869538829196,None,537.1869538829196,None,537.1869538829196,None,1,2022_Jul_11_1153,Semantic-hierachy,2021.1.2,59.9023854813632,
10,Trial # 11,layer9-17_T10_to_T2.jpg,layer9-17/layer9-17_T10_to_T2.jpg,TT,layer9-17,0.0,10.0,10.0,10.0,,,,,,,,,556.8433175371028,None,4.0,41.43501435709186,556.8433175371028,None,556.8433175371028,None,556.8433175371028,None,1,2022_Jul_11_1153,Semantic-hierachy,2021.1.2,59.9023854813632,
11,Trial # 12,layer6-8_T6_to_T7.jpg,layer6-8/layer6-8_T6_to_T7.jpg,TT,layer6-8,0.0,11.0,11.0,11.0,,,,,,,,,598.638514589984,None,4.0,10.227542153093964,598.638514589984,None,598.638514589984,None,598.638514589984,None,1,2022_Jul_11_1153,Semantic-hierachy,2021.1.2,59.9023854813632,
12,Trial # 13,layer9-17_O10_to_T2.jpg,layer9-17/layer9-17_O10_to_T2.jpg,OT,layer9-17,0.0,12.0,12.0,12.0,,,,,,,,,609.342400866095,None,2.0,2.65612348401919,609.342400866095,None,609.342400866095,None,609.342400866095,None,1,2022_Jul_11_1153,Semantic-hierachy,2021.1.2,59.9023854813632,
13,Trial # 14,layer6-8_T4_to_T7.jpg,layer6-8/layer6-8_T4_to_T7.jpg,TT,layer6-8,0.0,13.0,13.0,13.0,,,,,,,,,612.4107654099353,None,4.0,9.740322564961389,612.4107654099353,None,612.4107654099353,None,612.4107654099353,None,1,2022_Jul_11_1153,Semantic-hierachy,2021.1.2,59.9023854813632,
14,Trial # 15,layer9-17_O8_to_T2.jpg,layer9-17/layer9-17_O8_to_T2.jpg,OT,layer9-17,0.0,14.0,14.0,14.0,,,,,,,,,632.6489107420202,None,2.0,2.106029991991818,632.6489107420202,None,632.6489107420202,None,632.6489107420202,None,1,2022_Jul_11_1153,Semantic-hierachy,2021.1.2,59.9023854813632,
15,Trial # 16,layer0-5_T6_to_T9.jpg,layer0-5/layer0-5_T6_to_T9.jpg,TT,layer0-5,0.0,15.0,15.0,15.0,,,,,,,,,635.1661461410113,None,1.0,2.696288075996563,635.1661461410113,None,635.1661461410113,None,635.1661461410113,None,1,2022_Jul_11_1153,Semantic-hierachy,2021.1.2,59.9023854813632,
16,Trial # 17,layer0-5_O11_to_O12.jpg,layer0-5/layer0-5_O11_to_O12.jpg,OO,layer0-5,0.0,16.0,16.0,16.0,,,,,,,,,638.7508823610842,None,1.0,7.311097961151972,638.7508823610842,None,638.7508823610842,None,638.7508823610842,None,1,2022_Jul_11_1153,Semantic-hierachy,2021.1.2,59.9023854813632,
17,Trial # 18,layer0-5_T11_to_T5.jpg,layer0-5/layer0-5_T11_to_T5.jpg,TT,layer0-5,0.0,17.0,17.0,17.0,,,,,,,,,646.5712719429284,None,1.0,4.976463436847553,646.5712719429284,None,646.5712719429284,None,646.5712719429284,None,1,2022_Jul_11_1153,Semantic-hierachy,2021.1.2,59.9023854813632,
18,Trial # 19,layer0-5_O6_to_T12.jpg,layer0-5/layer0-5_O6_to_T12.jpg,OT,layer0-5,0.0,18.0,18.0,18.0,,,,,,,,,652.289456439903,None,1.0,6.9173946171067655,652.289456439903,None,652.289456439903,None,652.289456439903,None,1,2022_Jul_11_1153,Semantic-hierachy,2021.1.2,59.9023854813632,
19,Trial # 20,layer6-8_T6_to_T8.jpg,layer6-8/layer6-8_T6_to_T8.jpg,TT,layer6-8,0.0,19.0,19.0,19.0,,,,,,,,,659.707328686025,None,3.0,17.875606884015724,659.707328686025,None,659.707328686025,None,659.707328686025,None,1,2022_Jul_11_1153,Semantic-hierachy,2021.1.2,59.9023854813632,
20,Trial # 21,layer9-17_T2_to_T5.jpg,layer9-17/layer9-17_T2_to_T5.jpg,TT,layer9-17,0.0,20.0,20.0,20.0,,,,,,,,,684.9491999580059,None,2.0,2.059694289928302,684.9491999580059,None,684.9491999580059,None,684.9491999580059,None,1,2022_Jul_11_1153,Semantic-hierachy,2021.1.2,59.9023854813632,
21,Trial # 22,layer6-8_O2_to_O6.jpg,layer6-8/layer6-8_O2_to_O6.jpg,OO,layer6-8,0.0,21.0,21.0,21.0,,,,,,,,,687.6004631030373,None,3.0,3.8738229998853058,687.6004631030373,None,687.6004631030373,None,687.6004631030373,None,1,2022_Jul_11_1153,Semantic-hierachy,2021.1.2,59.9023854813632,
22,Trial # 23,layer9-17_O3_to_T12.jpg,layer9-17/layer9-17_O3_to_T12.jpg,OT,layer9-17,0.0,22.0,22.0,22.0,,,,,,,,,692.1011303900741,None,2.0,1.853825516998768,692.1011303900741,None,692.1011303900741,None,692.1011303900741,None,1,2022_Jul_11_1153,Semantic-hierachy,2021.1.2,59.9023854813632,
23,Trial # 24,layer0-5_O11_to_O3.jpg,layer0-5/layer0-5_O11_to_O3.jpg,OO,layer0-5,0.0,23.0,23.0,23.0,,,,,,,,,694.3514908119105,None,1.0,2.1938924400601536,694.3514908119105,None,694.3514908119105,None,694.3514908119105,None,1,2022_Jul_11_1153,Semantic-hierachy,2021.1.2,59.9023854813632,
24,Trial # 25,layer6-8_O2_to_O9.jpg,layer6-8/layer6-8_O2_to_O9.jpg,OO,layer6-8,0.0,24.0,24.0,24.0,,,,,,,,,696.9028582980391,None,4.0,2.809500731062144,696.9028582980391,None,696.9028582980391,None,696.9028582980391,None,1,2022_Jul_11_1153,Semantic-hierachy,2021.1.2,59.9023854813632,
25,Trial # 26,layer9-17_O10_to_O8.jpg,layer9-17/layer9-17_O10_to_O8.jpg,OO,layer9-17,0.0,25.0,25.0,25.0,,,,,,,,,700.1203064171132,None,4.0,19.07584356004372,700.1203064171132,None,700.1203064171132,None,700.1203064171132,None,1,2022_Jul_11_1153,Semantic-hierachy,2021.1.2,59.9023854813632,
26,Trial # 27,layer9-17_T4_to_T6.jpg,layer9-17/layer9-17_T4_to_T6.jpg,TT,layer9-17,0.0,26.0,26.0,26.0,,,,,,,,,719.5590887409635,None,2.0,2.4376216798555106,719.5590887409635,None,719.5590887409635,None,719.5590887409635,None,1,2022_Jul_11_1153,Semantic-hierachy,2021.1.2,59.9023854813632,
27,Trial # 28,layer6-8_O7_to_T8.jpg,layer6-8/layer6-8_O7_to_T8.jpg,OT,layer6-8,0.0,27.0,27.0,27.0,,,,,,,,,722.3939191619866,None,2.0,1.7862283219583333,722.3939191619866,None,722.3939191619866,None,722.3939191619866,None,1,2022_Jul_11_1153,Semantic-hierachy,2021.1.2,59.9023854813632,
28,Trial # 29,layer6-8_T4_to_T5.jpg,layer6-8/layer6-8_T4_to_T5.jpg,TT,layer6-8,0.0,28.0,28.0,28.0,,,,,,,,,724.544235809939,None,3.0,4.520050856983289,724.544235809939,None,724.544235809939,None,724.544235809939,None,1,2022_Jul_11_1153,Semantic-hierachy,2021.1.2,59.9023854813632,
29,Trial # 30,layer6-8_T10_to_T9.jpg,layer6-8/layer6-8_T10_to_T9.jpg,TT,layer6-8,0.0,29.0,29.0,29.0,,,,,,,,,729.3622870929539,None,3.0,7.524989924160764,729.3622870929539,None,729.3622870929539,None,729.3622870929539,None,1,2022_Jul_11_1153,Semantic-hierachy,2021.1.2,59.9023854813632,
30,Trial # 31,layer9-17_O1_to_O8.jpg,layer9-17/layer9-17_O1_to_O8.jpg,OO,layer9-17,0.0,30.0,30.0,30.0,,,,,,,,,737.7159780079965,None,3.0,9.24277220503427,737.7159780079965,None,737.7159780079965,None,737.7159780079965,None,1,2022_Jul_11_1153,Semantic-hierachy,2021.1.2,59.9023854813632,
31,Trial # 32,layer9-17_O12_to_O7.jpg,layer9-17/layer9-17_O12_to_O7.jpg,OO,layer9-17,0.0,31.0,31.0,31.0,,,,,,,,,747.2846974330023,None,4.0,4.848438517889008,747.2846974330023,None,747.2846974330023,None,747.2846974330023,None,1,2022_Jul_11_1153,Semantic-hierachy,2021.1.2,59.9023854813632,
32,Trial # 33,layer9-17_T10_to_T12.jpg,layer9-17/layer9-17_T10_to_T12.jpg,TT,layer9-17,0.0,32.0,32.0,32.0,,,,,,,,,752.4863795600832,None,4.0,7.239704068051651,752.4863795600832,None,752.4863795600832,None,752.4863795600832,None,1,2022_Jul_11_1153,Semantic-hierachy,2021.1.2,59.9023854813632,
33,Trial # 34,layer0-5_T2_to_T6.jpg,layer0-5/layer0-5_T2_to_T6.jpg,TT,layer0-5,0.0,33.0,33.0,33.0,,,,,,,,,759.987997922115,None,3.0,12.496083538979292,759.987997922115,None,759.987997922115,None,759.987997922115,None,1,2022_Jul_11_1153,Semantic-hierachy,2021.1.2,59.9023854813632,
34,Trial # 35,layer6-8_T11_to_T2.jpg,layer6-8/layer6-8_T11_to_T2.jpg,TT,layer6-8,0.0,34.0,34.0,34.0,,,,,,,,,773.3757523049135,None,3.0,2.569553618086502,773.3757523049135,None,773.3757523049135,None,773.3757523049135,None,1,2022_Jul_11_1153,Semantic-hierachy,2021.1.2,59.9023854813632,
35,Trial # 36,layer6-8_O4_to_T3.jpg,layer6-8/layer6-8_O4_to_T3.jpg,OT,layer6-8,0.0,35.0,35.0,35.0,,,,,,,,,776.3779188659973,None,3.0,2.2568496929015964,776.3779188659973,None,776.3779188659973,None,776.3779188659973,None,1,2022_Jul_11_1153,Semantic-hierachy,2021.1.2,59.9023854813632,
36,Trial # 37,layer6-8_O3_to_T11.jpg,layer6-8/layer6-8_O3_to_T11.jpg,OT,layer6-8,0.0,36.0,36.0,36.0,,,,,,,,,779.0113804619759,None,2.0,2.726152381161228,779.0113804619759,None,779.0113804619759,None,779.0113804619759,None,1,2022_Jul_11_1153,Semantic-hierachy,2021.1.2,59.9023854813632,
37,Trial # 38,layer6-8_T1_to_T2.jpg,layer6-8/layer6-8_T1_to_T2.jpg,TT,layer6-8,0.0,37.0,37.0,37.0,,,,,,,,,782.0298282760195,None,4.0,8.207253333879635,782.0298282760195,None,782.0298282760195,None,782.0298282760195,None,1,2022_Jul_11_1153,Semantic-hierachy,2021.1.2,59.9023854813632,
38,Trial # 39,layer9-17_O2_to_O6.jpg,layer9-17/layer9-17_O2_to_O6.jpg,OO,layer9-17,0.0,38.0,38.0,38.0,,,,,,,,,790.6147453319281,None,4.0,3.3769956789910798,790.6147453319281,None,790.6147453319281,None,790.6147453319281,None,1,2022_Jul_11_1153,Semantic-hierachy,2021.1.2,59.9023854813632,
39,Trial # 40,layer9-17_O4_to_T2.jpg,layer9-17/layer9-17_O4_to_T2.jpg,OT,layer9-17,0.0,39.0,39.0,39.0,,,,,,,,,794.2661676679272,None,2.0,3.425676944898441,794.2661676679272,None,794.2661676679272,None,794.2661676679272,None,1,2022_Jul_11_1153,Semantic-hierachy,2021.1.2,59.9023854813632,
40,Trial # 41,layer6-8_O5_to_T3.jpg,layer6-8/layer6-8_O5_to_T3.jpg,OT,layer6-8,0.0,40.0,40.0,40.0,,,,,,,,,798.0003298460506,None,3.0,3.2975488482043147,798.0003298460506,None,798.0003298460506,None,798.0003298460506,None,1,2022_Jul_11_1153,Semantic-hierachy,2021.1.2,59.9023854813632,
41,Trial # 42,layer6-8_O2_to_O3.jpg,layer6-8/layer6-8_O2_to_O3.jpg,OO,layer6-8,0.0,41.0,41.0,41.0,,,,,,,,,801.6190920830704,None,4.0,4.9254190139472485,801.6190920830704,None,801.6190920830704,None,801.6190920830704,None,1,2022_Jul_11_1153,Semantic-hierachy,2021.1.2,59.9023854813632,
42,Trial # 43,layer6-8_O1_to_T6.jpg,layer6-8/layer6-8_O1_to_T6.jpg,OT,layer6-8,0.0,42.0,42.0,42.0,,,,,,,,,806.8372245240025,None,3.0,3.2896136078052223,806.8372245240025,None,806.8372245240025,None,806.8372245240025,None,1,2022_Jul_11_1153,Semantic-hierachy,2021.1.2,59.9023854813632,
43,Trial # 44,layer6-8_O2_to_T12.jpg,layer6-8/layer6-8_O2_to_T12.jpg,OT,layer6-8,0.0,43.0,43.0,43.0,,,,,,,,,810.4372346741147,None,3.0,2.7599662931170315,810.4372346741147,None,810.4372346741147,None,810.4372346741147,None,1,2022_Jul_11_1153,Semantic-hierachy,2021.1.2,59.9023854813632,
44,Trial # 45,layer9-17_O2_to_O8.jpg,layer9-17/layer9-17_O2_to_O8.jpg,OO,layer9-17,0.0,44.0,44.0,44.0,,,,,,,,,814.0061687699053,None,4.0,1.988827285822481,814.0061687699053,None,814.0061687699053,None,814.0061687699053,None,1,2022_Jul_11_1153,Semantic-hierachy,2021.1.2,59.9023854813632,
45,Trial # 46,layer9-17_O10_to_O4.jpg,layer9-17/layer9-17_O10_to_O4.jpg,OO,layer9-17,0.0,45.0,45.0,45.0,,,,,,,,,816.323671923019,None,3.0,5.144003245979548,816.323671923019,None,816.323671923019,None,816.323671923019,None,1,2022_Jul_11_1153,Semantic-hierachy,2021.1.2,59.9023854813632,
46,Trial # 47,layer0-5_O1_to_O4.jpg,layer0-5/layer0-5_O1_to_O4.jpg,OO,layer0-5,0.0,46.0,46.0,46.0,,,,,,,,,824.9750353249256,None,1.0,8.296649769879878,824.9750353249256,None,824.9750353249256,None,824.9750353249256,None,1,2022_Jul_11_1153,Semantic-hierachy,2021.1.2,59.9023854813632,
47,Trial # 48,layer0-5_T4_to_T5.jpg,layer0-5/layer0-5_T4_to_T5.jpg,TT,layer0-5,0.0,47.0,47.0,47.0,,,,,,,,,833.6115772160701,None,1.0,2.2712809019722044,833.6115772160701,None,833.6115772160701,None,833.6115772160701,None,1,2022_Jul_11_1153,Semantic-hierachy,2021.1.2,59.9023854813632,
48,Trial # 49,layer9-17_T12_to_T8.jpg,layer9-17/layer9-17_T12_to_T8.jpg,TT,layer9-17,0.0,48.0,48.0,48.0,,,,,,,,,836.246797912987,None,2.0,1.619770973920822,836.246797912987,None,836.246797912987,None,836.246797912987,None,1,2022_Jul_11_1153,Semantic-hierachy,2021.1.2,59.9023854813632,
49,Trial # 50,layer0-5_T10_to_T5.jpg,layer0-5/layer0-5_T10_to_T5.jpg,TT,layer0-5,0.0,49.0,49.0,49.0,,,,,,,,,838.5627027119044,None,1.0,2.3574975768569857,838.5627027119044,None,838.5627027119044,None,838.5627027119044,None,1,2022_Jul_11_1153,Semantic-hierachy,2021.1.2,59.9023854813632,
50,Trial # 51,layer6-8_O10_to_O8.jpg,layer6-8/layer6-8_O10_to_O8.jpg,OO,layer6-8,0.0,50.0,50.0,50.0,,,,,,,,,841.331430678023,None,4.0,8.270995024126023,841.331430678023,None,841.331430678023,None,841.331430678023,None,1,2022_Jul_11_1153,Semantic-hierachy,2021.1.2,59.9023854813632,
51,Trial # 52,layer9-17_O3_to_O5.jpg,layer9-17/layer9-17_O3_to_O5.jpg,OO,layer9-17,0.0,51.0,51.0,51.0,,,,,,,,,849.8995268871076,None,2.0,2.8954070571344346,849.8995268871076,None,849.8995268871076,None,849.8995268871076,None,1,2022_Jul_11_1153,Semantic-hierachy,2021.1.2,59.9023854813632,
52,Trial # 53,layer6-8_T1_to_T12.jpg,layer6-8/layer6-8_T1_to_T12.jpg,TT,layer6-8,0.0,52.0,52.0,52.0,,,,,,,,,853.0670140469447,None,3.0,5.006711822003126,853.0670140469447,None,853.0670140469447,None,853.0670140469447,None,1,2022_Jul_11_1153,Semantic-hierachy,2021.1.2,59.9023854813632,
53,Trial # 54,layer0-5_O4_to_O9.jpg,layer0-5/layer0-5_O4_to_O9.jpg,OO,layer0-5,0.0,53.0,53.0,53.0,,,,,,,,,858.7197911879048,None,1.0,4.897517835022882,858.7197911879048,None,858.7197911879048,None,858.7197911879048,None,1,2022_Jul_11_1153,Semantic-hierachy,2021.1.2,59.9023854813632,
54,Trial # 55,layer0-5_O5_to_O9.jpg,layer0-5/layer0-5_O5_to_O9.jpg,OO,layer0-5,0.0,54.0,54.0,54.0,,,,,,,,,864.0040001489688,None,1.0,3.651256012963131,864.0040001489688,None,864.0040001489688,None,864.0040001489688,None,1,2022_Jul_11_1153,Semantic-hierachy,2021.1.2,59.9023854813632,
55,Trial # 56,layer0-5_O1_to_O2.jpg,layer0-5/layer0-5_O1_to_O2.jpg,OO,layer0-5,0.0,55.0,55.0,55.0,,,,,,,,,868.0383562128991,None,1.0,2.169113183859736,868.0383562128991,None,868.0383562128991,None,868.0383562128991,None,1,2022_Jul_11_1153,Semantic-hierachy,2021.1.2,59.9023854813632,
56,Trial # 57,layer9-17_T12_to_T3.jpg,layer9-17/layer9-17_T12_to_T3.jpg,TT,layer9-17,0.0,56.0,56.0,56.0,,,,,,,,,870.73921435792,None,2.0,3.199223254108801,870.73921435792,None,870.73921435792,None,870.73921435792,None,1,2022_Jul_11_1153,Semantic-hierachy,2021.1.2,59.9023854813632,
57,Trial # 58,layer0-5_O7_to_O9.jpg,layer0-5/layer0-5_O7_to_O9.jpg,OO,layer0-5,0.0,57.0,57.0,57.0,,,,,,,,,874.3404099131003,None,1.0,4.723390344996005,874.3404099131003,None,874.3404099131003,None,874.3404099131003,None,1,2022_Jul_11_1153,Semantic-hierachy,2021.1.2,59.9023854813632,
58,Trial # 59,layer0-5_T5_to_T9.jpg,layer0-5/layer0-5_T5_to_T9.jpg,TT,layer0-5,0.0,58.0,58.0,58.0,,,,,,,,,879.4258607910015,None,1.0,1.9267813798505813,879.4258607910015,None,879.4258607910015,None,879.4258607910015,None,1,2022_Jul_11_1153,Semantic-hierachy,2021.1.2,59.9023854813632,
59,Trial # 60,layer9-17_O1_to_O9.jpg,layer9-17/layer9-17_O1_to_O9.jpg,OO,layer9-17,0.0,59.0,59.0,59.0,,,,,,,,,881.6940190389287,None,4.0,10.141958144959062,881.6940190389287,None,881.6940190389287,None,881.6940190389287,None,1,2022_Jul_11_1153,Semantic-hierachy,2021.1.2,59.9023854813632,
60,Trial # 61,layer0-5_O6_to_O7.jpg,layer0-5/layer0-5_O6_to_O7.jpg,OO,layer0-5,0.0,60.0,60.0,60.0,,,,,,,,,893.4631097589154,None,1.0,2.128094651037827,893.4631097589154,None,893.4631097589154,None,893.4631097589154,None,1,2022_Jul_11_1153,Semantic-hierachy,2021.1.2,59.9023854813632,
61,Trial # 62,layer9-17_T5_to_T6.jpg,layer9-17/layer9-17_T5_to_T6.jpg,TT,layer9-17,0.0,61.0,61.0,61.0,,,,,,,,,896.1317578330636,None,2.0,5.371561619918793,896.1317578330636,None,896.1317578330636,None,896.1317578330636,None,1,2022_Jul_11_1153,Semantic-hierachy,2021.1.2,59.9023854813632,
62,Trial # 63,layer9-17_T4_to_T9.jpg,layer9-17/layer9-17_T4_to_T9.jpg,TT,layer9-17,0.0,62.0,62.0,62.0,,,,,,,,,902.0333367120476,None,2.0,1.5444875301327556,902.0333367120476,None,902.0333367120476,None,902.0333367120476,None,1,2022_Jul_11_1153,Semantic-hierachy,2021.1.2,59.9023854813632,
63,Trial # 64,layer0-5_O11_to_T1.jpg,layer0-5/layer0-5_O11_to_T1.jpg,OT,layer0-5,0.0,63.0,63.0,63.0,,,,,,,,,903.8997170880904,None,1.0,2.010679603088647,903.8997170880904,None,903.8997170880904,None,903.8997170880904,None,1,2022_Jul_11_1153,Semantic-hierachy,2021.1.2,59.9023854813632,
64,Trial # 65,layer6-8_T5_to_T9.jpg,layer6-8/layer6-8_T5_to_T9.jpg,TT,layer6-8,0.0,64.0,64.0,64.0,,,,,,,,,906.2508250318932,None,4.0,2.4917760430835187,906.2508250318932,None,906.2508250318932,None,906.2508250318932,None,1,2022_Jul_11_1153,Semantic-hierachy,2021.1.2,59.9023854813632,
65,Trial # 66,layer0-5_T4_to_T7.jpg,layer0-5/layer0-5_T4_to_T7.jpg,TT,layer0-5,0.0,65.0,65.0,65.0,,,,,,,,,909.0845460449344,None,1.0,3.2252973071299493,909.0845460449344,None,909.0845460449344,None,909.0845460449344,None,1,2022_Jul_11_1153,Semantic-hierachy,2021.1.2,59.9023854813632,
66,Trial # 67,layer0-5_O2_to_O6.jpg,layer0-5/layer0-5_O2_to_O6.jpg,OO,layer0-5,0.0,66.0,66.0,66.0,,,,,,,,,912.6530251430812,None,1.0,1.9685243610292675,912.6530251430812,None,912.6530251430812,None,912.6530251430812,None,1,2022_Jul_11_1153,Semantic-hierachy,2021.1.2,59.9023854813632,
67,Trial # 68,layer9-17_O12_to_T3.jpg,layer9-17/layer9-17_O12_to_T3.jpg,OT,layer9-17,0.0,67.0,67.0,67.0,,,,,,,,,915.019644682994,None,2.0,1.6674939838703722,915.019644682994,None,915.019644682994,None,915.019644682994,None,1,2022_Jul_11_1153,Semantic-hierachy,2021.1.2,59.9023854813632,
68,Trial # 69,layer9-17_O7_to_O9.jpg,layer9-17/layer9-17_O7_to_O9.jpg,OO,layer9-17,0.0,68.0,68.0,68.0,,,,,,,,,917.0381468359848,None,4.0,6.693978959927335,917.0381468359848,None,917.0381468359848,None,917.0381468359848,None,1,2022_Jul_11_1153,Semantic-hierachy,2021.1.2,59.9023854813632,
69,Trial # 70,layer9-17_T1_to_T8.jpg,layer9-17/layer9-17_T1_to_T8.jpg,TT,layer9-17,0.0,69.0,69.0,69.0,,,,,,,,,928.4905940629542,None,3.0,2.2596702240407467,928.4905940629542,None,928.4905940629542,None,928.4905940629542,None,1,2022_Jul_11_1153,Semantic-hierachy,2021.1.2,59.9023854813632,
70,Trial # 71,layer0-5_O3_to_T8.jpg,layer0-5/layer0-5_O3_to_T8.jpg,OT,layer0-5,0.0,70.0,70.0,70.0,,,,,,,,,931.126053649932,None,1.0,1.8272958011366427,931.126053649932,None,931.126053649932,None,931.126053649932,None,1,2022_Jul_11_1153,Semantic-hierachy,2021.1.2,59.9023854813632,
71,Trial # 72,layer9-17_O9_to_T2.jpg,layer9-17/layer9-17_O9_to_T2.jpg,OT,layer9-17,0.0,71.0,71.0,71.0,,,,,,,,,933.4258283390664,None,4.0,2.578733789967373,933.4258283390664,None,933.4258283390664,None,933.4258283390664,None,1,2022_Jul_11_1153,Semantic-hierachy,2021.1.2,59.9023854813632,
72,Trial # 73,layer9-17_O5_to_O7.jpg,layer9-17/layer9-17_O5_to_O7.jpg,OO,layer9-17,0.0,72.0,72.0,72.0,,,,,,,,,936.4942311670166,None,2.0,1.953756184084341,936.4942311670166,None,936.4942311670166,None,936.4942311670166,None,1,2022_Jul_11_1153,Semantic-hierachy,2021.1.2,59.9023854813632,
73,Trial # 74,layer0-5_T11_to_T9.jpg,layer0-5/layer0-5_T11_to_T9.jpg,TT,layer0-5,0.0,73.0,73.0,73.0,,,,,,,,,938.7437292400282,None,1.0,3.5945134421344846,938.7437292400282,None,938.7437292400282,None,938.7437292400282,None,1,2022_Jul_11_1153,Semantic-hierachy,2021.1.2,59.9023854813632,
74,Trial # 75,layer0-5_O11_to_T12.jpg,layer0-5/layer0-5_O11_to_T12.jpg,OT,layer0-5,0.0,74.0,74.0,74.0,,,,,,,,,942.6460812399164,None,1.0,2.223489949014038,942.6460812399164,None,942.6460812399164,None,942.6460812399164,None,1,2022_Jul_11_1153,Semantic-hierachy,2021.1.2,59.9023854813632,
75,Trial # 76,layer9-17_T7_to_T9.jpg,layer9-17/layer9-17_T7_to_T9.jpg,TT,layer9-17,0.0,75.0,75.0,75.0,,,,,,,,,945.1790178990924,None,4.0,7.860389466863126,945.1790178990924,None,945.1790178990924,None,945.1790178990924,None,1,2022_Jul_11_1153,Semantic-hierachy,2021.1.2,59.9023854813632,
76,Trial # 77,layer6-8_O6_to_T2.jpg,layer6-8/layer6-8_O6_to_T2.jpg,OT,layer6-8,0.0,76.0,76.0,76.0,,,,,,,,,953.4487525490111,None,4.0,4.184389488073066,953.4487525490111,None,953.4487525490111,None,953.4487525490111,None,1,2022_Jul_11_1153,Semantic-hierachy,2021.1.2,59.9023854813632,
77,Trial # 78,layer9-17_T4_to_T5.jpg,layer9-17/layer9-17_T4_to_T5.jpg,TT,layer9-17,0.0,77.0,77.0,77.0,,,,,,,,,957.8845037869178,None,2.0,6.129269315162674,957.8845037869178,None,957.8845037869178,None,957.8845037869178,None,1,2022_Jul_11_1153,Semantic-hierachy,2021.1.2,59.9023854813632,
78,Trial # 79,layer0-5_T2_to_T4.jpg,layer0-5/layer0-5_T2_to_T4.jpg,TT,layer0-5,0.0,78.0,78.0,78.0,,,,,,,,,964.4188383319416,None,1.0,2.6154020440299064,964.4188383319416,None,964.4188383319416,None,964.4188383319416,None,1,2022_Jul_11_1153,Semantic-hierachy,2021.1.2,59.9023854813632,
79,Trial # 80,layer0-5_T2_to_T8.jpg,layer0-5/layer0-5_T2_to_T8.jpg,TT,layer0-5,0.0,79.0,79.0,79.0,,,,,,,,,967.3535613440908,None,1.0,2.771212216001004,967.3535613440908,None,967.3535613440908,None,967.3535613440908,None,1,2022_Jul_11_1153,Semantic-hierachy,2021.1.2,59.9023854813632,
80,Trial # 81,layer9-17_T3_to_T9.jpg,layer9-17/layer9-17_T3_to_T9.jpg,TT,layer9-17,0.0,80.0,80.0,80.0,,,,,,,,,970.4867463118862,None,3.0,2.751995787955821,970.4867463118862,None,970.4867463118862,None,970.4867463118862,None,1,2022_Jul_11_1153,Semantic-hierachy,2021.1.2,59.9023854813632,
81,Trial # 82,layer9-17_O2_to_O5.jpg,layer9-17/layer9-17_O2_to_O5.jpg,OO,layer9-17,0.0,81.0,81.0,81.0,,,,,,,,,973.5878424390684,None,2.0,2.327364353928715,973.5878424390684,None,973.5878424390684,None,973.5878424390684,None,1,2022_Jul_11_1153,Semantic-hierachy,2021.1.2,59.9023854813632,
82,Trial # 83,layer6-8_O6_to_O7.jpg,layer6-8/layer6-8_O6_to_O7.jpg,OO,layer6-8,0.0,82.0,82.0,82.0,,,,,,,,,976.2056267389562,None,4.0,2.0391469160094857,976.2056267389562,None,976.2056267389562,None,976.2056267389562,None,1,2022_Jul_11_1153,Semantic-hierachy,2021.1.2,59.9023854813632,
83,Trial # 84,layer9-17_O11_to_T1.jpg,layer9-17/layer9-17_O11_to_T1.jpg,OT,layer9-17,0.0,83.0,83.0,83.0,,,,,,,,,978.522667722078,None,2.0,1.671144819818437,978.522667722078,None,978.522667722078,None,978.522667722078,None,1,2022_Jul_11_1153,Semantic-hierachy,2021.1.2,59.9023854813632,
84,Trial # 85,layer6-8_O5_to_T12.jpg,layer6-8/layer6-8_O5_to_T12.jpg,OT,layer6-8,0.0,84.0,84.0,84.0,,,,,,,,,980.507079157047,None,3.0,2.706022903090343,980.507079157047,None,980.507079157047,None,980.507079157047,None,1,2022_Jul_11_1153,Semantic-hierachy,2021.1.2,59.9023854813632,
85,Trial # 86,layer6-8_O4_to_O7.jpg,layer6-8/layer6-8_O4_to_O7.jpg,OO,layer6-8,0.0,85.0,85.0,85.0,,,,,,,,,983.5905949741136,None,4.0,2.4283205901738256,983.5905949741136,None,983.5905949741136,None,983.5905949741136,None,1,2022_Jul_11_1153,Semantic-hierachy,2021.1.2,59.9023854813632,
86,Trial # 87,layer6-8_T10_to_T8.jpg,layer6-8/layer6-8_T10_to_T8.jpg,TT,layer6-8,0.0,86.0,86.0,86.0,,,,,,,,,986.3260833609384,None,3.0,1.7332118980120867,986.3260833609384,None,986.3260833609384,None,986.3260833609384,None,1,2022_Jul_11_1153,Semantic-hierachy,2021.1.2,59.9023854813632,
87,Trial # 88,layer6-8_O10_to_T3.jpg,layer6-8/layer6-8_O10_to_T3.jpg,OT,layer6-8,0.0,87.0,87.0,87.0,,,,,,,,,988.4089752410072,None,3.0,3.7051965869031847,988.4089752410072,None,988.4089752410072,None,988.4089752410072,None,1,2022_Jul_11_1153,Semantic-hierachy,2021.1.2,59.9023854813632,
88,Trial # 89,layer6-8_O5_to_O9.jpg,layer6-8/layer6-8_O5_to_O9.jpg,OO,layer6-8,0.0,88.0,88.0,88.0,,,,,,,,,993.6941123360302,None,4.0,10.32673380500637,993.6941123360302,None,993.6941123360302,None,993.6941123360302,None,1,2022_Jul_11_1153,Semantic-hierachy,2021.1.2,59.9023854813632,
89,Trial # 90,layer6-8_O10_to_O11.jpg,layer6-8/layer6-8_O10_to_O11.jpg,OO,layer6-8,0.0,89.0,89.0,89.0,,,,,,,,,1004.23058751598,None,4.0,3.589540848042816,1004.23058751598,None,1004.23058751598,None,1004.23058751598,None,1,2022_Jul_11_1153,Semantic-hierachy,2021.1.2,59.9023854813632,
90,Trial # 91,layer0-5_O4_to_T5.jpg,layer0-5/layer0-5_O4_to_T5.jpg,OT,layer0-5,0.0,90.0,90.0,90.0,,,,,,,,,1008.0986142249312,None,1.0,2.2645577150397003,1008.0986142249312,None,1008.0986142249312,None,1008.0986142249312,None,1,2022_Jul_11_1153,Semantic-hierachy,2021.1.2,59.9023854813632,
91,Trial # 92,layer0-5_T11_to_T12.jpg,layer0-5/layer0-5_T11_to_T12.jpg,TT,layer0-5,0.0,91.0,91.0,91.0,,,,,,,,,1010.6497416659258,None,1.0,1.396163969067857,1010.6497416659258,None,1010.6497416659258,None,1010.6497416659258,None,1,2022_Jul_11_1153,Semantic-hierachy,2021.1.2,59.9023854813632,
92,Trial # 93,layer0-5_T10_to_T3.jpg,layer0-5/layer0-5_T10_to_T3.jpg,TT,layer0-5,0.0,92.0,92.0,92.0,,,,,,,,,1012.4006112460048,None,1.0,3.391999915940687,1012.4006112460048,None,1012.4006112460048,None,1012.4006112460048,None,1,2022_Jul_11_1153,Semantic-hierachy,2021.1.2,59.9023854813632,
93,Trial # 94,layer0-5_O2_to_O8.jpg,layer0-5/layer0-5_O2_to_O8.jpg,OO,layer0-5,0.0,93.0,93.0,93.0,,,,,,,,,1017.252501162002,None,1.0,1.5102570010349154,1017.252501162002,None,1017.252501162002,None,1017.252501162002,None,1,2022_Jul_11_1153,Semantic-hierachy,2021.1.2,59.9023854813632,
94,Trial # 95,layer0-5_T3_to_T8.jpg,layer0-5/layer0-5_T3_to_T8.jpg,TT,layer0-5,0.0,94.0,94.0,94.0,,,,,,,,,1019.0183608189692,None,1.0,1.420021238969639,1019.0183608189692,None,1019.0183608189692,None,1019.0183608189692,None,1,2022_Jul_11_1153,Semantic-hierachy,2021.1.2,59.9023854813632,
95,Trial # 96,layer0-5_O7_to_O8.jpg,layer0-5/layer0-5_O7_to_O8.jpg,OO,layer0-5,0.0,95.0,95.0,95.0,,,,,,,,,1020.7682942219544,None,1.0,1.1945444999728352,1020.7682942219544,None,1020.7682942219544,None,1020.7682942219544,None,1,2022_Jul_11_1153,Semantic-hierachy,2021.1.2,59.9023854813632,
96,Trial # 97,layer6-8_T10_to_T6.jpg,layer6-8/layer6-8_T10_to_T6.jpg,TT,layer6-8,0.0,96.0,96.0,96.0,,,,,,,,,1022.270879840944,None,2.0,6.706120609072968,1022.270879840944,None,1022.270879840944,None,1022.270879840944,None,1,2022_Jul_11_1153,Semantic-hierachy,2021.1.2,59.9023854813632,
97,Trial # 98,layer0-5_O1_to_O5.jpg,layer0-5/layer0-5_O1_to_O5.jpg,OO,layer0-5,0.0,97.0,97.0,97.0,,,,,,,,,1030.4720447640866,None,1.0,1.8054721949156372,1030.4720447640866,None,1030.4720447640866,None,1030.4720447640866,None,1,2022_Jul_11_1153,Semantic-hierachy,2021.1.2,59.9023854813632,
98,Trial # 99,layer6-8_O1_to_O6.jpg,layer6-8/layer6-8_O1_to_O6.jpg,OO,layer6-8,0.0,98.0,98.0,98.0,,,,,,,,,1032.5905722230673,None,4.0,8.579308038111776,1032.5905722230673,None,1032.5905722230673,None,1032.5905722230673,None,1,2022_Jul_11_1153,Semantic-hierachy,2021.1.2,59.9023854813632,
99,Trial # 100,layer6-8_O3_to_T1.jpg,layer6-8/layer6-8_O3_to_T1.jpg,OT,layer6-8,0.0,99.0,99.0,99.0,,,,,,,,,1041.7934484269936,None,2.0,1.835826924070716,1041.7934484269936,None,1041.7934484269936,None,1041.7934484269936,None,1,2022_Jul_11_1153,Semantic-hierachy,2021.1.2,59.9023854813632,
100,Trial # 101,layer6-8_T1_to_T9.jpg,layer6-8/layer6-8_T1_to_T9.jpg,TT,layer6-8,0.0,100.0,100.0,100.0,,,,,,,,,1043.9094825729262,None,4.0,10.624508657027036,1043.9094825729262,None,1043.9094825729262,None,1043.9094825729262,None,1,2022_Jul_11_1153,Semantic-hierachy,2021.1.2,59.9023854813632,
101,Trial # 102,layer9-17_O12_to_O6.jpg,layer9-17/layer9-17_O12_to_O6.jpg,OO,layer9-17,0.0,101.0,101.0,101.0,,,,,,,,,1054.8295912819449,None,2.0,1.674825927009806,1054.8295912819449,None,1054.8295912819449,None,1054.8295912819449,None,1,2022_Jul_11_1153,Semantic-hierachy,2021.1.2,59.9023854813632,
102,Trial # 103,layer0-5_T4_to_T9.jpg,layer0-5/layer0-5_T4_to_T9.jpg,TT,layer0-5,0.0,102.0,102.0,102.0,,,,,,,,,1056.7646170500666,None,1.0,1.4480421990156174,1056.7646170500666,None,1056.7646170500666,None,1056.7646170500666,None,1,2022_Jul_11_1153,Semantic-hierachy,2021.1.2,59.9023854813632,
103,Trial # 104,layer6-8_O10_to_T1.jpg,layer6-8/layer6-8_O10_to_T1.jpg,OT,layer6-8,0.0,103.0,103.0,103.0,,,,,,,,,1058.4471834099386,None,2.0,5.41851621796377,1058.4471834099386,None,1058.4471834099386,None,1058.4471834099386,None,1,2022_Jul_11_1153,Semantic-hierachy,2021.1.2,59.9023854813632,
104,Trial # 105,layer0-5_O6_to_T2.jpg,layer0-5/layer0-5_O6_to_T2.jpg,OT,layer0-5,0.0,104.0,104.0,104.0,,,,,,,,,1064.2490791189484,None,1.0,1.7755159479565918,1064.2490791189484,None,1064.2490791189484,None,1064.2490791189484,None,1,2022_Jul_11_1153,Semantic-hierachy,2021.1.2,59.9023854813632,
105,Trial # 106,layer9-17_T11_to_T2.jpg,layer9-17/layer9-17_T11_to_T2.jpg,TT,layer9-17,0.0,105.0,105.0,105.0,,,,,,,,,1067.1676896431018,None,2.0,1.5587162349838763,1067.1676896431018,None,1067.1676896431018,None,1067.1676896431018,None,1,2022_Jul_11_1153,Semantic-hierachy,2021.1.2,59.9023854813632,
106,Trial # 107,layer9-17_O12_to_O8.jpg,layer9-17/layer9-17_O12_to_O8.jpg,OO,layer9-17,0.0,106.0,106.0,106.0,,,,,,,,,1068.983813570114,None,2.0,8.091866347938776,1068.983813570114,None,1068.983813570114,None,1068.983813570114,None,1,2022_Jul_11_1153,Semantic-hierachy,2021.1.2,59.9023854813632,
107,Trial # 108,layer0-5_T12_to_T3.jpg,layer0-5/layer0-5_T12_to_T3.jpg,TT,layer0-5,0.0,107.0,107.0,107.0,,,,,,,,,1077.3708448219113,None,1.0,2.7306085280142725,1077.3708448219113,None,1077.3708448219113,None,1077.3708448219113,None,1,2022_Jul_11_1153,Semantic-hierachy,2021.1.2,59.9023854813632,
108,Trial # 109,layer0-5_T1_to_T10.jpg,layer0-5/layer0-5_T1_to_T10.jpg,TT,layer0-5,0.0,108.0,108.0,108.0,,,,,,,,,1081.0221796720289,None,1.0,1.5414024628698826,1081.0221796720289,None,1081.0221796720289,None,1081.0221796720289,None,1,2022_Jul_11_1153,Semantic-hierachy,2021.1.2,59.9023854813632,
109,Trial # 110,layer6-8_O4_to_T5.jpg,layer6-8/layer6-8_O4_to_T5.jpg,OT,layer6-8,0.0,109.0,109.0,109.0,,,,,,,,,1082.8725277979393,None,3.0,2.544600277906284,1082.8725277979393,None,1082.8725277979393,None,1082.8725277979393,None,1,2022_Jul_11_1153,Semantic-hierachy,2021.1.2,59.9023854813632,
110,Trial # 111,layer9-17_O11_to_O7.jpg,layer9-17/layer9-17_O11_to_O7.jpg,OO,layer9-17,0.0,110.0,110.0,110.0,,,,,,,,,1087.4075259559322,None,2.0,1.881893497891724,1087.4075259559322,None,1087.4075259559322,None,1087.4075259559322,None,1,2022_Jul_11_1153,Semantic-hierachy,2021.1.2,59.9023854813632,
111,Trial # 112,layer0-5_O5_to_O8.jpg,layer0-5/layer0-5_O5_to_O8.jpg,OO,layer0-5,0.0,111.0,111.0,111.0,,,,,,,,,1089.5901350989006,None,1.0,1.7449973649345338,1089.5901350989006,None,1089.5901350989006,None,1089.5901350989006,None,1,2022_Jul_11_1153,Semantic-hierachy,2021.1.2,59.9023854813632,
112,Trial # 113,layer0-5_O10_to_O4.jpg,layer0-5/layer0-5_O10_to_O4.jpg,OO,layer0-5,0.0,112.0,112.0,112.0,,,,,,,,,1091.6086637009869,None,1.0,1.5477735998574644,1091.6086637009869,None,1091.6086637009869,None,1091.6086637009869,None,1,2022_Jul_11_1153,Semantic-hierachy,2021.1.2,59.9023854813632,
113,Trial # 114,layer9-17_O4_to_O8.jpg,layer9-17/layer9-17_O4_to_O8.jpg,OO,layer9-17,0.0,113.0,113.0,113.0,,,,,,,,,1093.458584578009,None,4.0,2.4214484421536326,1093.458584578009,None,1093.458584578009,None,1093.458584578009,None,1,2022_Jul_11_1153,Semantic-hierachy,2021.1.2,59.9023854813632,
114,Trial # 115,layer0-5_O2_to_T8.jpg,layer0-5/layer0-5_O2_to_T8.jpg,OT,layer0-5,0.0,114.0,114.0,114.0,,,,,,,,,1096.1767433038913,None,1.0,3.7723804761189967,1096.1767433038913,None,1096.1767433038913,None,1096.1767433038913,None,1,2022_Jul_11_1153,Semantic-hierachy,2021.1.2,59.9023854813632,
115,Trial # 116,layer9-17_T2_to_T3.jpg,layer9-17/layer9-17_T2_to_T3.jpg,TT,layer9-17,0.0,115.0,115.0,115.0,,,,,,,,,1100.376984847011,None,2.0,1.8058510378468784,1100.376984847011,None,1100.376984847011,None,1100.376984847011,None,1,2022_Jul_11_1153,Semantic-hierachy,2021.1.2,59.9023854813632,
116,Trial # 117,layer6-8_O1_to_T10.jpg,layer6-8/layer6-8_O1_to_T10.jpg,OT,layer6-8,0.0,116.0,116.0,116.0,,,,,,,,,1102.56201809505,None,3.0,5.762752635870129,1102.56201809505,None,1102.56201809505,None,1102.56201809505,None,1,2022_Jul_11_1153,Semantic-hierachy,2021.1.2,59.9023854813632,
117,Trial # 118,layer0-5_T3_to_T7.jpg,layer0-5/layer0-5_T3_to_T7.jpg,TT,layer0-5,0.0,117.0,117.0,117.0,,,,,,,,,1108.6301806599367,None,1.0,1.8266290279570967,1108.6301806599367,None,1108.6301806599367,None,1108.6301806599367,None,1,2022_Jul_11_1153,Semantic-hierachy,2021.1.2,59.9023854813632,
118,Trial # 119,layer9-17_O1_to_O12.jpg,layer9-17/layer9-17_O1_to_O12.jpg,OO,layer9-17,0.0,118.0,118.0,118.0,,,,,,,,,1110.7471687570214,None,2.0,2.440521267009899,1110.7471687570214,None,1110.7471687570214,None,1110.7471687570214,None,1,2022_Jul_11_1153,Semantic-hierachy,2021.1.2,59.9023854813632,
119,Trial # 120,layer6-8_O12_to_O2.jpg,layer6-8/layer6-8_O12_to_O2.jpg,OO,layer6-8,0.0,119.0,119.0,119.0,,,,,,,,,1113.4310776900966,None,3.0,2.641063727904111,1113.4310776900966,None,1113.4310776900966,None,1113.4310776900966,None,1,2022_Jul_11_1153,Semantic-hierachy,2021.1.2,59.9023854813632,
120,Trial # 121,layer9-17_O10_to_O9.jpg,layer9-17/layer9-17_O10_to_O9.jpg,OO,layer9-17,0.0,120.0,120.0,120.0,,,,,,,,,1116.332526026992,None,2.0,1.8071600149851288,1116.332526026992,None,1116.332526026992,None,1116.332526026992,None,1,2022_Jul_11_1153,Semantic-hierachy,2021.1.2,59.9023854813632,
121,Trial # 122,layer6-8_O4_to_T10.jpg,layer6-8/layer6-8_O4_to_T10.jpg,OT,layer6-8,0.0,121.0,121.0,121.0,,,,,,,,,1118.432541344082,None,3.0,1.993806374957785,1118.432541344082,None,1118.432541344082,None,1118.432541344082,None,1,2022_Jul_11_1153,Semantic-hierachy,2021.1.2,59.9023854813632,
122,Trial # 123,layer6-8_O2_to_T3.jpg,layer6-8/layer6-8_O2_to_T3.jpg,OT,layer6-8,0.0,122.0,122.0,122.0,,,,,,,,,1120.7329355729744,None,3.0,1.7620373610407114,1120.7329355729744,None,1120.7329355729744,None,1120.7329355729744,None,1,2022_Jul_11_1153,Semantic-hierachy,2021.1.2,59.9023854813632,
123,Trial # 124,layer0-5_O1_to_O7.jpg,layer0-5/layer0-5_O1_to_O7.jpg,OO,layer0-5,0.0,123.0,123.0,123.0,,,,,,,,,1122.835007787915,None,1.0,1.475403516087681,1122.835007787915,None,1122.835007787915,None,1122.835007787915,None,1,2022_Jul_11_1153,Semantic-hierachy,2021.1.2,59.9023854813632,
124,Trial # 125,layer0-5_T8_to_T9.jpg,layer0-5/layer0-5_T8_to_T9.jpg,TT,layer0-5,0.0,124.0,124.0,124.0,,,,,,,,,1124.6179059050046,None,1.0,2.528780036838725,1124.6179059050046,None,1124.6179059050046,None,1124.6179059050046,None,1,2022_Jul_11_1153,Semantic-hierachy,2021.1.2,59.9023854813632,
125,Trial # 126,layer0-5_O12_to_T8.jpg,layer0-5/layer0-5_O12_to_T8.jpg,OT,layer0-5,0.0,125.0,125.0,125.0,,,,,,,,,1127.4362256969323,None,1.0,1.310802737949416,1127.4362256969323,None,1127.4362256969323,None,1127.4362256969323,None,1,2022_Jul_11_1153,Semantic-hierachy,2021.1.2,59.9023854813632,
126,Trial # 127,layer9-17_O4_to_O6.jpg,layer9-17/layer9-17_O4_to_O6.jpg,OO,layer9-17,0.0,126.0,126.0,126.0,,,,,,,,,1129.002257661894,None,3.0,4.6314237110782415,1129.002257661894,None,1129.002257661894,None,1129.002257661894,None,1,2022_Jul_11_1153,Semantic-hierachy,2021.1.2,59.9023854813632,
127,Trial # 128,layer6-8_O12_to_O6.jpg,layer6-8/layer6-8_O12_to_O6.jpg,OO,layer6-8,0.0,127.0,127.0,127.0,,,,,,,,,1133.954497335013,None,3.0,1.9417987300548705,1133.954497335013,None,1133.954497335013,None,1133.954497335013,None,1,2022_Jul_11_1153,Semantic-hierachy,2021.1.2,59.9023854813632,
128,Trial # 129,layer0-5_T4_to_T6.jpg,layer0-5/layer0-5_T4_to_T6.jpg,TT,layer0-5,0.0,128.0,128.0,128.0,,,,,,,,,1136.1889938910026,None,1.0,2.7639309361111373,1136.1889938910026,None,1136.1889938910026,None,1136.1889938910026,None,1,2022_Jul_11_1153,Semantic-hierachy,2021.1.2,59.9023854813632,
129,Trial # 130,layer9-17_O1_to_O3.jpg,layer9-17/layer9-17_O1_to_O3.jpg,OO,layer9-17,0.0,129.0,129.0,129.0,,,,,,,,,1139.188863904914,None,2.0,2.5129022339824587,1139.188863904914,None,1139.188863904914,None,1139.188863904914,None,1,2022_Jul_11_1153,Semantic-hierachy,2021.1.2,59.9023854813632,
130,Trial # 131,layer9-17_O10_to_O3.jpg,layer9-17/layer9-17_O10_to_O3.jpg,OO,layer9-17,0.0,130.0,130.0,130.0,,,,,,,,,1141.9745187959634,None,2.0,1.160893894964829,1141.9745187959634,None,1141.9745187959634,None,1141.9745187959634,None,1,2022_Jul_11_1153,Semantic-hierachy,2021.1.2,59.9023854813632,
131,Trial # 132,layer9-17_O12_to_O3.jpg,layer9-17/layer9-17_O12_to_O3.jpg,OO,layer9-17,0.0,131.0,131.0,131.0,,,,,,,,,1143.423691492062,None,2.0,1.4602357200346887,1143.423691492062,None,1143.423691492062,None,1143.423691492062,None,1,2022_Jul_11_1153,Semantic-hierachy,2021.1.2,59.9023854813632,
132,Trial # 133,layer9-17_O11_to_O4.jpg,layer9-17/layer9-17_O11_to_O4.jpg,OO,layer9-17,0.0,132.0,132.0,132.0,,,,,,,,,1145.190621695947,None,4.0,14.912196528166533,1145.190621695947,None,1145.190621695947,None,1145.190621695947,None,1,2022_Jul_11_1153,Semantic-hierachy,2021.1.2,59.9023854813632,
133,Trial # 134,layer9-17_T4_to_T7.jpg,layer9-17/layer9-17_T4_to_T7.jpg,TT,layer9-17,0.0,133.0,133.0,133.0,,,,,,,,,1160.8121597759891,None,2.0,1.4916125270538032,1160.8121597759891,None,1160.8121597759891,None,1160.8121597759891,None,1,2022_Jul_11_1153,Semantic-hierachy,2021.1.2,59.9023854813632,
134,Trial # 135,layer9-17_O1_to_T1.jpg,layer9-17/layer9-17_O1_to_T1.jpg,OT,layer9-17,0.0,134.0,134.0,134.0,,,,,,,,,1162.564199073007,None,2.0,1.4318902571685612,1162.564199073007,None,1162.564199073007,None,1162.564199073007,None,1,2022_Jul_11_1153,Semantic-hierachy,2021.1.2,59.9023854813632,
135,Trial # 136,layer6-8_T2_to_T5.jpg,layer6-8/layer6-8_T2_to_T5.jpg,TT,layer6-8,0.0,135.0,135.0,135.0,,,,,,,,,1164.280340386089,None,4.0,6.541795928962529,1164.280340386089,None,1164.280340386089,None,1164.280340386089,None,1,2022_Jul_11_1153,Semantic-hierachy,2021.1.2,59.9023854813632,
136,Trial # 137,layer9-17_T11_to_T7.jpg,layer9-17/layer9-17_T11_to_T7.jpg,TT,layer9-17,0.0,136.0,136.0,136.0,,,,,,,,,1171.0658747761045,None,2.0,1.560866012936458,1171.0658747761045,None,1171.0658747761045,None,1171.0658747761045,None,1,2022_Jul_11_1153,Semantic-hierachy,2021.1.2,59.9023854813632,
137,Trial # 138,layer6-8_O3_to_O8.jpg,layer6-8/layer6-8_O3_to_O8.jpg,OO,layer6-8,0.0,137.0,137.0,137.0,,,,,,,,,1172.8493412269745,None,2.0,2.4583186379168183,1172.8493412269745,None,1172.8493412269745,None,1172.8493412269745,None,1,2022_Jul_11_1153,Semantic-hierachy,2021.1.2,59.9023854813632,
138,Trial # 139,layer6-8_O1_to_T7.jpg,layer6-8/layer6-8_O1_to_T7.jpg,OT,layer6-8,0.0,138.0,138.0,138.0,,,,,,,,,1175.650045434013,None,3.0,1.7980799020733684,1175.650045434013,None,1175.650045434013,None,1175.650045434013,None,1,2022_Jul_11_1153,Semantic-hierachy,2021.1.2,59.9023854813632,
139,Trial # 140,layer9-17_T1_to_T3.jpg,layer9-17/layer9-17_T1_to_T3.jpg,TT,layer9-17,0.0,139.0,139.0,139.0,,,,,,,,,1177.7174109669868,None,4.0,2.7953833509236574,1177.7174109669868,None,1177.7174109669868,None,1177.7174109669868,None,1,2022_Jul_11_1153,Semantic-hierachy,2021.1.2,59.9023854813632,
140,Trial # 141,layer6-8_O10_to_O12.jpg,layer6-8/layer6-8_O10_to_O12.jpg,OO,layer6-8,0.0,140.0,140.0,140.0,,,,,,,,,1180.834843881894,None,4.0,6.681749694980681,1180.834843881894,None,1180.834843881894,None,1180.834843881894,None,1,2022_Jul_11_1153,Semantic-hierachy,2021.1.2,59.9023854813632,
141,Trial # 142,layer6-8_O12_to_T11.jpg,layer6-8/layer6-8_O12_to_T11.jpg,OT,layer6-8,0.0,141.0,141.0,141.0,,,,,,,,,1187.9871668580454,None,4.0,17.063417395111173,1187.9871668580454,None,1187.9871668580454,None,1187.9871668580454,None,1,2022_Jul_11_1153,Semantic-hierachy,2021.1.2,59.9023854813632,
142,Trial # 143,layer0-5_O11_to_O5.jpg,layer0-5/layer0-5_O11_to_O5.jpg,OO,layer0-5,0.0,142.0,142.0,142.0,,,,,,,,,1205.47598205111,None,1.0,1.597815576940775,1205.47598205111,None,1205.47598205111,None,1205.47598205111,None,1,2022_Jul_11_1153,Semantic-hierachy,2021.1.2,59.9023854813632,
143,Trial # 144,layer6-8_O1_to_O8.jpg,layer6-8/layer6-8_O1_to_O8.jpg,OO,layer6-8,0.0,143.0,143.0,143.0,,,,,,,,,1207.3777335730847,None,2.0,1.577686466043815,1207.3777335730847,None,1207.3777335730847,None,1207.3777335730847,None,1,2022_Jul_11_1153,Semantic-hierachy,2021.1.2,59.9023854813632,
144,Trial # 145,layer0-5_T2_to_T5.jpg,layer0-5/layer0-5_T2_to_T5.jpg,TT,layer0-5,0.0,144.0,144.0,144.0,,,,,,,,,1209.244036274962,None,1.0,1.9977760561741889,1209.244036274962,None,1209.244036274962,None,1209.244036274962,None,1,2022_Jul_11_1153,Semantic-hierachy,2021.1.2,59.9023854813632,
145,Trial # 146,layer9-17_O8_to_T3.jpg,layer9-17/layer9-17_O8_to_T3.jpg,OT,layer9-17,0.0,145.0,145.0,145.0,,,,,,,,,1211.5293226419017,None,2.0,1.5792606708128003,1211.5293226419017,None,1211.5293226419017,None,1211.5293226419017,None,1,2022_Jul_11_1153,Semantic-hierachy,2021.1.2,59.9023854813632,
146,Trial # 147,layer9-17_O8_to_T4.jpg,layer9-17/layer9-17_O8_to_T4.jpg,OT,layer9-17,0.0,146.0,146.0,146.0,,,,,,,,,1213.412003921112,None,1.0,2.762371395947412,1213.412003921112,None,1213.412003921112,None,1213.412003921112,None,1,2022_Jul_11_1153,Semantic-hierachy,2021.1.2,59.9023854813632,
147,Trial # 148,layer9-17_O4_to_T9.jpg,layer9-17/layer9-17_O4_to_T9.jpg,OT,layer9-17,0.0,147.0,147.0,147.0,,,,,,,,,1216.5307554930914,None,2.0,3.0441870340146124,1216.5307554930914,None,1216.5307554930914,None,1216.5307554930914,None,1,2022_Jul_11_1153,Semantic-hierachy,2021.1.2,59.9023854813632,
148,Trial # 149,layer6-8_O4_to_O8.jpg,layer6-8/layer6-8_O4_to_O8.jpg,OO,layer6-8,0.0,148.0,148.0,148.0,,,,,,,,,1220.1643712238874,None,4.0,12.199488766957074,1220.1643712238874,None,1220.1643712238874,None,1220.1643712238874,None,1,2022_Jul_11_1153,Semantic-hierachy,2021.1.2,59.9023854813632,
149,Trial # 150,layer0-5_O12_to_T7.jpg,layer0-5/layer0-5_O12_to_T7.jpg,OT,layer0-5,0.0,149.0,149.0,149.0,,,,,,,,,1232.7859003469348,None,1.0,2.6281618161592637,1232.7859003469348,None,1232.7859003469348,None,1232.7859003469348,None,1,2022_Jul_11_1153,Semantic-hierachy,2021.1.2,59.9023854813632,
150,Trial # 151,layer6-8_T1_to_T3.jpg,layer6-8/layer6-8_T1_to_T3.jpg,TT,layer6-8,,,,,0.0,0.0,0.0,0.0,,,,,1238.152713083895,None,3.0,6.804223282961175,1238.152713083895,None,1238.152713083895,None,1238.152713083895,None,1,2022_Jul_11_1153,Semantic-hierachy,2021.1.2,59.9023854813632,
151,Trial # 152,layer0-5_O8_to_O9.jpg,layer0-5/layer0-5_O8_to_O9.jpg,OO,layer0-5,,,,,0.0,1.0,1.0,1.0,,,,,1248.7892488450743,None,1.0,1.8734798941295596,1248.7892488450743,None,1248.7892488450743,None,1248.7892488450743,None,1,2022_Jul_11_1153,Semantic-hierachy,2021.1.2,59.9023854813632,
152,Trial # 153,layer9-17_T1_to_T5.jpg,layer9-17/layer9-17_T1_to_T5.jpg,TT,layer9-17,,,,,0.0,2.0,2.0,2.0,,,,,1250.991510285996,None,2.0,1.6134331710636616,1250.991510285996,None,1250.991510285996,None,1250.991510285996,None,1,2022_Jul_11_1153,Semantic-hierachy,2021.1.2,59.9023854813632,
153,Trial # 154,layer6-8_T7_to_T9.jpg,layer6-8/layer6-8_T7_to_T9.jpg,TT,layer6-8,,,,,0.0,3.0,3.0,3.0,,,,,1252.907643785933,None,3.0,2.815051725134253,1252.907643785933,None,1252.907643785933,None,1252.907643785933,None,1,2022_Jul_11_1153,Semantic-hierachy,2021.1.2,59.9023854813632,
154,Trial # 155,layer9-17_T12_to_T7.jpg,layer9-17/layer9-17_T12_to_T7.jpg,TT,layer9-17,,,,,0.0,4.0,4.0,4.0,,,,,1256.0930717471056,None,2.0,3.608075821073726,1256.0930717471056,None,1256.0930717471056,None,1256.0930717471056,None,1,2022_Jul_11_1153,Semantic-hierachy,2021.1.2,59.9023854813632,
155,Trial # 156,layer0-5_O8_to_T11.jpg,layer0-5/layer0-5_O8_to_T11.jpg,OT,layer0-5,,,,,0.0,5.0,5.0,5.0,,,,,1259.9928839120548,None,1.0,1.294978132005781,1259.9928839120548,None,1259.9928839120548,None,1259.9928839120548,None,1,2022_Jul_11_1153,Semantic-hierachy,2021.1.2,59.9023854813632,
156,Trial # 157,layer0-5_O1_to_O9.jpg,layer0-5/layer0-5_O1_to_O9.jpg,OO,layer0-5,,,,,0.0,6.0,6.0,6.0,,,,,1261.5776449150871,None,1.0,3.4244473970029503,1261.5776449150871,None,1261.5776449150871,None,1261.5776449150871,None,1,2022_Jul_11_1153,Semantic-hierachy,2021.1.2,59.9023854813632,
157,Trial # 158,layer0-5_O10_to_O12.jpg,layer0-5/layer0-5_O10_to_O12.jpg,OO,layer0-5,,,,,0.0,7.0,7.0,7.0,,,,,1265.2611427661031,None,1.0,3.729299867060036,1265.2611427661031,None,1265.2611427661031,None,1265.2611427661031,None,1,2022_Jul_11_1153,Semantic-hierachy,2021.1.2,59.9023854813632,
158,Trial # 159,layer6-8_O10_to_T5.jpg,layer6-8/layer6-8_O10_to_T5.jpg,OT,layer6-8,,,,,0.0,8.0,8.0,8.0,,,,,1269.4124009830412,None,3.0,1.9932406528387216,1269.4124009830412,None,1269.4124009830412,None,1269.4124009830412,None,1,2022_Jul_11_1153,Semantic-hierachy,2021.1.2,59.9023854813632,
159,Trial # 160,layer6-8_O5_to_O6.jpg,layer6-8/layer6-8_O5_to_O6.jpg,OO,layer6-8,,,,,0.0,9.0,9.0,9.0,,,,,1271.6977096409537,None,2.0,1.8770424900576472,1271.6977096409537,None,1271.6977096409537,None,1271.6977096409537,None,1,2022_Jul_11_1153,Semantic-hierachy,2021.1.2,59.9023854813632,
160,Trial # 161,layer6-8_O6_to_T11.jpg,layer6-8/layer6-8_O6_to_T11.jpg,OT,layer6-8,,,,,0.0,10.0,10.0,10.0,,,,,1273.847181045916,None,2.0,1.2945354119874537,1273.847181045916,None,1273.847181045916,None,1273.847181045916,None,1,2022_Jul_11_1153,Semantic-hierachy,2021.1.2,59.9023854813632,
161,Trial # 162,layer9-17_O12_to_O9.jpg,layer9-17/layer9-17_O12_to_O9.jpg,OO,layer9-17,,,,,0.0,11.0,11.0,11.0,,,,,1275.447600285057,None,2.0,4.631167236017063,1275.447600285057,None,1275.447600285057,None,1275.447600285057,None,1,2022_Jul_11_1153,Semantic-hierachy,2021.1.2,59.9023854813632,
162,Trial # 163,layer6-8_O12_to_T6.jpg,layer6-8/layer6-8_O12_to_T6.jpg,OT,layer6-8,,,,,0.0,12.0,12.0,12.0,,,,,1280.399364307057,None,4.0,6.943441695068032,1280.399364307057,None,1280.399364307057,None,1280.399364307057,None,1,2022_Jul_11_1153,Semantic-hierachy,2021.1.2,59.9023854813632,
163,Trial # 164,layer0-5_T11_to_T7.jpg,layer0-5/layer0-5_T11_to_T7.jpg,TT,layer0-5,,,,,0.0,13.0,13.0,13.0,,,,,1287.6357701721136,None,1.0,1.9777228778693825,1287.6357701721136,None,1287.6357701721136,None,1287.6357701721136,None,1,2022_Jul_11_1153,Semantic-hierachy,2021.1.2,59.9023854813632,
164,Trial # 165,layer9-17_O10_to_T5.jpg,layer9-17/layer9-17_O10_to_T5.jpg,OT,layer9-17,,,,,0.0,14.0,14.0,14.0,,,,,1289.9186558290385,None,4.0,7.841893197968602,1289.9186558290385,None,1289.9186558290385,None,1289.9186558290385,None,1,2022_Jul_11_1153,Semantic-hierachy,2021.1.2,59.9023854813632,
165,Trial # 166,layer9-17_T1_to_T6.jpg,layer9-17/layer9-17_T1_to_T6.jpg,TT,layer9-17,,,,,0.0,15.0,15.0,15.0,,,,,1298.1548583400436,None,2.0,1.5943132499232888,1298.1548583400436,None,1298.1548583400436,None,1298.1548583400436,None,1,2022_Jul_11_1153,Semantic-hierachy,2021.1.2,59.9023854813632,
166,Trial # 167,layer0-5_T1_to_T3.jpg,layer0-5/layer0-5_T1_to_T3.jpg,TT,layer0-5,,,,,0.0,16.0,16.0,16.0,,,,,1300.0724732449744,None,1.0,1.5782770039513707,1300.0724732449744,None,1300.0724732449744,None,1300.0724732449744,None,1,2022_Jul_11_1153,Semantic-hierachy,2021.1.2,59.9023854813632,
167,Trial # 168,layer0-5_O2_to_O9.jpg,layer0-5/layer0-5_O2_to_O9.jpg,OO,layer0-5,,,,,0.0,17.0,17.0,17.0,,,,,1301.940092938952,None,1.0,4.757974381092936,1301.940092938952,None,1301.940092938952,None,1301.940092938952,None,1,2022_Jul_11_1153,Semantic-hierachy,2021.1.2,59.9023854813632,
168,Trial # 169,layer9-17_O3_to_T4.jpg,layer9-17/layer9-17_O3_to_T4.jpg,OT,layer9-17,,,,,0.0,18.0,18.0,18.0,,,,,1306.942021880066,None,2.0,1.332196098053828,1306.942021880066,None,1306.942021880066,None,1306.942021880066,None,1,2022_Jul_11_1153,Semantic-hierachy,2021.1.2,59.9023854813632,
169,Trial # 170,layer6-8_O11_to_O9.jpg,layer6-8/layer6-8_O11_to_O9.jpg,OO,layer6-8,,,,,0.0,19.0,19.0,19.0,,,,,1308.674602694111,None,2.0,2.1566309339832515,1308.674602694111,None,1308.674602694111,None,1308.674602694111,None,1,2022_Jul_11_1153,Semantic-hierachy,2021.1.2,59.9023854813632,
170,Trial # 171,layer9-17_O1_to_O7.jpg,layer9-17/layer9-17_O1_to_O7.jpg,OO,layer9-17,,,,,0.0,20.0,20.0,20.0,,,,,1311.3434080500156,None,4.0,4.01522335386835,1311.3434080500156,None,1311.3434080500156,None,1311.3434080500156,None,1,2022_Jul_11_1153,Semantic-hierachy,2021.1.2,59.9023854813632,
171,Trial # 172,layer0-5_T12_to_T4.jpg,layer0-5/layer0-5_T12_to_T4.jpg,TT,layer0-5,,,,,0.0,21.0,21.0,21.0,,,,,1315.6598029979505,None,1.0,2.182500635040924,1315.6598029979505,None,1315.6598029979505,None,1315.6598029979505,None,1,2022_Jul_11_1153,Semantic-hierachy,2021.1.2,59.9023854813632,
172,Trial # 173,layer0-5_O4_to_T4.jpg,layer0-5/layer0-5_O4_to_T4.jpg,OT,layer0-5,,,,,0.0,22.0,22.0,22.0,,,,,1318.1280725810211,None,1.0,1.7949117340613157,1318.1280725810211,None,1318.1280725810211,None,1318.1280725810211,None,1,2022_Jul_11_1153,Semantic-hierachy,2021.1.2,59.9023854813632,
173,Trial # 174,layer6-8_T12_to_T5.jpg,layer6-8/layer6-8_T12_to_T5.jpg,TT,layer6-8,,,,,0.0,23.0,23.0,23.0,,,,,1320.1782993180675,None,3.0,9.157827527960762,1320.1782993180675,None,1320.1782993180675,None,1320.1782993180675,None,1,2022_Jul_11_1153,Semantic-hierachy,2021.1.2,59.9023854813632,
174,Trial # 175,layer6-8_O11_to_T1.jpg,layer6-8/layer6-8_O11_to_T1.jpg,OT,layer6-8,,,,,0.0,24.0,24.0,24.0,,,,,1339.9012079320382,None,4.0,7.337440077913925,1339.9012079320382,None,1339.9012079320382,None,1339.9012079320382,None,1,2022_Jul_11_1153,Semantic-hierachy,2021.1.2,59.9023854813632,
175,Trial # 176,layer0-5_O7_to_T8.jpg,layer0-5/layer0-5_O7_to_T8.jpg,OT,layer0-5,,,,,0.0,25.0,25.0,25.0,,,,,1347.5037333848886,None,1.0,1.7997169950976968,1347.5037333848886,None,1347.5037333848886,None,1347.5037333848886,None,1,2022_Jul_11_1153,Semantic-hierachy,2021.1.2,59.9023854813632,
176,Trial # 177,layer0-5_O11_to_T5.jpg,layer0-5/layer0-5_O11_to_T5.jpg,OT,layer0-5,,,,,0.0,26.0,26.0,26.0,,,,,1349.6872191259172,None,1.0,1.6201345911249518,1349.6872191259172,None,1349.6872191259172,None,1349.6872191259172,None,1,2022_Jul_11_1153,Semantic-hierachy,2021.1.2,59.9023854813632,
177,Trial # 178,layer9-17_O2_to_T2.jpg,layer9-17/layer9-17_O2_to_T2.jpg,OT,layer9-17,,,,,0.0,27.0,27.0,27.0,,,,,1351.6383522630204,None,4.0,2.463837953051552,1351.6383522630204,None,1351.6383522630204,None,1351.6383522630204,None,1,2022_Jul_11_1153,Semantic-hierachy,2021.1.2,59.9023854813632,
178,Trial # 179,layer0-5_O4_to_T9.jpg,layer0-5/layer0-5_O4_to_T9.jpg,OT,layer0-5,,,,,0.0,28.0,28.0,28.0,,,,,1355.0224164288957,None,1.0,1.8142456349451093,1355.0224164288957,None,1355.0224164288957,None,1355.0224164288957,None,1,2022_Jul_11_1153,Semantic-hierachy,2021.1.2,59.9023854813632,
179,Trial # 180,layer9-17_T6_to_T8.jpg,layer9-17/layer9-17_T6_to_T8.jpg,TT,layer9-17,,,,,0.0,29.0,29.0,29.0,,,,,1357.1239732990507,None,2.0,1.5476929841097444,1357.1239732990507,None,1357.1239732990507,None,1357.1239732990507,None,1,2022_Jul_11_1153,Semantic-hierachy,2021.1.2,59.9023854813632,
180,Trial # 181,layer9-17_O12_to_O5.jpg,layer9-17/layer9-17_O12_to_O5.jpg,OO,layer9-17,,,,,0.0,30.0,30.0,30.0,,,,,1358.9239826689009,None,2.0,1.3107235960196704,1358.9239826689009,None,1358.9239826689009,None,1358.9239826689009,None,1,2022_Jul_11_1153,Semantic-hierachy,2021.1.2,59.9023854813632,
181,Trial # 182,layer6-8_O1_to_O7.jpg,layer6-8/layer6-8_O1_to_O7.jpg,OO,layer6-8,,,,,0.0,31.0,31.0,31.0,,,,,1360.556754508987,None,4.0,1.828740481985733,1360.556754508987,None,1360.556754508987,None,1360.556754508987,None,1,2022_Jul_11_1153,Semantic-hierachy,2021.1.2,59.9023854813632,
182,Trial # 183,layer6-8_O3_to_T10.jpg,layer6-8/layer6-8_O3_to_T10.jpg,OT,layer6-8,,,,,0.0,32.0,32.0,32.0,,,,,1362.6592646890786,None,2.0,1.6605657800100744,1362.6592646890786,None,1362.6592646890786,None,1362.6592646890786,None,1,2022_Jul_11_1153,Semantic-hierachy,2021.1.2,59.9023854813632,
183,Trial # 184,layer0-5_O1_to_T11.jpg,layer0-5/layer0-5_O1_to_T11.jpg,OT,layer0-5,,,,,0.0,33.0,33.0,33.0,,,,,1364.6417778669856,None,1.0,2.19328106706962,1364.6417778669856,None,1364.6417778669856,None,1364.6417778669856,None,1,2022_Jul_11_1153,Semantic-hierachy,2021.1.2,59.9023854813632,
184,Trial # 185,layer6-8_O8_to_O9.jpg,layer6-8/layer6-8_O8_to_O9.jpg,OO,layer6-8,,,,,0.0,34.0,34.0,34.0,,,,,1367.2438217960298,None,2.0,1.5840056140441447,1367.2438217960298,None,1367.2438217960298,None,1367.2438217960298,None,1,2022_Jul_11_1153,Semantic-hierachy,2021.1.2,59.9023854813632,
185,Trial # 186,layer9-17_O4_to_O9.jpg,layer9-17/layer9-17_O4_to_O9.jpg,OO,layer9-17,,,,,0.0,35.0,35.0,35.0,,,,,1369.0766595739406,None,4.0,2.0913576809689403,1369.0766595739406,None,1369.0766595739406,None,1369.0766595739406,None,1,2022_Jul_11_1153,Semantic-hierachy,2021.1.2,59.9023854813632,
186,Trial # 187,layer0-5_O12_to_O5.jpg,layer0-5/layer0-5_O12_to_O5.jpg,OO,layer0-5,,,,,0.0,36.0,36.0,36.0,,,,,1371.4619332069997,None,1.0,1.57708336901851,1371.4619332069997,None,1371.4619332069997,None,1371.4619332069997,None,1,2022_Jul_11_1153,Semantic-hierachy,2021.1.2,59.9023854813632,
187,Trial # 188,layer6-8_T12_to_T4.jpg,layer6-8/layer6-8_T12_to_T4.jpg,TT,layer6-8,,,,,0.0,37.0,37.0,37.0,,,,,1373.3948893439956,None,3.0,5.138652950990945,1373.3948893439956,None,1373.3948893439956,None,1373.3948893439956,None,1,2022_Jul_11_1153,Semantic-hierachy,2021.1.2,59.9023854813632,
188,Trial # 189,layer0-5_T6_to_T8.jpg,layer0-5/layer0-5_T6_to_T8.jpg,TT,layer0-5,,,,,0.0,38.0,38.0,38.0,,,,,1378.8295930658933,None,1.0,1.6001261719502509,1378.8295930658933,None,1378.8295930658933,None,1378.8295930658933,None,1,2022_Jul_11_1153,Semantic-hierachy,2021.1.2,59.9023854813632,
189,Trial # 190,layer6-8_O11_to_T2.jpg,layer6-8/layer6-8_O11_to_T2.jpg,OT,layer6-8,,,,,0.0,39.0,39.0,39.0,,,,,1380.69700669311,None,2.0,2.471574671100825,1380.69700669311,None,1380.69700669311,None,1380.69700669311,None,1,2022_Jul_11_1153,Semantic-hierachy,2021.1.2,59.9023854813632,
190,Trial # 191,layer6-8_O1_to_O3.jpg,layer6-8/layer6-8_O1_to_O3.jpg,OO,layer6-8,,,,,0.0,40.0,40.0,40.0,,,,,1387.848990072962,None,4.0,3.643450231058523,1387.848990072962,None,1387.848990072962,None,1387.848990072962,None,1,2022_Jul_11_1153,Semantic-hierachy,2021.1.2,59.9023854813632,
191,Trial # 192,layer0-5_O7_to_T1.jpg,layer0-5/layer0-5_O7_to_T1.jpg,OT,layer0-5,,,,,0.0,41.0,41.0,41.0,,,,,1391.717508584028,None,1.0,1.9744407280813905,1391.717508584028,None,1391.717508584028,None,1391.717508584028,None,1,2022_Jul_11_1153,Semantic-hierachy,2021.1.2,59.9023854813632,
192,Trial # 193,layer6-8_O3_to_T7.jpg,layer6-8/layer6-8_O3_to_T7.jpg,OT,layer6-8,,,,,0.0,42.0,42.0,42.0,,,,,1394.0016314620152,None,2.0,1.4100689277984202,1394.0016314620152,None,1394.0016314620152,None,1394.0016314620152,None,1,2022_Jul_11_1153,Semantic-hierachy,2021.1.2,59.9023854813632,
193,Trial # 194,layer9-17_T10_to_T6.jpg,layer9-17/layer9-17_T10_to_T6.jpg,TT,layer9-17,,,,,0.0,43.0,43.0,43.0,,,,,1395.7683021530977,None,2.0,2.7189183230511844,1395.7683021530977,None,1395.7683021530977,None,1395.7683021530977,None,1,2022_Jul_11_1153,Semantic-hierachy,2021.1.2,59.9023854813632,
194,Trial # 195,layer6-8_T2_to_T9.jpg,layer6-8/layer6-8_T2_to_T9.jpg,TT,layer6-8,,,,,0.0,44.0,44.0,44.0,,,,,1398.7692520311102,None,4.0,5.33506424096413,1398.7692520311102,None,1398.7692520311102,None,1398.7692520311102,None,1,2022_Jul_11_1153,Semantic-hierachy,2021.1.2,59.9023854813632,
195,Trial # 196,layer0-5_O3_to_T3.jpg,layer0-5/layer0-5_O3_to_T3.jpg,OT,layer0-5,,,,,0.0,45.0,45.0,45.0,,,,,1404.3542642099785,None,1.0,1.6141203199513257,1404.3542642099785,None,1404.3542642099785,None,1404.3542642099785,None,1,2022_Jul_11_1153,Semantic-hierachy,2021.1.2,59.9023854813632,
196,Trial # 197,layer9-17_O1_to_O2.jpg,layer9-17/layer9-17_O1_to_O2.jpg,OO,layer9-17,,,,,0.0,46.0,46.0,46.0,,,,,1406.1557986768894,None,4.0,2.249141601845622,1406.1557986768894,None,1406.1557986768894,None,1406.1557986768894,None,1,2022_Jul_11_1153,Semantic-hierachy,2021.1.2,59.9023854813632,
197,Trial # 198,layer9-17_T2_to_T9.jpg,layer9-17/layer9-17_T2_to_T9.jpg,TT,layer9-17,,,,,0.0,47.0,47.0,47.0,,,,,1408.638944236096,None,2.0,1.7276773010380566,1408.638944236096,None,1408.638944236096,None,1408.638944236096,None,1,2022_Jul_11_1153,Semantic-hierachy,2021.1.2,59.9023854813632,
198,Trial # 199,layer9-17_O6_to_T10.jpg,layer9-17/layer9-17_O6_to_T10.jpg,OT,layer9-17,,,,,0.0,48.0,48.0,48.0,,,,,1410.7556228910107,None,2.0,1.480953981168568,1410.7556228910107,None,1410.7556228910107,None,1410.7556228910107,None,1,2022_Jul_11_1153,Semantic-hierachy,2021.1.2,59.9023854813632,
199,Trial # 200,layer0-5_T12_to_T5.jpg,layer0-5/layer0-5_T12_to_T5.jpg,TT,layer0-5,,,,,0.0,49.0,49.0,49.0,,,,,1412.5245186691172,None,1.0,1.9446016389410945,1412.5245186691172,None,1412.5245186691172,None,1412.5245186691172,None,1,2022_Jul_11_1153,Semantic-hierachy,2021.1.2,59.9023854813632,
200,Trial # 201,layer0-5_O10_to_T10.jpg,layer0-5/layer0-5_O10_to_T10.jpg,OT,layer0-5,,,,,0.0,50.0,50.0,50.0,,,,,1414.806963293115,None,1.0,2.97630895790644,1414.806963293115,None,1414.806963293115,None,1414.806963293115,None,1,2022_Jul_11_1153,Semantic-hierachy,2021.1.2,59.9023854813632,
201,Trial # 202,layer9-17_T11_to_T12.jpg,layer9-17/layer9-17_T11_to_T12.jpg,TT,layer9-17,,,,,0.0,51.0,51.0,51.0,,,,,1418.0918141570874,None,2.0,1.5105956147890538,1418.0918141570874,None,1418.0918141570874,None,1418.0918141570874,None,1,2022_Jul_11_1153,Semantic-hierachy,2021.1.2,59.9023854813632,
202,Trial # 203,layer6-8_T3_to_T5.jpg,layer6-8/layer6-8_T3_to_T5.jpg,TT,layer6-8,,,,,0.0,52.0,52.0,52.0,,,,,1419.8761437810026,None,3.0,3.1108966949395835,1419.8761437810026,None,1419.8761437810026,None,1419.8761437810026,None,1,2022_Jul_11_1153,Semantic-hierachy,2021.1.2,59.9023854813632,
203,Trial # 204,layer0-5_O5_to_T10.jpg,layer0-5/layer0-5_O5_to_T10.jpg,OT,layer0-5,,,,,0.0,53.0,53.0,53.0,,,,,1423.4101727500092,None,1.0,4.480415258090943,1423.4101727500092,None,1423.4101727500092,None,1423.4101727500092,None,1,2022_Jul_11_1153,Semantic-hierachy,2021.1.2,59.9023854813632,
204,Trial # 205,layer0-5_O10_to_O5.jpg,layer0-5/layer0-5_O10_to_O5.jpg,OO,layer0-5,,,,,0.0,54.0,54.0,54.0,,,,,1428.211794326082,None,1.0,2.1254348000511527,1428.211794326082,None,1428.211794326082,None,1428.211794326082,None,1,2022_Jul_11_1153,Semantic-hierachy,2021.1.2,59.9023854813632,
205,Trial # 206,layer0-5_O5_to_O7.jpg,layer0-5/layer0-5_O5_to_O7.jpg,OO,layer0-5,,,,,0.0,55.0,55.0,55.0,,,,,1430.5957346239593,None,1.0,1.4135636549908668,1430.5957346239593,None,1430.5957346239593,None,1430.5957346239593,None,1,2022_Jul_11_1153,Semantic-hierachy,2021.1.2,59.9023854813632,
206,Trial # 207,layer0-5_O3_to_T10.jpg,layer0-5/layer0-5_O3_to_T10.jpg,OT,layer0-5,,,,,0.0,56.0,56.0,56.0,,,,,1432.3140224169474,None,1.0,1.5443434570915997,1432.3140224169474,None,1432.3140224169474,None,1432.3140224169474,None,1,2022_Jul_11_1153,Semantic-hierachy,2021.1.2,59.9023854813632,
207,Trial # 208,layer0-5_O4_to_O5.jpg,layer0-5/layer0-5_O4_to_O5.jpg,OO,layer0-5,,,,,0.0,57.0,57.0,57.0,,,,,1434.163482164964,None,1.0,1.5427469699643552,1434.163482164964,None,1434.163482164964,None,1434.163482164964,None,1,2022_Jul_11_1153,Semantic-hierachy,2021.1.2,59.9023854813632,
208,Trial # 209,layer6-8_T12_to_T3.jpg,layer6-8/layer6-8_T12_to_T3.jpg,TT,layer6-8,,,,,0.0,58.0,58.0,58.0,,,,,1435.9805974550543,None,3.0,4.223977464949712,1435.9805974550543,None,1435.9805974550543,None,1435.9805974550543,None,1,2022_Jul_11_1153,Semantic-hierachy,2021.1.2,59.9023854813632,
209,Trial # 210,layer6-8_O7_to_T9.jpg,layer6-8/layer6-8_O7_to_T9.jpg,OT,layer6-8,,,,,0.0,59.0,59.0,59.0,,,,,1440.4821148130577,None,3.0,7.626350313890725,1440.4821148130577,None,1440.4821148130577,None,1440.4821148130577,None,1,2022_Jul_11_1153,Semantic-hierachy,2021.1.2,59.9023854813632,
210,Trial # 211,layer6-8_O1_to_O11.jpg,layer6-8/layer6-8_O1_to_O11.jpg,OO,layer6-8,,,,,0.0,60.0,60.0,60.0,,,,,1448.5509516489692,None,2.0,2.5764880280476063,1448.5509516489692,None,1448.5509516489692,None,1448.5509516489692,None,1,2022_Jul_11_1153,Semantic-hierachy,2021.1.2,59.9023854813632,
211,Trial # 212,layer6-8_T2_to_T6.jpg,layer6-8/layer6-8_T2_to_T6.jpg,TT,layer6-8,,,,,0.0,61.0,61.0,61.0,,,,,1451.4033171359915,None,4.0,6.18583954195492,1451.4033171359915,None,1451.4033171359915,None,1451.4033171359915,None,1,2022_Jul_11_1153,Semantic-hierachy,2021.1.2,59.9023854813632,
212,Trial # 213,layer6-8_O10_to_O6.jpg,layer6-8/layer6-8_O10_to_O6.jpg,OO,layer6-8,,,,,0.0,62.0,62.0,62.0,,,,,1459.5048039399553,None,2.0,1.6381418330129236,1459.5048039399553,None,1459.5048039399553,None,1459.5048039399553,None,1,2022_Jul_11_1153,Semantic-hierachy,2021.1.2,59.9023854813632,
213,Trial # 214,layer9-17_T5_to_T8.jpg,layer9-17/layer9-17_T5_to_T8.jpg,TT,layer9-17,,,,,0.0,63.0,63.0,63.0,,,,,1461.4390410699416,None,2.0,1.384117007954046,1461.4390410699416,None,1461.4390410699416,None,1461.4390410699416,None,1,2022_Jul_11_1153,Semantic-hierachy,2021.1.2,59.9023854813632,
214,Trial # 215,layer9-17_O3_to_T10.jpg,layer9-17/layer9-17_O3_to_T10.jpg,OT,layer9-17,,,,,0.0,64.0,64.0,64.0,,,,,1463.1066005961038,None,2.0,1.7789506670087576,1463.1066005961038,None,1463.1066005961038,None,1463.1066005961038,None,1,2022_Jul_11_1153,Semantic-hierachy,2021.1.2,59.9023854813632,
215,Trial # 216,layer6-8_O12_to_O3.jpg,layer6-8/layer6-8_O12_to_O3.jpg,OO,layer6-8,,,,,0.0,65.0,65.0,65.0,,,,,1465.1395166169386,None,4.0,7.003461593994871,1465.1395166169386,None,1465.1395166169386,None,1465.1395166169386,None,1,2022_Jul_11_1153,Semantic-hierachy,2021.1.2,59.9023854813632,
216,Trial # 217,layer0-5_T10_to_T2.jpg,layer0-5/layer0-5_T10_to_T2.jpg,TT,layer0-5,,,,,0.0,66.0,66.0,66.0,,,,,1472.4598125540651,None,1.0,4.175512532005087,1472.4598125540651,None,1472.4598125540651,None,1472.4598125540651,None,1,2022_Jul_11_1153,Semantic-hierachy,2021.1.2,59.9023854813632,
217,Trial # 218,layer9-17_O10_to_O6.jpg,layer9-17/layer9-17_O10_to_O6.jpg,OO,layer9-17,,,,,0.0,67.0,67.0,67.0,,,,,1476.8602325520478,None,3.0,2.4927681270055477,1476.8602325520478,None,1476.8602325520478,None,1476.8602325520478,None,1,2022_Jul_11_1153,Semantic-hierachy,2021.1.2,59.9023854813632,
218,Trial # 219,layer6-8_O6_to_O9.jpg,layer6-8/layer6-8_O6_to_O9.jpg,OO,layer6-8,,,,,0.0,68.0,68.0,68.0,,,,,1483.011993252905,None,3.0,2.0481035551056266,1483.011993252905,None,1483.011993252905,None,1483.011993252905,None,1,2022_Jul_11_1153,Semantic-hierachy,2021.1.2,59.9023854813632,
219,Trial # 220,layer0-5_O7_to_T2.jpg,layer0-5/layer0-5_O7_to_T2.jpg,OT,layer0-5,,,,,0.0,69.0,69.0,69.0,,,,,1485.4456220848951,None,1.0,1.7233513959217817,1485.4456220848951,None,1485.4456220848951,None,1485.4456220848951,None,1,2022_Jul_11_1153,Semantic-hierachy,2021.1.2,59.9023854813632,
220,Trial # 221,layer9-17_T12_to_T2.jpg,layer9-17/layer9-17_T12_to_T2.jpg,TT,layer9-17,,,,,0.0,70.0,70.0,70.0,,,,,1487.4809030909091,None,3.0,4.9477584240958095,1487.4809030909091,None,1487.4809030909091,None,1487.4809030909091,None,1,2022_Jul_11_1153,Semantic-hierachy,2021.1.2,59.9023854813632,
221,Trial # 222,layer9-17_O8_to_T11.jpg,layer9-17/layer9-17_O8_to_T11.jpg,OT,layer9-17,,,,,0.0,71.0,71.0,71.0,,,,,1492.749407446012,None,4.0,3.441868049092591,1492.749407446012,None,1492.749407446012,None,1492.749407446012,None,1,2022_Jul_11_1153,Semantic-hierachy,2021.1.2,59.9023854813632,
222,Trial # 223,layer6-8_O3_to_T9.jpg,layer6-8/layer6-8_O3_to_T9.jpg,OT,layer6-8,,,,,0.0,72.0,72.0,72.0,,,,,1496.5003451970406,None,2.0,1.9199822009541092,1496.5003451970406,None,1496.5003451970406,None,1496.5003451970406,None,1,2022_Jul_11_1153,Semantic-hierachy,2021.1.2,59.9023854813632,
223,Trial # 224,layer0-5_O6_to_O9.jpg,layer0-5/layer0-5_O6_to_O9.jpg,OO,layer0-5,,,,,0.0,73.0,73.0,73.0,,,,,1498.6832975379657,None,1.0,1.8303489440586416,1498.6832975379657,None,1498.6832975379657,None,1498.6832975379657,None,1,2022_Jul_11_1153,Semantic-hierachy,2021.1.2,59.9023854813632,
224,Trial # 225,layer0-5_O12_to_T1.jpg,layer0-5/layer0-5_O12_to_T1.jpg,OT,layer0-5,,,,,0.0,74.0,74.0,74.0,,,,,1500.7844014239963,None,1.0,3.83645197795704,1500.7844014239963,None,1500.7844014239963,None,1500.7844014239963,None,1,2022_Jul_11_1153,Semantic-hierachy,2021.1.2,59.9023854813632,
225,Trial # 226,layer9-17_O2_to_T8.jpg,layer9-17/layer9-17_O2_to_T8.jpg,OT,layer9-17,,,,,0.0,75.0,75.0,75.0,,,,,1504.935318101896,None,2.0,2.274889440042898,1504.935318101896,None,1504.935318101896,None,1504.935318101896,None,1,2022_Jul_11_1153,Semantic-hierachy,2021.1.2,59.9023854813632,
226,Trial # 227,layer0-5_T4_to_T8.jpg,layer0-5/layer0-5_T4_to_T8.jpg,TT,layer0-5,,,,,0.0,76.0,76.0,76.0,,,,,1507.420471601887,None,1.0,1.890509185846895,1507.420471601887,None,1507.420471601887,None,1507.420471601887,None,1,2022_Jul_11_1153,Semantic-hierachy,2021.1.2,59.9023854813632,
227,Trial # 228,layer9-17_O2_to_T1.jpg,layer9-17/layer9-17_O2_to_T1.jpg,OT,layer9-17,,,,,0.0,77.0,77.0,77.0,,,,,1509.536665834952,None,2.0,1.9233413920737803,1509.536665834952,None,1509.536665834952,None,1509.536665834952,None,1,2022_Jul_11_1153,Semantic-hierachy,2021.1.2,59.9023854813632,
228,Trial # 229,layer0-5_O11_to_O7.jpg,layer0-5/layer0-5_O11_to_O7.jpg,OO,layer0-5,,,,,0.0,78.0,78.0,78.0,,,,,1511.6884627179245,None,1.0,1.847387434914708,1511.6884627179245,None,1511.6884627179245,None,1511.6884627179245,None,1,2022_Jul_11_1153,Semantic-hierachy,2021.1.2,59.9023854813632,
229,Trial # 230,layer6-8_T2_to_T8.jpg,layer6-8/layer6-8_T2_to_T8.jpg,TT,layer6-8,,,,,0.0,79.0,79.0,79.0,,,,,1513.8056068059525,None,3.0,1.801954684080556,1513.8056068059525,None,1513.8056068059525,None,1513.8056068059525,None,1,2022_Jul_11_1153,Semantic-hierachy,2021.1.2,59.9023854813632,
230,Trial # 231,layer9-17_T4_to_T8.jpg,layer9-17/layer9-17_T4_to_T8.jpg,TT,layer9-17,,,,,0.0,80.0,80.0,80.0,,,,,1515.8551756730303,None,2.0,1.4655468829441816,1515.8551756730303,None,1515.8551756730303,None,1515.8551756730303,None,1,2022_Jul_11_1153,Semantic-hierachy,2021.1.2,59.9023854813632,
231,Trial # 232,layer9-17_T11_to_T3.jpg,layer9-17/layer9-17_T11_to_T3.jpg,TT,layer9-17,,,,,0.0,81.0,81.0,81.0,,,,,1517.590391932987,None,2.0,1.2292476629372686,1517.590391932987,None,1517.590391932987,None,1517.590391932987,None,1,2022_Jul_11_1153,Semantic-hierachy,2021.1.2,59.9023854813632,
232,Trial # 233,layer0-5_O3_to_T9.jpg,layer0-5/layer0-5_O3_to_T9.jpg,OT,layer0-5,,,,,0.0,82.0,82.0,82.0,,,,,1519.1229813890532,None,1.0,2.7589652040041983,1519.1229813890532,None,1519.1229813890532,None,1519.1229813890532,None,1,2022_Jul_11_1153,Semantic-hierachy,2021.1.2,59.9023854813632,
233,Trial # 234,layer9-17_T7_to_T8.jpg,layer9-17/layer9-17_T7_to_T8.jpg,TT,layer9-17,,,,,0.0,83.0,83.0,83.0,,,,,1522.4749346249737,None,3.0,3.0956278629601,1522.4749346249737,None,1522.4749346249737,None,1522.4749346249737,None,1,2022_Jul_11_1153,Semantic-hierachy,2021.1.2,59.9023854813632,
234,Trial # 235,layer9-17_O3_to_O4.jpg,layer9-17/layer9-17_O3_to_O4.jpg,OO,layer9-17,,,,,0.0,84.0,84.0,84.0,,,,,1526.7591029510368,None,2.0,1.6919311499223113,1526.7591029510368,None,1526.7591029510368,None,1526.7591029510368,None,1,2022_Jul_11_1153,Semantic-hierachy,2021.1.2,59.9023854813632,
235,Trial # 236,layer6-8_O8_to_T6.jpg,layer6-8/layer6-8_O8_to_T6.jpg,OT,layer6-8,,,,,0.0,85.0,85.0,85.0,,,,,1528.6759734400548,None,3.0,2.122037580003962,1528.6759734400548,None,1528.6759734400548,None,1528.6759734400548,None,1,2022_Jul_11_1153,Semantic-hierachy,2021.1.2,59.9023854813632,
236,Trial # 237,layer9-17_T6_to_T7.jpg,layer9-17/layer9-17_T6_to_T7.jpg,TT,layer9-17,,,,,0.0,86.0,86.0,86.0,,,,,1531.0937221560162,None,2.0,1.6585481429938227,1531.0937221560162,None,1531.0937221560162,None,1531.0937221560162,None,1,2022_Jul_11_1153,Semantic-hierachy,2021.1.2,59.9023854813632,
237,Trial # 238,layer0-5_T2_to_T9.jpg,layer0-5/layer0-5_T2_to_T9.jpg,TT,layer0-5,,,,,0.0,87.0,87.0,87.0,,,,,1532.9949593550991,None,1.0,1.6644247320946306,1532.9949593550991,None,1532.9949593550991,None,1532.9949593550991,None,1,2022_Jul_11_1153,Semantic-hierachy,2021.1.2,59.9023854813632,
238,Trial # 239,layer0-5_O2_to_O5.jpg,layer0-5/layer0-5_O2_to_O5.jpg,OO,layer0-5,,,,,0.0,88.0,88.0,88.0,,,,,1534.9110569399782,None,1.0,1.928292052121833,1534.9110569399782,None,1534.9110569399782,None,1534.9110569399782,None,1,2022_Jul_11_1153,Semantic-hierachy,2021.1.2,59.9023854813632,
239,Trial # 240,layer6-8_O1_to_O5.jpg,layer6-8/layer6-8_O1_to_O5.jpg,OO,layer6-8,,,,,0.0,89.0,89.0,89.0,,,,,1537.079495907994,None,4.0,4.01173478201963,1537.079495907994,None,1537.079495907994,None,1537.079495907994,None,1,2022_Jul_11_1153,Semantic-hierachy,2021.1.2,59.9023854813632,
240,Trial # 241,layer9-17_O3_to_O7.jpg,layer9-17/layer9-17_O3_to_O7.jpg,OO,layer9-17,,,,,0.0,90.0,90.0,90.0,,,,,1541.4143126509152,None,2.0,1.6455351179465652,1541.4143126509152,None,1541.4143126509152,None,1541.4143126509152,None,1,2022_Jul_11_1153,Semantic-hierachy,2021.1.2,59.9023854813632,
241,Trial # 242,layer6-8_O11_to_O8.jpg,layer6-8/layer6-8_O11_to_O8.jpg,OO,layer6-8,,,,,0.0,91.0,91.0,91.0,,,,,1543.3471511690875,None,1.0,5.704991196049377,1543.3471511690875,None,1543.3471511690875,None,1543.3471511690875,None,1,2022_Jul_11_1153,Semantic-hierachy,2021.1.2,59.9023854813632,
242,Trial # 243,layer9-17_T1_to_T12.jpg,layer9-17/layer9-17_T1_to_T12.jpg,TT,layer9-17,,,,,0.0,92.0,92.0,92.0,,,,,1551.8512871360872,None,2.0,1.758019653847441,1551.8512871360872,None,1551.8512871360872,None,1551.8512871360872,None,1,2022_Jul_11_1153,Semantic-hierachy,2021.1.2,59.9023854813632,
243,Trial # 244,layer9-17_O6_to_O8.jpg,layer9-17/layer9-17_O6_to_O8.jpg,OO,layer9-17,,,,,0.0,93.0,93.0,93.0,,,,,1554.0175857141148,None,4.0,2.0618602060712874,1554.0175857141148,None,1554.0175857141148,None,1554.0175857141148,None,1,2022_Jul_11_1153,Semantic-hierachy,2021.1.2,59.9023854813632,
244,Trial # 245,layer6-8_O4_to_T11.jpg,layer6-8/layer6-8_O4_to_T11.jpg,OT,layer6-8,,,,,0.0,94.0,94.0,94.0,,,,,1556.3859232019167,None,3.0,3.282748057041317,1556.3859232019167,None,1556.3859232019167,None,1556.3859232019167,None,1,2022_Jul_11_1153,Semantic-hierachy,2021.1.2,59.9023854813632,
245,Trial # 246,layer9-17_T10_to_T3.jpg,layer9-17/layer9-17_T10_to_T3.jpg,TT,layer9-17,,,,,0.0,95.0,95.0,95.0,,,,,1559.9694741370622,None,2.0,4.61675263219513,1559.9694741370622,None,1559.9694741370622,None,1559.9694741370622,None,1,2022_Jul_11_1153,Semantic-hierachy,2021.1.2,59.9023854813632,
246,Trial # 247,layer0-5_O10_to_O8.jpg,layer0-5/layer0-5_O10_to_O8.jpg,OO,layer0-5,,,,,0.0,96.0,96.0,96.0,,,,,1564.886788573116,None,1.0,1.7596378070302308,1564.886788573116,None,1564.886788573116,None,1564.886788573116,None,1,2022_Jul_11_1153,Semantic-hierachy,2021.1.2,59.9023854813632,
247,Trial # 248,layer6-8_O3_to_T12.jpg,layer6-8/layer6-8_O3_to_T12.jpg,OT,layer6-8,,,,,0.0,97.0,97.0,97.0,,,,,1566.9220669060014,None,3.0,3.1942238819319755,1566.9220669060014,None,1566.9220669060014,None,1566.9220669060014,None,1,2022_Jul_11_1153,Semantic-hierachy,2021.1.2,59.9023854813632,
248,Trial # 249,layer0-5_O12_to_T9.jpg,layer0-5/layer0-5_O12_to_T9.jpg,OT,layer0-5,,,,,0.0,98.0,98.0,98.0,,,,,1570.855341685936,None,1.0,1.8617100610863415,1570.855341685936,None,1570.855341685936,None,1570.855341685936,None,1,2022_Jul_11_1153,Semantic-hierachy,2021.1.2,59.9023854813632,
249,Trial # 250,layer9-17_T1_to_T9.jpg,layer9-17/layer9-17_T1_to_T9.jpg,TT,layer9-17,,,,,0.0,99.0,99.0,99.0,,,,,1573.0241842190735,None,4.0,3.0753427259624004,1573.0241842190735,None,1573.0241842190735,None,1573.0241842190735,None,1,2022_Jul_11_1153,Semantic-hierachy,2021.1.2,59.9023854813632,
250,Trial # 251,layer9-17_T11_to_T8.jpg,layer9-17/layer9-17_T11_to_T8.jpg,TT,layer9-17,,,,,0.0,100.0,100.0,100.0,,,,,1576.3085648249837,None,2.0,1.645390594145283,1576.3085648249837,None,1576.3085648249837,None,1576.3085648249837,None,1,2022_Jul_11_1153,Semantic-hierachy,2021.1.2,59.9023854813632,
251,Trial # 252,layer9-17_T11_to_T5.jpg,layer9-17/layer9-17_T11_to_T5.jpg,TT,layer9-17,,,,,0.0,101.0,101.0,101.0,,,,,1578.2084083319642,None,4.0,4.12807199684903,1578.2084083319642,None,1578.2084083319642,None,1578.2084083319642,None,1,2022_Jul_11_1153,Semantic-hierachy,2021.1.2,59.9023854813632,
252,Trial # 253,layer6-8_T10_to_T12.jpg,layer6-8/layer6-8_T10_to_T12.jpg,TT,layer6-8,,,,,0.0,102.0,102.0,102.0,,,,,1582.6095595739316,None,4.0,4.9500064621679485,1582.6095595739316,None,1582.6095595739316,None,1582.6095595739316,None,1,2022_Jul_11_1153,Semantic-hierachy,2021.1.2,59.9023854813632,
253,Trial # 254,layer9-17_O5_to_T1.jpg,layer9-17/layer9-17_O5_to_T1.jpg,OT,layer9-17,,,,,0.0,103.0,103.0,103.0,,,,,1587.9273646899965,None,2.0,1.49823456001468,1587.9273646899965,None,1587.9273646899965,None,1587.9273646899965,None,1,2022_Jul_11_1153,Semantic-hierachy,2021.1.2,59.9023854813632,
254,Trial # 255,layer6-8_T2_to_T3.jpg,layer6-8/layer6-8_T2_to_T3.jpg,TT,layer6-8,,,,,0.0,104.0,104.0,104.0,,,,,1589.6948139290323,None,4.0,2.319814217975363,1589.6948139290323,None,1589.6948139290323,None,1589.6948139290323,None,1,2022_Jul_11_1153,Semantic-hierachy,2021.1.2,59.9023854813632,
255,Trial # 256,layer6-8_O2_to_T6.jpg,layer6-8/layer6-8_O2_to_T6.jpg,OT,layer6-8,,,,,0.0,105.0,105.0,105.0,,,,,1593.7960664338898,None,3.0,2.361110693076625,1593.7960664338898,None,1593.7960664338898,None,1593.7960664338898,None,1,2022_Jul_11_1153,Semantic-hierachy,2021.1.2,59.9023854813632,
256,Trial # 257,layer6-8_T11_to_T9.jpg,layer6-8/layer6-8_T11_to_T9.jpg,TT,layer6-8,,,,,0.0,106.0,106.0,106.0,,,,,1596.4314380111173,None,4.0,3.8096282458864152,1596.4314380111173,None,1596.4314380111173,None,1596.4314380111173,None,1,2022_Jul_11_1153,Semantic-hierachy,2021.1.2,59.9023854813632,
257,Trial # 258,layer6-8_O5_to_T9.jpg,layer6-8/layer6-8_O5_to_T9.jpg,OT,layer6-8,,,,,0.0,107.0,107.0,107.0,,,,,1600.5148550770243,None,3.0,2.146267379866913,1600.5148550770243,None,1600.5148550770243,None,1600.5148550770243,None,1,2022_Jul_11_1153,Semantic-hierachy,2021.1.2,59.9023854813632,
258,Trial # 259,layer6-8_O9_to_T8.jpg,layer6-8/layer6-8_O9_to_T8.jpg,OT,layer6-8,,,,,0.0,108.0,108.0,108.0,,,,,1602.8995865820907,None,3.0,1.525100452825427,1602.8995865820907,None,1602.8995865820907,None,1602.8995865820907,None,1,2022_Jul_11_1153,Semantic-hierachy,2021.1.2,59.9023854813632,
259,Trial # 260,layer6-8_T1_to_T5.jpg,layer6-8/layer6-8_T1_to_T5.jpg,TT,layer6-8,,,,,0.0,109.0,109.0,109.0,,,,,1604.7326216918882,None,4.0,2.140115272952244,1604.7326216918882,None,1604.7326216918882,None,1604.7326216918882,None,1,2022_Jul_11_1153,Semantic-hierachy,2021.1.2,59.9023854813632,
260,Trial # 261,layer0-5_O11_to_T2.jpg,layer0-5/layer0-5_O11_to_T2.jpg,OT,layer0-5,,,,,0.0,110.0,110.0,110.0,,,,,1607.134536965983,None,1.0,3.025361343054101,1607.134536965983,None,1607.134536965983,None,1607.134536965983,None,1,2022_Jul_11_1153,Semantic-hierachy,2021.1.2,59.9023854813632,
261,Trial # 262,layer0-5_O7_to_T4.jpg,layer0-5/layer0-5_O7_to_T4.jpg,OT,layer0-5,,,,,0.0,111.0,111.0,111.0,,,,,1610.4349921559915,None,1.0,1.611799128120765,1610.4349921559915,None,1610.4349921559915,None,1610.4349921559915,None,1,2022_Jul_11_1153,Semantic-hierachy,2021.1.2,59.9023854813632,
262,Trial # 263,layer6-8_T12_to_T8.jpg,layer6-8/layer6-8_T12_to_T8.jpg,TT,layer6-8,,,,,0.0,112.0,112.0,112.0,,,,,1612.2687770959456,None,4.0,7.041202828055248,1612.2687770959456,None,1612.2687770959456,None,1612.2687770959456,None,1,2022_Jul_11_1153,Semantic-hierachy,2021.1.2,59.9023854813632,
263,Trial # 264,layer6-8_O4_to_O9.jpg,layer6-8/layer6-8_O4_to_O9.jpg,OO,layer6-8,,,,,0.0,113.0,113.0,113.0,,,,,1619.5545424399895,None,4.0,1.7290251809172332,1619.5545424399895,None,1619.5545424399895,None,1619.5545424399895,None,1,2022_Jul_11_1153,Semantic-hierachy,2021.1.2,59.9023854813632,
264,Trial # 265,layer0-5_T1_to_T5.jpg,layer0-5/layer0-5_T1_to_T5.jpg,TT,layer0-5,,,,,0.0,114.0,114.0,114.0,,,,,1621.5060899169184,None,1.0,1.9320427160710096,1621.5060899169184,None,1621.5060899169184,None,1621.5060899169184,None,1,2022_Jul_11_1153,Semantic-hierachy,2021.1.2,59.9023854813632,
265,Trial # 266,layer0-5_O12_to_O7.jpg,layer0-5/layer0-5_O12_to_O7.jpg,OO,layer0-5,,,,,0.0,115.0,115.0,115.0,,,,,1623.6718827679288,None,1.0,1.3263366629835218,1623.6718827679288,None,1623.6718827679288,None,1623.6718827679288,None,1,2022_Jul_11_1153,Semantic-hierachy,2021.1.2,59.9023854813632,
266,Trial # 267,layer6-8_T8_to_T9.jpg,layer6-8/layer6-8_T8_to_T9.jpg,TT,layer6-8,,,,,0.0,116.0,116.0,116.0,,,,,1625.1890162080526,None,3.0,12.3779705199413,1625.1890162080526,None,1625.1890162080526,None,1625.1890162080526,None,1,2022_Jul_11_1153,Semantic-hierachy,2021.1.2,59.9023854813632,
267,Trial # 268,layer9-17_O11_to_T10.jpg,layer9-17/layer9-17_O11_to_T10.jpg,OT,layer9-17,,,,,0.0,117.0,117.0,117.0,,,,,1639.0931259531062,None,2.0,1.635405139066279,1639.0931259531062,None,1639.0931259531062,None,1639.0931259531062,None,1,2022_Jul_11_1153,Semantic-hierachy,2021.1.2,59.9023854813632,
268,Trial # 269,layer0-5_O8_to_T9.jpg,layer0-5/layer0-5_O8_to_T9.jpg,OT,layer0-5,,,,,0.0,118.0,118.0,118.0,,,,,1640.9106060049962,None,1.0,2.7780898991040885,1640.9106060049962,None,1640.9106060049962,None,1640.9106060049962,None,1,2022_Jul_11_1153,Semantic-hierachy,2021.1.2,59.9023854813632,
269,Trial # 270,layer9-17_O10_to_O11.jpg,layer9-17/layer9-17_O10_to_O11.jpg,OO,layer9-17,,,,,0.0,119.0,119.0,119.0,,,,,1643.9452543999068,None,4.0,6.347903343150392,1643.9452543999068,None,1643.9452543999068,None,1643.9452543999068,None,1,2022_Jul_11_1153,Semantic-hierachy,2021.1.2,59.9023854813632,
270,Trial # 271,layer0-5_T1_to_T9.jpg,layer0-5/layer0-5_T1_to_T9.jpg,TT,layer0-5,,,,,0.0,120.0,120.0,120.0,,,,,1650.713946474949,None,1.0,2.3442972749471664,1650.713946474949,None,1650.713946474949,None,1650.713946474949,None,1,2022_Jul_11_1153,Semantic-hierachy,2021.1.2,59.9023854813632,
271,Trial # 272,layer6-8_T11_to_T8.jpg,layer6-8/layer6-8_T11_to_T8.jpg,TT,layer6-8,,,,,0.0,121.0,121.0,121.0,,,,,1653.314292948926,None,4.0,6.00885742995888,1653.314292948926,None,1653.314292948926,None,1653.314292948926,None,1,2022_Jul_11_1153,Semantic-hierachy,2021.1.2,59.9023854813632,
272,Trial # 273,layer9-17_O10_to_O12.jpg,layer9-17/layer9-17_O10_to_O12.jpg,OO,layer9-17,,,,,0.0,122.0,122.0,122.0,,,,,1659.5830925090704,None,2.0,2.0924502070993185,1659.5830925090704,None,1659.5830925090704,None,1659.5830925090704,None,1,2022_Jul_11_1153,Semantic-hierachy,2021.1.2,59.9023854813632,
273,Trial # 274,layer0-5_T12_to_T6.jpg,layer0-5/layer0-5_T12_to_T6.jpg,TT,layer0-5,,,,,0.0,123.0,123.0,123.0,,,,,1663.3687786210794,None,1.0,1.9730851501226423,1663.3687786210794,None,1663.3687786210794,None,1663.3687786210794,None,1,2022_Jul_11_1153,Semantic-hierachy,2021.1.2,59.9023854813632,
274,Trial # 275,layer9-17_O11_to_O5.jpg,layer9-17/layer9-17_O11_to_O5.jpg,OO,layer9-17,,,,,0.0,124.0,124.0,124.0,,,,,1665.5845598001033,None,4.0,6.2780971098691225,1665.5845598001033,None,1665.5845598001033,None,1665.5845598001033,None,1,2022_Jul_11_1153,Semantic-hierachy,2021.1.2,59.9023854813632,
275,Trial # 276,layer9-17_O1_to_O4.jpg,layer9-17/layer9-17_O1_to_O4.jpg,OO,layer9-17,,,,,0.0,125.0,125.0,125.0,,,,,1672.0869462459814,None,4.0,2.479874862823636,1672.0869462459814,None,1672.0869462459814,None,1672.0869462459814,None,1,2022_Jul_11_1153,Semantic-hierachy,2021.1.2,59.9023854813632,
276,Trial # 277,layer6-8_O11_to_O3.jpg,layer6-8/layer6-8_O11_to_O3.jpg,OO,layer6-8,,,,,0.0,126.0,126.0,126.0,,,,,1674.7709756330587,None,3.0,3.055831101955846,1674.7709756330587,None,1674.7709756330587,None,1674.7709756330587,None,1,2022_Jul_11_1153,Semantic-hierachy,2021.1.2,59.9023854813632,
277,Trial # 278,layer6-8_T10_to_T11.jpg,layer6-8/layer6-8_T10_to_T11.jpg,TT,layer6-8,,,,,0.0,127.0,127.0,127.0,,,,,1678.188889236888,None,2.0,3.824478021124378,1678.188889236888,None,1678.188889236888,None,1678.188889236888,None,1,2022_Jul_11_1153,Semantic-hierachy,2021.1.2,59.9023854813632,
278,Trial # 279,layer0-5_O7_to_T3.jpg,layer0-5/layer0-5_O7_to_T3.jpg,OT,layer0-5,,,,,0.0,128.0,128.0,128.0,,,,,1682.2237185370177,None,1.0,1.61435130587779,1682.2237185370177,None,1682.2237185370177,None,1682.2237185370177,None,1,2022_Jul_11_1153,Semantic-hierachy,2021.1.2,59.9023854813632,
279,Trial # 280,layer9-17_T1_to_T10.jpg,layer9-17/layer9-17_T1_to_T10.jpg,TT,layer9-17,,,,,0.0,129.0,129.0,129.0,,,,,1684.157211448066,None,2.0,1.6421439521946013,1684.157211448066,None,1684.157211448066,None,1684.157211448066,None,1,2022_Jul_11_1153,Semantic-hierachy,2021.1.2,59.9023854813632,
280,Trial # 281,layer9-17_O6_to_T7.jpg,layer9-17/layer9-17_O6_to_T7.jpg,OT,layer9-17,,,,,0.0,130.0,130.0,130.0,,,,,1686.0739645529538,None,2.0,1.2474840329959989,1686.0739645529538,None,1686.0739645529538,None,1686.0739645529538,None,1,2022_Jul_11_1153,Semantic-hierachy,2021.1.2,59.9023854813632,
281,Trial # 282,layer0-5_O10_to_O7.jpg,layer0-5/layer0-5_O10_to_O7.jpg,OO,layer0-5,,,,,0.0,131.0,131.0,131.0,,,,,1687.64208012796,None,1.0,1.593808026984334,1687.64208012796,None,1687.64208012796,None,1687.64208012796,None,1,2022_Jul_11_1153,Semantic-hierachy,2021.1.2,59.9023854813632,
282,Trial # 283,layer0-5_O1_to_O11.jpg,layer0-5/layer0-5_O1_to_O11.jpg,OO,layer0-5,,,,,0.0,132.0,132.0,132.0,,,,,1689.509283033898,None,1.0,1.8645639270544048,1689.509283033898,None,1689.509283033898,None,1689.509283033898,None,1,2022_Jul_11_1153,Semantic-hierachy,2021.1.2,59.9023854813632,
283,Trial # 284,layer6-8_O7_to_O8.jpg,layer6-8/layer6-8_O7_to_O8.jpg,OO,layer6-8,,,,,0.0,133.0,133.0,133.0,,,,,1691.677493240917,None,1.0,1.2443262320011854,1691.677493240917,None,1691.677493240917,None,1691.677493240917,None,1,2022_Jul_11_1153,Semantic-hierachy,2021.1.2,59.9023854813632,
284,Trial # 285,layer0-5_T7_to_T8.jpg,layer0-5/layer0-5_T7_to_T8.jpg,TT,layer0-5,,,,,0.0,134.0,134.0,134.0,,,,,1696.3282815320415,None,1.0,1.8350912930909544,1696.3282815320415,None,1696.3282815320415,None,1696.3282815320415,None,1,2022_Jul_11_1153,Semantic-hierachy,2021.1.2,59.9023854813632,
285,Trial # 286,layer9-17_T11_to_T6.jpg,layer9-17/layer9-17_T11_to_T6.jpg,TT,layer9-17,,,,,0.0,135.0,135.0,135.0,,,,,1698.429563452024,None,2.0,2.8249814258888364,1698.429563452024,None,1698.429563452024,None,1698.429563452024,None,1,2022_Jul_11_1153,Semantic-hierachy,2021.1.2,59.9023854813632,
286,Trial # 287,layer0-5_T2_to_T7.jpg,layer0-5/layer0-5_T2_to_T7.jpg,TT,layer0-5,,,,,0.0,136.0,136.0,136.0,,,,,1701.5631707960274,None,1.0,3.076268669916317,1701.5631707960274,None,1701.5631707960274,None,1701.5631707960274,None,1,2022_Jul_11_1153,Semantic-hierachy,2021.1.2,59.9023854813632,
287,Trial # 288,layer9-17_O10_to_O2.jpg,layer9-17/layer9-17_O10_to_O2.jpg,OO,layer9-17,,,,,0.0,137.0,137.0,137.0,,,,,1705.363869599998,None,2.0,1.5610828020144254,1705.363869599998,None,1705.363869599998,None,1705.363869599998,None,1,2022_Jul_11_1153,Semantic-hierachy,2021.1.2,59.9023854813632,
288,Trial # 289,layer0-5_T10_to_T9.jpg,layer0-5/layer0-5_T10_to_T9.jpg,TT,layer0-5,,,,,0.0,138.0,138.0,138.0,,,,,1707.098748957971,None,1.0,3.162743852008134,1707.098748957971,None,1707.098748957971,None,1707.098748957971,None,1,2022_Jul_11_1153,Semantic-hierachy,2021.1.2,59.9023854813632,
289,Trial # 290,layer6-8_O11_to_O5.jpg,layer6-8/layer6-8_O11_to_O5.jpg,OO,layer6-8,,,,,0.0,139.0,139.0,139.0,,,,,1710.4652782951016,None,2.0,2.340957341017201,1710.4652782951016,None,1710.4652782951016,None,1710.4652782951016,None,1,2022_Jul_11_1153,Semantic-hierachy,2021.1.2,59.9023854813632,
290,Trial # 291,layer6-8_O3_to_O7.jpg,layer6-8/layer6-8_O3_to_O7.jpg,OO,layer6-8,,,,,0.0,140.0,140.0,140.0,,,,,1714.88349754503,None,4.0,2.556886432925239,1714.88349754503,None,1714.88349754503,None,1714.88349754503,None,1,2022_Jul_11_1153,Semantic-hierachy,2021.1.2,59.9023854813632,
291,Trial # 292,layer9-17_O12_to_T11.jpg,layer9-17/layer9-17_O12_to_T11.jpg,OT,layer9-17,,,,,0.0,141.0,141.0,141.0,,,,,1717.7189512879122,None,2.0,2.17963493289426,1717.7189512879122,None,1717.7189512879122,None,1717.7189512879122,None,1,2022_Jul_11_1153,Semantic-hierachy,2021.1.2,59.9023854813632,
292,Trial # 293,layer9-17_O2_to_O4.jpg,layer9-17/layer9-17_O2_to_O4.jpg,OO,layer9-17,,,,,0.0,142.0,142.0,142.0,,,,,1720.1182462270372,None,4.0,3.595448937965557,1720.1182462270372,None,1720.1182462270372,None,1720.1182462270372,None,1,2022_Jul_11_1153,Semantic-hierachy,2021.1.2,59.9023854813632,
293,Trial # 294,layer6-8_O1_to_T12.jpg,layer6-8/layer6-8_O1_to_T12.jpg,OT,layer6-8,,,,,0.0,143.0,143.0,143.0,,,,,1724.0038926799316,None,3.0,1.9162594589870423,1724.0038926799316,None,1724.0038926799316,None,1724.0038926799316,None,1,2022_Jul_11_1153,Semantic-hierachy,2021.1.2,59.9023854813632,
294,Trial # 295,layer9-17_O11_to_T5.jpg,layer9-17/layer9-17_O11_to_T5.jpg,OT,layer9-17,,,,,0.0,144.0,144.0,144.0,,,,,1726.1714898569044,None,3.0,2.4792057198937982,1726.1714898569044,None,1726.1714898569044,None,1726.1714898569044,None,1,2022_Jul_11_1153,Semantic-hierachy,2021.1.2,59.9023854813632,
295,Trial # 296,layer0-5_O10_to_O9.jpg,layer0-5/layer0-5_O10_to_O9.jpg,OO,layer0-5,,,,,0.0,145.0,145.0,145.0,,,,,1729.3712907868903,None,1.0,2.095151610905305,1729.3712907868903,None,1729.3712907868903,None,1729.3712907868903,None,1,2022_Jul_11_1153,Semantic-hierachy,2021.1.2,59.9023854813632,
296,Trial # 297,layer6-8_O12_to_T10.jpg,layer6-8/layer6-8_O12_to_T10.jpg,OT,layer6-8,,,,,0.0,146.0,146.0,146.0,,,,,1731.7565170789603,None,3.0,2.5038583690766245,1731.7565170789603,None,1731.7565170789603,None,1731.7565170789603,None,1,2022_Jul_11_1153,Semantic-hierachy,2021.1.2,59.9023854813632,
297,Trial # 298,layer6-8_O3_to_T2.jpg,layer6-8/layer6-8_O3_to_T2.jpg,OT,layer6-8,,,,,0.0,147.0,147.0,147.0,,,,,1734.6562001770362,None,1.0,1.62788461195305,1734.6562001770362,None,1734.6562001770362,None,1734.6562001770362,None,1,2022_Jul_11_1153,Semantic-hierachy,2021.1.2,59.9023854813632,
298,Trial # 299,layer9-17_O2_to_T5.jpg,layer9-17/layer9-17_O2_to_T5.jpg,OT,layer9-17,,,,,0.0,148.0,148.0,148.0,,,,,1736.5580001750495,None,4.0,3.958369882078841,1736.5580001750495,None,1736.5580001750495,None,1736.5580001750495,None,1,2022_Jul_11_1153,Semantic-hierachy,2021.1.2,59.9023854813632,
299,Trial # 300,layer0-5_O3_to_T7.jpg,layer0-5/layer0-5_O3_to_T7.jpg,OT,layer0-5,,,,,0.0,149.0,149.0,149.0,,,,,1740.7915168888867,None,1.0,2.047002239152789,1740.7915168888867,None,1740.7915168888867,None,1740.7915168888867,None,1,2022_Jul_11_1153,Semantic-hierachy,2021.1.2,59.9023854813632,
300,Trial # 301,layer9-17_O11_to_O6.jpg,layer9-17/layer9-17_O11_to_O6.jpg,OO,layer9-17,,,,,,,,,0.0,0.0,0.0,0.0,1745.0426451070234,None,3.0,12.715575027978048,1745.0426451070234,None,1745.0426451070234,None,1745.0426451070234,None,1,2022_Jul_11_1153,Semantic-hierachy,2021.1.2,59.9023854813632,
301,Trial # 302,layer0-5_O3_to_O7.jpg,layer0-5/layer0-5_O3_to_O7.jpg,OO,layer0-5,,,,,,,,,0.0,1.0,1.0,1.0,1758.231425026897,None,1.0,1.4395587220788002,1758.231425026897,None,1758.231425026897,None,1758.231425026897,None,1,2022_Jul_11_1153,Semantic-hierachy,2021.1.2,59.9023854813632,
302,Trial # 303,layer6-8_O11_to_T3.jpg,layer6-8/layer6-8_O11_to_T3.jpg,OT,layer6-8,,,,,,,,,0.0,2.0,2.0,2.0,1759.964094355004,None,3.0,4.306168732000515,1759.964094355004,None,1759.964094355004,None,1759.964094355004,None,1,2022_Jul_11_1153,Semantic-hierachy,2021.1.2,59.9023854813632,
303,Trial # 304,layer6-8_O2_to_T7.jpg,layer6-8/layer6-8_O2_to_T7.jpg,OT,layer6-8,,,,,,,,,0.0,3.0,3.0,3.0,1764.599051159108,None,3.0,1.2767167401034385,1764.599051159108,None,1764.599051159108,None,1764.599051159108,None,1,2022_Jul_11_1153,Semantic-hierachy,2021.1.2,59.9023854813632,
304,Trial # 305,layer0-5_T1_to_T7.jpg,layer0-5/layer0-5_T1_to_T7.jpg,TT,layer0-5,,,,,,,,,0.0,4.0,4.0,4.0,1766.116272340063,None,1.0,1.5150080060120672,1766.116272340063,None,1766.116272340063,None,1766.116272340063,None,1,2022_Jul_11_1153,Semantic-hierachy,2021.1.2,59.9023854813632,
305,Trial # 306,layer6-8_O7_to_T11.jpg,layer6-8/layer6-8_O7_to_T11.jpg,OT,layer6-8,,,,,,,,,0.0,5.0,5.0,5.0,1768.0677984519862,None,3.0,2.3384557450190187,1768.0677984519862,None,1768.0677984519862,None,1768.0677984519862,None,1,2022_Jul_11_1153,Semantic-hierachy,2021.1.2,59.9023854813632,
306,Trial # 307,layer9-17_O5_to_T5.jpg,layer9-17/layer9-17_O5_to_T5.jpg,OT,layer9-17,,,,,,,,,0.0,6.0,6.0,6.0,1770.6839494660962,None,2.0,2.6921992148272693,1770.6839494660962,None,1770.6839494660962,None,1770.6839494660962,None,1,2022_Jul_11_1153,Semantic-hierachy,2021.1.2,59.9023854813632,
307,Trial # 308,layer9-17_T12_to_T5.jpg,layer9-17/layer9-17_T12_to_T5.jpg,TT,layer9-17,,,,,,,,,0.0,7.0,7.0,7.0,1773.651457750937,None,2.0,2.9642892251722515,1773.651457750937,None,1773.651457750937,None,1773.651457750937,None,1,2022_Jul_11_1153,Semantic-hierachy,2021.1.2,59.9023854813632,
308,Trial # 309,layer6-8_O11_to_O2.jpg,layer6-8/layer6-8_O11_to_O2.jpg,OO,layer6-8,,,,,,,,,0.0,8.0,8.0,8.0,1776.8860757139046,None,2.0,1.3245431832037866,1776.8860757139046,None,1776.8860757139046,None,1776.8860757139046,None,1,2022_Jul_11_1153,Semantic-hierachy,2021.1.2,59.9023854813632,
309,Trial # 310,layer6-8_O10_to_O7.jpg,layer6-8/layer6-8_O10_to_O7.jpg,OO,layer6-8,,,,,,,,,0.0,9.0,9.0,9.0,1780.6368873240426,None,4.0,3.9892618989106263,1780.6368873240426,None,1780.6368873240426,None,1780.6368873240426,None,1,2022_Jul_11_1153,Semantic-hierachy,2021.1.2,59.9023854813632,
310,Trial # 311,layer9-17_O10_to_T11.jpg,layer9-17/layer9-17_O10_to_T11.jpg,OT,layer9-17,,,,,,,,,0.0,10.0,10.0,10.0,1784.9218206771184,None,4.0,3.1584029311779886,1784.9218206771184,None,1784.9218206771184,None,1784.9218206771184,None,1,2022_Jul_11_1153,Semantic-hierachy,2021.1.2,59.9023854813632,
311,Trial # 312,layer6-8_O11_to_O12.jpg,layer6-8/layer6-8_O11_to_O12.jpg,OO,layer6-8,,,,,,,,,0.0,11.0,11.0,11.0,1788.306217201054,None,4.0,3.908719174098224,1788.306217201054,None,1788.306217201054,None,1788.306217201054,None,1,2022_Jul_11_1153,Semantic-hierachy,2021.1.2,59.9023854813632,
312,Trial # 313,layer9-17_O9_to_T8.jpg,layer9-17/layer9-17_O9_to_T8.jpg,OT,layer9-17,,,,,,,,,0.0,12.0,12.0,12.0,1795.3580804890953,None,4.0,2.441004956839606,1795.3580804890953,None,1795.3580804890953,None,1795.3580804890953,None,1,2022_Jul_11_1153,Semantic-hierachy,2021.1.2,59.9023854813632,
313,Trial # 314,layer0-5_O3_to_T2.jpg,layer0-5/layer0-5_O3_to_T2.jpg,OT,layer0-5,,,,,,,,,0.0,13.0,13.0,13.0,1798.0923331019003,None,1.0,1.724845187040046,1798.0923331019003,None,1798.0923331019003,None,1798.0923331019003,None,1,2022_Jul_11_1153,Semantic-hierachy,2021.1.2,59.9023854813632,
314,Trial # 315,layer9-17_T1_to_T11.jpg,layer9-17/layer9-17_T1_to_T11.jpg,TT,layer9-17,,,,,,,,,0.0,14.0,14.0,14.0,1800.0761824529618,None,2.0,1.5607000321615487,1800.0761824529618,None,1800.0761824529618,None,1800.0761824529618,None,1,2022_Jul_11_1153,Semantic-hierachy,2021.1.2,59.9023854813632,
315,Trial # 316,layer6-8_T10_to_T7.jpg,layer6-8/layer6-8_T10_to_T7.jpg,TT,layer6-8,,,,,,,,,0.0,15.0,15.0,15.0,1801.8948814969044,None,4.0,3.439365660073236,1801.8948814969044,None,1801.8948814969044,None,1801.8948814969044,None,1,2022_Jul_11_1153,Semantic-hierachy,2021.1.2,59.9023854813632,
316,Trial # 317,layer0-5_T6_to_T7.jpg,layer0-5/layer0-5_T6_to_T7.jpg,TT,layer0-5,,,,,,,,,0.0,16.0,16.0,16.0,1805.578061710112,None,1.0,3.862242062110454,1805.578061710112,None,1805.578061710112,None,1805.578061710112,None,1,2022_Jul_11_1153,Semantic-hierachy,2021.1.2,59.9023854813632,
317,Trial # 318,layer9-17_O1_to_T3.jpg,layer9-17/layer9-17_O1_to_T3.jpg,OT,layer9-17,,,,,,,,,0.0,17.0,17.0,17.0,1809.762563815108,None,2.0,2.4770889261271805,1809.762563815108,None,1809.762563815108,None,1809.762563815108,None,1,2022_Jul_11_1153,Semantic-hierachy,2021.1.2,59.9023854813632,
318,Trial # 319,layer0-5_O2_to_T5.jpg,layer0-5/layer0-5_O2_to_T5.jpg,OT,layer0-5,,,,,,,,,0.0,18.0,18.0,18.0,1812.4812750609128,None,1.0,4.178767986828461,1812.4812750609128,None,1812.4812750609128,None,1812.4812750609128,None,1,2022_Jul_11_1153,Semantic-hierachy,2021.1.2,59.9023854813632,
319,Trial # 320,layer6-8_O7_to_T10.jpg,layer6-8/layer6-8_O7_to_T10.jpg,OT,layer6-8,,,,,,,,,0.0,19.0,19.0,19.0,1816.9662874350324,None,4.0,4.056145502952859,1816.9662874350324,None,1816.9662874350324,None,1816.9662874350324,None,1,2022_Jul_11_1153,Semantic-hierachy,2021.1.2,59.9023854813632,
320,Trial # 321,layer0-5_O5_to_O6.jpg,layer0-5/layer0-5_O5_to_O6.jpg,OO,layer0-5,,,,,,,,,0.0,20.0,20.0,20.0,1821.2675685200372,None,1.0,1.7766298078931868,1821.2675685200372,None,1821.2675685200372,None,1821.2675685200372,None,1,2022_Jul_11_1153,Semantic-hierachy,2021.1.2,59.9023854813632,
321,Trial # 322,layer9-17_O5_to_T4.jpg,layer9-17/layer9-17_O5_to_T4.jpg,OT,layer9-17,,,,,,,,,0.0,21.0,21.0,21.0,1823.2836518608965,None,2.0,1.6475136128719896,1823.2836518608965,None,1823.2836518608965,None,1823.2836518608965,None,1,2022_Jul_11_1153,Semantic-hierachy,2021.1.2,59.9023854813632,
322,Trial # 323,layer0-5_T12_to_T2.jpg,layer0-5/layer0-5_T12_to_T2.jpg,TT,layer0-5,,,,,,,,,0.0,22.0,22.0,22.0,1825.4338221170476,None,1.0,2.529302737908438,1825.4338221170476,None,1825.4338221170476,None,1825.4338221170476,None,1,2022_Jul_11_1153,Semantic-hierachy,2021.1.2,59.9023854813632,
323,Trial # 324,layer0-5_O2_to_O4.jpg,layer0-5/layer0-5_O2_to_O4.jpg,OO,layer0-5,,,,,,,,,0.0,23.0,23.0,23.0,1828.3685312960297,None,1.0,1.0815865430049598,1828.3685312960297,None,1828.3685312960297,None,1828.3685312960297,None,1,2022_Jul_11_1153,Semantic-hierachy,2021.1.2,59.9023854813632,
324,Trial # 325,layer6-8_O1_to_O9.jpg,layer6-8/layer6-8_O1_to_O9.jpg,OO,layer6-8,,,,,,,,,0.0,24.0,24.0,24.0,1829.752096151933,None,4.0,4.678156448993832,1829.752096151933,None,1829.752096151933,None,1829.752096151933,None,1,2022_Jul_11_1153,Semantic-hierachy,2021.1.2,59.9023854813632,
325,Trial # 326,layer0-5_T3_to_T5.jpg,layer0-5/layer0-5_T3_to_T5.jpg,TT,layer0-5,,,,,,,,,0.0,25.0,25.0,25.0,1834.6868028959725,None,1.0,1.977602847153321,1834.6868028959725,None,1834.6868028959725,None,1834.6868028959725,None,1,2022_Jul_11_1153,Semantic-hierachy,2021.1.2,59.9023854813632,
326,Trial # 327,layer6-8_O8_to_T12.jpg,layer6-8/layer6-8_O8_to_T12.jpg,OT,layer6-8,,,,,,,,,0.0,26.0,26.0,26.0,1836.905644834973,None,2.0,1.8057875710073856,1836.905644834973,None,1836.905644834973,None,1836.905644834973,None,1,2022_Jul_11_1153,Semantic-hierachy,2021.1.2,59.9023854813632,
327,Trial # 328,layer9-17_T11_to_T4.jpg,layer9-17/layer9-17_T11_to_T4.jpg,TT,layer9-17,,,,,,,,,0.0,27.0,27.0,27.0,1840.422112498898,None,4.0,2.4315052260644734,1840.422112498898,None,1840.422112498898,None,1840.422112498898,None,1,2022_Jul_11_1153,Semantic-hierachy,2021.1.2,59.9023854813632,
328,Trial # 329,layer9-17_O6_to_T2.jpg,layer9-17/layer9-17_O6_to_T2.jpg,OT,layer9-17,,,,,,,,,0.0,28.0,28.0,28.0,1843.023982871091,None,2.0,1.3291350009385496,1843.023982871091,None,1843.023982871091,None,1843.023982871091,None,1,2022_Jul_11_1153,Semantic-hierachy,2021.1.2,59.9023854813632,
329,Trial # 330,layer9-17_T10_to_T9.jpg,layer9-17/layer9-17_T10_to_T9.jpg,TT,layer9-17,,,,,,,,,0.0,29.0,29.0,29.0,1844.6067858859897,None,4.0,8.02805515495129,1844.6067858859897,None,1844.6067858859897,None,1844.6067858859897,None,1,2022_Jul_11_1153,Semantic-hierachy,2021.1.2,59.9023854813632,
330,Trial # 331,layer0-5_O2_to_O3.jpg,layer0-5/layer0-5_O2_to_O3.jpg,OO,layer0-5,,,,,,,,,0.0,30.0,30.0,30.0,1853.3929065628909,None,1.0,2.049053930910304,1853.3929065628909,None,1853.3929065628909,None,1853.3929065628909,None,1,2022_Jul_11_1153,Semantic-hierachy,2021.1.2,59.9023854813632,
331,Trial # 332,layer6-8_O1_to_O12.jpg,layer6-8/layer6-8_O1_to_O12.jpg,OO,layer6-8,,,,,,,,,0.0,31.0,31.0,31.0,1855.643097412074,None,3.0,2.6158176860772078,1855.643097412074,None,1855.643097412074,None,1855.643097412074,None,1,2022_Jul_11_1153,Semantic-hierachy,2021.1.2,59.9023854813632,
332,Trial # 333,layer0-5_O5_to_T12.jpg,layer0-5/layer0-5_O5_to_T12.jpg,OT,layer0-5,,,,,,,,,0.0,32.0,32.0,32.0,1858.4945095840376,None,4.0,2.082682870794088,1858.4945095840376,None,1858.4945095840376,None,1858.4945095840376,None,1,2022_Jul_11_1153,Semantic-hierachy,2021.1.2,59.9023854813632,
333,Trial # 334,layer9-17_O11_to_T6.jpg,layer9-17/layer9-17_O11_to_T6.jpg,OT,layer9-17,,,,,,,,,0.0,33.0,33.0,33.0,1860.745206970023,None,4.0,1.814088698010892,1860.745206970023,None,1860.745206970023,None,1860.745206970023,None,1,2022_Jul_11_1153,Semantic-hierachy,2021.1.2,59.9023854813632,
334,Trial # 335,layer0-5_O4_to_T1.jpg,layer0-5/layer0-5_O4_to_T1.jpg,OT,layer0-5,,,,,,,,,0.0,34.0,34.0,34.0,1862.8135786189232,None,1.0,2.626716215861961,1862.8135786189232,None,1862.8135786189232,None,1862.8135786189232,None,1,2022_Jul_11_1153,Semantic-hierachy,2021.1.2,59.9023854813632,
335,Trial # 336,layer6-8_T1_to_T6.jpg,layer6-8/layer6-8_T1_to_T6.jpg,TT,layer6-8,,,,,,,,,0.0,35.0,35.0,35.0,1865.813474304974,None,4.0,4.143552263034508,1865.813474304974,None,1865.813474304974,None,1865.813474304974,None,1,2022_Jul_11_1153,Semantic-hierachy,2021.1.2,59.9023854813632,
336,Trial # 337,layer0-5_O12_to_O6.jpg,layer0-5/layer0-5_O12_to_O6.jpg,OO,layer0-5,,,,,,,,,0.0,36.0,36.0,36.0,1870.3320833379405,None,1.0,1.8956475991290065,1870.3320833379405,None,1870.3320833379405,None,1870.3320833379405,None,1,2022_Jul_11_1153,Semantic-hierachy,2021.1.2,59.9023854813632,
337,Trial # 338,layer0-5_O1_to_O10.jpg,layer0-5/layer0-5_O1_to_O10.jpg,OO,layer0-5,,,,,,,,,0.0,37.0,37.0,37.0,1872.5834216959772,None,1.0,1.8137209720443932,1872.5834216959772,None,1872.5834216959772,None,1872.5834216959772,None,1,2022_Jul_11_1153,Semantic-hierachy,2021.1.2,59.9023854813632,
338,Trial # 339,layer0-5_O9_to_T9.jpg,layer0-5/layer0-5_O9_to_T9.jpg,OT,layer0-5,,,,,,,,,0.0,38.0,38.0,38.0,1874.6995479059408,None,1.0,1.781489421846345,1874.6995479059408,None,1874.6995479059408,None,1874.6995479059408,None,1,2022_Jul_11_1153,Semantic-hierachy,2021.1.2,59.9023854813632,
339,Trial # 340,layer6-8_O6_to_T10.jpg,layer6-8/layer6-8_O6_to_T10.jpg,OT,layer6-8,,,,,,,,,0.0,39.0,39.0,39.0,1876.7670393320727,None,3.0,2.3786425760481507,1876.7670393320727,None,1876.7670393320727,None,1876.7670393320727,None,1,2022_Jul_11_1153,Semantic-hierachy,2021.1.2,59.9023854813632,
340,Trial # 341,layer9-17_O3_to_T3.jpg,layer9-17/layer9-17_O3_to_T3.jpg,OT,layer9-17,,,,,,,,,0.0,40.0,40.0,40.0,1879.4176560419144,None,2.0,1.9065434548538176,1879.4176560419144,None,1879.4176560419144,None,1879.4176560419144,None,1,2022_Jul_11_1153,Semantic-hierachy,2021.1.2,59.9023854813632,
341,Trial # 342,layer0-5_O8_to_T8.jpg,layer0-5/layer0-5_O8_to_T8.jpg,OT,layer0-5,,,,,,,,,0.0,41.0,41.0,41.0,1881.585457062116,None,1.0,2.043105099117384,1881.585457062116,None,1881.585457062116,None,1881.585457062116,None,1,2022_Jul_11_1153,Semantic-hierachy,2021.1.2,59.9023854813632,
