,Trial_num,image_name,image_path,pair_type,layers,block1.thisRepN,block1.thisTrialN,block1.thisN,block1.thisIndex,block2.thisRepN,block2.thisTrialN,block2.thisN,block2.thisIndex,block3.thisRepN,block3.thisTrialN,block3.thisN,block3.thisIndex,image_8.started,image_8.stopped,selected_semantic.response,selected_semantic.rt,selected_semantic.started,selected_semantic.stopped,Instruction.started,Instruction.stopped,Trial_number.started,Trial_number.stopped,session,date,expName,psychopyVersion,frameRate,Unnamed: 33
0,Trial # 1,layer0-5_O2_to_T1.jpg,layer0-5/layer0-5_O2_to_T1.jpg,OT,layer0-5,0.0,0.0,0.0,0.0,,,,,,,,,54.49498526100069,None,1.0,41.57948671304621,54.49498526100069,None,54.49498526100069,None,54.49498526100069,None,1,2022_Apr_19_1402,Semantic-hierachy,2021.1.2,60.24369296576928,
1,Trial # 2,layer0-5_O11_to_T7.jpg,layer0-5/layer0-5_O11_to_T7.jpg,OT,layer0-5,0.0,1.0,1.0,1.0,,,,,,,,,98.47507636714728,None,1.0,20.386034182971343,98.47507636714728,None,98.47507636714728,None,98.47507636714728,None,1,2022_Apr_19_1402,Semantic-hierachy,2021.1.2,60.24369296576928,
2,Trial # 3,layer6-8_O3_to_O5.jpg,layer6-8/layer6-8_O3_to_O5.jpg,OO,layer6-8,0.0,2.0,2.0,2.0,,,,,,,,,124.43337816605344,None,4.0,7.557465301128104,124.43337816605344,None,124.43337816605344,None,124.43337816605344,None,1,2022_Apr_19_1402,Semantic-hierachy,2021.1.2,60.24369296576928,
3,Trial # 4,layer6-8_O11_to_O4.jpg,layer6-8/layer6-8_O11_to_O4.jpg,OO,layer6-8,0.0,3.0,3.0,3.0,,,,,,,,,141.22074371692725,None,4.0,28.25278134411201,141.22074371692725,None,141.22074371692725,None,141.22074371692725,None,1,2022_Apr_19_1402,Semantic-hierachy,2021.1.2,60.24369296576928,
4,Trial # 5,layer6-8_O8_to_T8.jpg,layer6-8/layer6-8_O8_to_T8.jpg,OT,layer6-8,0.0,4.0,4.0,4.0,,,,,,,,,172.5299903000705,None,3.0,3.827941686147824,172.5299903000705,None,172.5299903000705,None,172.5299903000705,None,1,2022_Apr_19_1402,Semantic-hierachy,2021.1.2,60.24369296576928,
5,Trial # 6,layer0-5_O11_to_O8.jpg,layer0-5/layer0-5_O11_to_O8.jpg,OO,layer0-5,0.0,5.0,5.0,5.0,,,,,,,,,177.78259529406205,None,1.0,7.07348721078597,177.78259529406205,None,177.78259529406205,None,177.78259529406205,None,1,2022_Apr_19_1402,Semantic-hierachy,2021.1.2,60.24369296576928,
6,Trial # 7,layer0-5_T10_to_T11.jpg,layer0-5/layer0-5_T10_to_T11.jpg,TT,layer0-5,0.0,6.0,6.0,6.0,,,,,,,,,189.93698473810215,None,1.0,5.170257354853675,189.93698473810215,None,189.93698473810215,None,189.93698473810215,None,1,2022_Apr_19_1402,Semantic-hierachy,2021.1.2,60.24369296576928,
7,Trial # 8,layer9-17_O6_to_O9.jpg,layer9-17/layer9-17_O6_to_O9.jpg,OO,layer9-17,0.0,7.0,7.0,7.0,,,,,,,,,196.4881051441189,None,2.0,5.658354698913172,196.4881051441189,None,196.4881051441189,None,196.4881051441189,None,1,2022_Apr_19_1402,Semantic-hierachy,2021.1.2,60.24369296576928,
8,Trial # 9,layer6-8_O12_to_O9.jpg,layer6-8/layer6-8_O12_to_O9.jpg,OO,layer6-8,0.0,8.0,8.0,8.0,,,,,,,,,203.25683146202937,None,4.0,23.69536476302892,203.25683146202937,None,203.25683146202937,None,203.25683146202937,None,1,2022_Apr_19_1402,Semantic-hierachy,2021.1.2,60.24369296576928,
9,Trial # 10,layer0-5_O10_to_T2.jpg,layer0-5/layer0-5_O10_to_T2.jpg,OT,layer0-5,0.0,9.0,9.0,9.0,,,,,,,,,231.71556387795133,None,4.0,22.066014003008604,231.71556387795133,None,231.71556387795133,None,231.71556387795133,None,1,2022_Apr_19_1402,Semantic-hierachy,2021.1.2,60.24369296576928,
10,Trial # 11,layer9-17_T10_to_T2.jpg,layer9-17/layer9-17_T10_to_T2.jpg,TT,layer9-17,0.0,10.0,10.0,10.0,,,,,,,,,254.8562602431048,None,4.0,24.16297254199162,254.8562602431048,None,254.8562602431048,None,254.8562602431048,None,1,2022_Apr_19_1402,Semantic-hierachy,2021.1.2,60.24369296576928,
11,Trial # 12,layer6-8_T6_to_T7.jpg,layer6-8/layer6-8_T6_to_T7.jpg,TT,layer6-8,0.0,11.0,11.0,11.0,,,,,,,,,280.981206796132,None,2.0,17.978322632145137,280.981206796132,None,280.981206796132,None,280.981206796132,None,1,2022_Apr_19_1402,Semantic-hierachy,2021.1.2,60.24369296576928,
12,Trial # 13,layer9-17_O10_to_T2.jpg,layer9-17/layer9-17_O10_to_T2.jpg,OT,layer9-17,0.0,12.0,12.0,12.0,,,,,,,,,308.74062387202866,None,2.0,5.608682838035747,308.74062387202866,None,308.74062387202866,None,308.74062387202866,None,1,2022_Apr_19_1402,Semantic-hierachy,2021.1.2,60.24369296576928,
13,Trial # 14,layer6-8_T4_to_T7.jpg,layer6-8/layer6-8_T4_to_T7.jpg,TT,layer6-8,0.0,13.0,13.0,13.0,,,,,,,,,316.75848231301643,None,3.0,10.212491143960506,316.75848231301643,None,316.75848231301643,None,316.75848231301643,None,1,2022_Apr_19_1402,Semantic-hierachy,2021.1.2,60.24369296576928,
14,Trial # 15,layer9-17_O8_to_T2.jpg,layer9-17/layer9-17_O8_to_T2.jpg,OT,layer9-17,0.0,14.0,14.0,14.0,,,,,,,,,329.9961225199513,None,2.0,2.283405296970159,329.9961225199513,None,329.9961225199513,None,329.9961225199513,None,1,2022_Apr_19_1402,Semantic-hierachy,2021.1.2,60.24369296576928,
15,Trial # 16,layer0-5_T6_to_T9.jpg,layer0-5/layer0-5_T6_to_T9.jpg,TT,layer0-5,0.0,15.0,15.0,15.0,,,,,,,,,333.76411884697154,None,1.0,3.7292426619678736,333.76411884697154,None,333.76411884697154,None,333.76411884697154,None,1,2022_Apr_19_1402,Semantic-hierachy,2021.1.2,60.24369296576928,
16,Trial # 17,layer0-5_O11_to_O12.jpg,layer0-5/layer0-5_O11_to_O12.jpg,OO,layer0-5,0.0,16.0,16.0,16.0,,,,,,,,,339.3658503480256,None,1.0,1.9282917270902544,339.3658503480256,None,339.3658503480256,None,339.3658503480256,None,1,2022_Apr_19_1402,Semantic-hierachy,2021.1.2,60.24369296576928,
17,Trial # 18,layer0-5_T11_to_T5.jpg,layer0-5/layer0-5_T11_to_T5.jpg,TT,layer0-5,0.0,17.0,17.0,17.0,,,,,,,,,342.2331575320568,None,1.0,2.13875567400828,342.2331575320568,None,342.2331575320568,None,342.2331575320568,None,1,2022_Apr_19_1402,Semantic-hierachy,2021.1.2,60.24369296576928,
18,Trial # 19,layer0-5_O6_to_T12.jpg,layer0-5/layer0-5_O6_to_T12.jpg,OT,layer0-5,0.0,18.0,18.0,18.0,,,,,,,,,345.2841910670977,None,1.0,2.26960183493793,345.2841910670977,None,345.2841910670977,None,345.2841910670977,None,1,2022_Apr_19_1402,Semantic-hierachy,2021.1.2,60.24369296576928,
19,Trial # 20,layer6-8_T6_to_T8.jpg,layer6-8/layer6-8_T6_to_T8.jpg,TT,layer6-8,0.0,19.0,19.0,19.0,,,,,,,,,348.6027989140712,None,4.0,6.555088093969971,348.6027989140712,None,348.6027989140712,None,348.6027989140712,None,1,2022_Apr_19_1402,Semantic-hierachy,2021.1.2,60.24369296576928,
20,Trial # 21,layer9-17_T2_to_T5.jpg,layer9-17/layer9-17_T2_to_T5.jpg,TT,layer9-17,0.0,20.0,20.0,20.0,,,,,,,,,356.7873831850011,None,2.0,2.3734687238465995,356.7873831850011,None,356.7873831850011,None,356.7873831850011,None,1,2022_Apr_19_1402,Semantic-hierachy,2021.1.2,60.24369296576928,
21,Trial # 22,layer6-8_O2_to_O6.jpg,layer6-8/layer6-8_O2_to_O6.jpg,OO,layer6-8,0.0,21.0,21.0,21.0,,,,,,,,,360.1888593961485,None,4.0,4.005686077056453,360.1888593961485,None,360.1888593961485,None,360.1888593961485,None,1,2022_Apr_19_1402,Semantic-hierachy,2021.1.2,60.24369296576928,
22,Trial # 23,layer9-17_O3_to_T12.jpg,layer9-17/layer9-17_O3_to_T12.jpg,OT,layer9-17,0.0,22.0,22.0,22.0,,,,,,,,,386.2306395471096,None,2.0,2.538770276121795,386.2306395471096,None,386.2306395471096,None,386.2306395471096,None,1,2022_Apr_19_1402,Semantic-hierachy,2021.1.2,60.24369296576928,
23,Trial # 24,layer0-5_O11_to_O3.jpg,layer0-5/layer0-5_O11_to_O3.jpg,OO,layer0-5,0.0,23.0,23.0,23.0,,,,,,,,,392.2660091370344,None,1.0,2.46064091892913,392.2660091370344,None,392.2660091370344,None,392.2660091370344,None,1,2022_Apr_19_1402,Semantic-hierachy,2021.1.2,60.24369296576928,
24,Trial # 25,layer6-8_O2_to_O9.jpg,layer6-8/layer6-8_O2_to_O9.jpg,OO,layer6-8,0.0,24.0,24.0,24.0,,,,,,,,,396.26654241303913,None,4.0,5.172901930985972,396.26654241303913,None,396.26654241303913,None,396.26654241303913,None,1,2022_Apr_19_1402,Semantic-hierachy,2021.1.2,60.24369296576928,
25,Trial # 26,layer9-17_O10_to_O8.jpg,layer9-17/layer9-17_O10_to_O8.jpg,OO,layer9-17,0.0,25.0,25.0,25.0,,,,,,,,,402.7685779130552,None,4.0,11.513595930999143,402.7685779130552,None,402.7685779130552,None,402.7685779130552,None,1,2022_Apr_19_1402,Semantic-hierachy,2021.1.2,60.24369296576928,
26,Trial # 27,layer9-17_T4_to_T6.jpg,layer9-17/layer9-17_T4_to_T6.jpg,TT,layer9-17,0.0,26.0,26.0,26.0,,,,,,,,,415.22259372798726,None,2.0,2.41017095791176,415.22259372798726,None,415.22259372798726,None,415.22259372798726,None,1,2022_Apr_19_1402,Semantic-hierachy,2021.1.2,60.24369296576928,
27,Trial # 28,layer6-8_O7_to_T8.jpg,layer6-8/layer6-8_O7_to_T8.jpg,OT,layer6-8,0.0,27.0,27.0,27.0,,,,,,,,,418.3901953489985,None,2.0,1.5580998079385608,418.3901953489985,None,418.3901953489985,None,418.3901953489985,None,1,2022_Apr_19_1402,Semantic-hierachy,2021.1.2,60.24369296576928,
28,Trial # 29,layer6-8_T4_to_T5.jpg,layer6-8/layer6-8_T4_to_T5.jpg,TT,layer6-8,0.0,28.0,28.0,28.0,,,,,,,,,420.7910805700813,None,4.0,3.805871560005471,420.7910805700813,None,420.7910805700813,None,420.7910805700813,None,1,2022_Apr_19_1402,Semantic-hierachy,2021.1.2,60.24369296576928,
29,Trial # 30,layer6-8_T10_to_T9.jpg,layer6-8/layer6-8_T10_to_T9.jpg,TT,layer6-8,0.0,29.0,29.0,29.0,,,,,,,,,426.44266619114205,None,4.0,3.2276616420131177,426.44266619114205,None,426.44266619114205,None,426.44266619114205,None,1,2022_Apr_19_1402,Semantic-hierachy,2021.1.2,60.24369296576928,
30,Trial # 31,layer9-17_O1_to_O8.jpg,layer9-17/layer9-17_O1_to_O8.jpg,OO,layer9-17,0.0,30.0,30.0,30.0,,,,,,,,,431.060525868088,None,2.0,5.679361516144127,431.060525868088,None,431.060525868088,None,431.060525868088,None,1,2022_Apr_19_1402,Semantic-hierachy,2021.1.2,60.24369296576928,
31,Trial # 32,layer9-17_O12_to_O7.jpg,layer9-17/layer9-17_O12_to_O7.jpg,OO,layer9-17,0.0,31.0,31.0,31.0,,,,,,,,,438.1130747119896,None,4.0,2.623376145027578,438.1130747119896,None,438.1130747119896,None,438.1130747119896,None,1,2022_Apr_19_1402,Semantic-hierachy,2021.1.2,60.24369296576928,
32,Trial # 33,layer9-17_T10_to_T12.jpg,layer9-17/layer9-17_T10_to_T12.jpg,TT,layer9-17,0.0,32.0,32.0,32.0,,,,,,,,,441.4975942480378,None,4.0,2.6055250440258533,441.4975942480378,None,441.4975942480378,None,441.4975942480378,None,1,2022_Apr_19_1402,Semantic-hierachy,2021.1.2,60.24369296576928,
33,Trial # 34,layer0-5_T2_to_T6.jpg,layer0-5/layer0-5_T2_to_T6.jpg,TT,layer0-5,0.0,33.0,33.0,33.0,,,,,,,,,445.5654528730083,None,1.0,6.309167333878577,445.5654528730083,None,445.5654528730083,None,445.5654528730083,None,1,2022_Apr_19_1402,Semantic-hierachy,2021.1.2,60.24369296576928,
34,Trial # 35,layer6-8_T11_to_T2.jpg,layer6-8/layer6-8_T11_to_T2.jpg,TT,layer6-8,0.0,34.0,34.0,34.0,,,,,,,,,454.00239581707865,None,4.0,4.60890581109561,454.00239581707865,None,454.00239581707865,None,454.00239581707865,None,1,2022_Apr_19_1402,Semantic-hierachy,2021.1.2,60.24369296576928,
35,Trial # 36,layer6-8_O4_to_T3.jpg,layer6-8/layer6-8_O4_to_T3.jpg,OT,layer6-8,0.0,35.0,35.0,35.0,,,,,,,,,459.904055472929,None,3.0,2.008902544854209,459.904055472929,None,459.904055472929,None,459.904055472929,None,1,2022_Apr_19_1402,Semantic-hierachy,2021.1.2,60.24369296576928,
36,Trial # 37,layer6-8_O3_to_T11.jpg,layer6-8/layer6-8_O3_to_T11.jpg,OT,layer6-8,0.0,36.0,36.0,36.0,,,,,,,,,463.1718346879352,None,2.0,1.875706129008904,463.1718346879352,None,463.1718346879352,None,463.1718346879352,None,1,2022_Apr_19_1402,Semantic-hierachy,2021.1.2,60.24369296576928,
37,Trial # 38,layer6-8_T1_to_T2.jpg,layer6-8/layer6-8_T1_to_T2.jpg,TT,layer6-8,0.0,37.0,37.0,37.0,,,,,,,,,465.9049063990824,None,4.0,12.396298855077475,465.9049063990824,None,465.9049063990824,None,465.9049063990824,None,1,2022_Apr_19_1402,Semantic-hierachy,2021.1.2,60.24369296576928,
38,Trial # 39,layer9-17_O2_to_O6.jpg,layer9-17/layer9-17_O2_to_O6.jpg,OO,layer9-17,0.0,38.0,38.0,38.0,,,,,,,,,479.2594288440887,None,4.0,27.042764090001583,479.2594288440887,None,479.2594288440887,None,479.2594288440887,None,1,2022_Apr_19_1402,Semantic-hierachy,2021.1.2,60.24369296576928,
39,Trial # 40,layer9-17_O4_to_T2.jpg,layer9-17/layer9-17_O4_to_T2.jpg,OT,layer9-17,0.0,39.0,39.0,39.0,,,,,,,,,507.06744364392944,None,2.0,2.159073031041771,507.06744364392944,None,507.06744364392944,None,507.06744364392944,None,1,2022_Apr_19_1402,Semantic-hierachy,2021.1.2,60.24369296576928,
40,Trial # 41,layer6-8_O5_to_T3.jpg,layer6-8/layer6-8_O5_to_T3.jpg,OT,layer6-8,0.0,40.0,40.0,40.0,,,,,,,,,509.95236146613024,None,3.0,1.5206582348328084,509.95236146613024,None,509.95236146613024,None,509.95236146613024,None,1,2022_Apr_19_1402,Semantic-hierachy,2021.1.2,60.24369296576928,
41,Trial # 42,layer6-8_O2_to_O3.jpg,layer6-8/layer6-8_O2_to_O3.jpg,OO,layer6-8,0.0,41.0,41.0,41.0,,,,,,,,,512.2862860260066,None,4.0,5.3437875639647245,512.2862860260066,None,512.2862860260066,None,512.2862860260066,None,1,2022_Apr_19_1402,Semantic-hierachy,2021.1.2,60.24369296576928,
42,Trial # 43,layer6-8_O1_to_T6.jpg,layer6-8/layer6-8_O1_to_T6.jpg,OT,layer6-8,0.0,42.0,42.0,42.0,,,,,,,,,529.708047166001,None,2.0,2.444506034022197,529.708047166001,None,529.708047166001,None,529.708047166001,None,1,2022_Apr_19_1402,Semantic-hierachy,2021.1.2,60.24369296576928,
43,Trial # 44,layer6-8_O2_to_T12.jpg,layer6-8/layer6-8_O2_to_T12.jpg,OT,layer6-8,0.0,43.0,43.0,43.0,,,,,,,,,532.9770687080454,None,3.0,1.779128500027582,532.9770687080454,None,532.9770687080454,None,532.9770687080454,None,1,2022_Apr_19_1402,Semantic-hierachy,2021.1.2,60.24369296576928,
44,Trial # 45,layer9-17_O2_to_O8.jpg,layer9-17/layer9-17_O2_to_O8.jpg,OO,layer9-17,0.0,44.0,44.0,44.0,,,,,,,,,535.1097876189742,None,4.0,2.6088474630378187,535.1097876189742,None,535.1097876189742,None,535.1097876189742,None,1,2022_Apr_19_1402,Semantic-hierachy,2021.1.2,60.24369296576928,
45,Trial # 46,layer9-17_O10_to_O4.jpg,layer9-17/layer9-17_O10_to_O4.jpg,OO,layer9-17,0.0,45.0,45.0,45.0,,,,,,,,,540.4610255081207,None,2.0,11.356384618906304,540.4610255081207,None,540.4610255081207,None,540.4610255081207,None,1,2022_Apr_19_1402,Semantic-hierachy,2021.1.2,60.24369296576928,
46,Trial # 47,layer0-5_O1_to_O4.jpg,layer0-5/layer0-5_O1_to_O4.jpg,OO,layer0-5,0.0,46.0,46.0,46.0,,,,,,,,,553.6656467430294,None,1.0,2.5921067481394857,553.6656467430294,None,553.6656467430294,None,553.6656467430294,None,1,2022_Apr_19_1402,Semantic-hierachy,2021.1.2,60.24369296576928,
47,Trial # 48,layer0-5_T4_to_T5.jpg,layer0-5/layer0-5_T4_to_T5.jpg,TT,layer0-5,0.0,47.0,47.0,47.0,,,,,,,,,557.4336044199299,None,1.0,3.056479091057554,557.4336044199299,None,557.4336044199299,None,557.4336044199299,None,1,2022_Apr_19_1402,Semantic-hierachy,2021.1.2,60.24369296576928,
48,Trial # 49,layer9-17_T12_to_T8.jpg,layer9-17/layer9-17_T12_to_T8.jpg,TT,layer9-17,0.0,48.0,48.0,48.0,,,,,,,,,560.9012152750511,None,2.0,2.0595793072134256,560.9012152750511,None,560.9012152750511,None,560.9012152750511,None,1,2022_Apr_19_1402,Semantic-hierachy,2021.1.2,60.24369296576928,
49,Trial # 50,layer0-5_T10_to_T5.jpg,layer0-5/layer0-5_T10_to_T5.jpg,TT,layer0-5,0.0,49.0,49.0,49.0,,,,,,,,,563.3026530691423,None,1.0,6.903596319956705,563.3026530691423,None,563.3026530691423,None,563.3026530691423,None,1,2022_Apr_19_1402,Semantic-hierachy,2021.1.2,60.24369296576928,
50,Trial # 51,layer6-8_O10_to_O8.jpg,layer6-8/layer6-8_O10_to_O8.jpg,OO,layer6-8,0.0,50.0,50.0,50.0,,,,,,,,,572.2207556781359,None,4.0,18.49774454906583,572.2207556781359,None,572.2207556781359,None,572.2207556781359,None,1,2022_Apr_19_1402,Semantic-hierachy,2021.1.2,60.24369296576928,
51,Trial # 52,layer9-17_O3_to_O5.jpg,layer9-17/layer9-17_O3_to_O5.jpg,OO,layer9-17,0.0,51.0,51.0,51.0,,,,,,,,,597.6625107519794,None,2.0,1.4948844017926604,597.6625107519794,None,597.6625107519794,None,597.6625107519794,None,1,2022_Apr_19_1402,Semantic-hierachy,2021.1.2,60.24369296576928,
52,Trial # 53,layer6-8_T1_to_T12.jpg,layer6-8/layer6-8_T1_to_T12.jpg,TT,layer6-8,0.0,52.0,52.0,52.0,,,,,,,,,600.113843966974,None,4.0,8.306547421962023,600.113843966974,None,600.113843966974,None,600.113843966974,None,1,2022_Apr_19_1402,Semantic-hierachy,2021.1.2,60.24369296576928,
53,Trial # 54,layer0-5_O4_to_O9.jpg,layer0-5/layer0-5_O4_to_O9.jpg,OO,layer0-5,0.0,53.0,53.0,53.0,,,,,,,,,612.833519149106,None,1.0,2.347318304004148,612.833519149106,None,612.833519149106,None,612.833519149106,None,1,2022_Apr_19_1402,Semantic-hierachy,2021.1.2,60.24369296576928,
54,Trial # 55,layer0-5_O5_to_O9.jpg,layer0-5/layer0-5_O5_to_O9.jpg,OO,layer0-5,0.0,54.0,54.0,54.0,,,,,,,,,616.3182081009727,None,1.0,9.61219804920256,616.3182081009727,None,616.3182081009727,None,616.3182081009727,None,1,2022_Apr_19_1402,Semantic-hierachy,2021.1.2,60.24369296576928,
55,Trial # 56,layer0-5_O1_to_O2.jpg,layer0-5/layer0-5_O1_to_O2.jpg,OO,layer0-5,0.0,55.0,55.0,55.0,,,,,,,,,628.0396754180547,None,1.0,1.5663475401233882,628.0396754180547,None,628.0396754180547,None,628.0396754180547,None,1,2022_Apr_19_1402,Semantic-hierachy,2021.1.2,60.24369296576928,
56,Trial # 57,layer9-17_T12_to_T3.jpg,layer9-17/layer9-17_T12_to_T3.jpg,TT,layer9-17,0.0,56.0,56.0,56.0,,,,,,,,,630.2896703900769,None,2.0,1.7692441430408508,630.2896703900769,None,630.2896703900769,None,630.2896703900769,None,1,2022_Apr_19_1402,Semantic-hierachy,2021.1.2,60.24369296576928,
57,Trial # 58,layer0-5_O7_to_O9.jpg,layer0-5/layer0-5_O7_to_O9.jpg,OO,layer0-5,0.0,57.0,57.0,57.0,,,,,,,,,632.941435034154,None,1.0,1.856628042878583,632.941435034154,None,632.941435034154,None,632.941435034154,None,1,2022_Apr_19_1402,Semantic-hierachy,2021.1.2,60.24369296576928,
58,Trial # 59,layer0-5_T5_to_T9.jpg,layer0-5/layer0-5_T5_to_T9.jpg,TT,layer0-5,0.0,58.0,58.0,58.0,,,,,,,,,635.3903857260011,None,1.0,2.394558642990887,635.3903857260011,None,635.3903857260011,None,635.3903857260011,None,1,2022_Apr_19_1402,Semantic-hierachy,2021.1.2,60.24369296576928,
59,Trial # 60,layer9-17_O1_to_O9.jpg,layer9-17/layer9-17_O1_to_O9.jpg,OO,layer9-17,0.0,59.0,59.0,59.0,,,,,,,,,638.2085009119473,None,4.0,21.447515388019383,638.2085009119473,None,638.2085009119473,None,638.2085009119473,None,1,2022_Apr_19_1402,Semantic-hierachy,2021.1.2,60.24369296576928,
60,Trial # 61,layer0-5_O6_to_O7.jpg,layer0-5/layer0-5_O6_to_O7.jpg,OO,layer0-5,0.0,60.0,60.0,60.0,,,,,,,,,662.3329427039716,None,1.0,2.806602697819472,662.3329427039716,None,662.3329427039716,None,662.3329427039716,None,1,2022_Apr_19_1402,Semantic-hierachy,2021.1.2,60.24369296576928,
61,Trial # 62,layer9-17_T5_to_T6.jpg,layer9-17/layer9-17_T5_to_T6.jpg,TT,layer9-17,0.0,61.0,61.0,61.0,,,,,,,,,665.9000711641274,None,2.0,11.66945127514191,665.9000711641274,None,665.9000711641274,None,665.9000711641274,None,1,2022_Apr_19_1402,Semantic-hierachy,2021.1.2,60.24369296576928,
62,Trial # 63,layer9-17_T4_to_T9.jpg,layer9-17/layer9-17_T4_to_T9.jpg,TT,layer9-17,0.0,62.0,62.0,62.0,,,,,,,,,678.5879460091237,None,2.0,1.4799658360425385,678.5879460091237,None,678.5879460091237,None,678.5879460091237,None,1,2022_Apr_19_1402,Semantic-hierachy,2021.1.2,60.24369296576928,
63,Trial # 64,layer0-5_O11_to_T1.jpg,layer0-5/layer0-5_O11_to_T1.jpg,OT,layer0-5,0.0,63.0,63.0,63.0,,,,,,,,,680.7048954691272,None,1.0,1.9871813908685,680.7048954691272,None,680.7048954691272,None,680.7048954691272,None,1,2022_Apr_19_1402,Semantic-hierachy,2021.1.2,60.24369296576928,
64,Trial # 65,layer6-8_T5_to_T9.jpg,layer6-8/layer6-8_T5_to_T9.jpg,TT,layer6-8,0.0,64.0,64.0,64.0,,,,,,,,,683.0562452040613,None,4.0,4.930144194047898,683.0562452040613,None,683.0562452040613,None,683.0562452040613,None,1,2022_Apr_19_1402,Semantic-hierachy,2021.1.2,60.24369296576928,
65,Trial # 66,layer0-5_T4_to_T7.jpg,layer0-5/layer0-5_T4_to_T7.jpg,TT,layer0-5,0.0,65.0,65.0,65.0,,,,,,,,,688.5907721500844,None,1.0,1.8115163231268523,688.5907721500844,None,688.5907721500844,None,688.5907721500844,None,1,2022_Apr_19_1402,Semantic-hierachy,2021.1.2,60.24369296576928,
66,Trial # 67,layer0-5_O2_to_O6.jpg,layer0-5/layer0-5_O2_to_O6.jpg,OO,layer0-5,0.0,66.0,66.0,66.0,,,,,,,,,690.9744380530901,None,1.0,1.5927384158130735,690.9744380530901,None,690.9744380530901,None,690.9744380530901,None,1,2022_Apr_19_1402,Semantic-hierachy,2021.1.2,60.24369296576928,
67,Trial # 68,layer9-17_O12_to_T3.jpg,layer9-17/layer9-17_O12_to_T3.jpg,OT,layer9-17,0.0,67.0,67.0,67.0,,,,,,,,,692.9262401240412,None,2.0,1.7056409530341623,692.9262401240412,None,692.9262401240412,None,692.9262401240412,None,1,2022_Apr_19_1402,Semantic-hierachy,2021.1.2,60.24369296576928,
68,Trial # 69,layer9-17_O7_to_O9.jpg,layer9-17/layer9-17_O7_to_O9.jpg,OO,layer9-17,0.0,68.0,68.0,68.0,,,,,,,,,695.0259046601132,None,4.0,4.659135238965973,695.0259046601132,None,695.0259046601132,None,695.0259046601132,None,1,2022_Apr_19_1402,Semantic-hierachy,2021.1.2,60.24369296576928,
69,Trial # 70,layer9-17_T1_to_T8.jpg,layer9-17/layer9-17_T1_to_T8.jpg,TT,layer9-17,0.0,69.0,69.0,69.0,,,,,,,,,700.6271157399751,None,4.0,15.577479955973104,700.6271157399751,None,700.6271157399751,None,700.6271157399751,None,1,2022_Apr_19_1402,Semantic-hierachy,2021.1.2,60.24369296576928,
70,Trial # 71,layer0-5_O3_to_T8.jpg,layer0-5/layer0-5_O3_to_T8.jpg,OT,layer0-5,0.0,70.0,70.0,70.0,,,,,,,,,716.7987113660201,None,1.0,1.956650528125465,716.7987113660201,None,716.7987113660201,None,716.7987113660201,None,1,2022_Apr_19_1402,Semantic-hierachy,2021.1.2,60.24369296576928,
71,Trial # 72,layer9-17_O9_to_T2.jpg,layer9-17/layer9-17_O9_to_T2.jpg,OT,layer9-17,0.0,71.0,71.0,71.0,,,,,,,,,719.0840053460561,None,4.0,2.312501231906936,719.0840053460561,None,719.0840053460561,None,719.0840053460561,None,1,2022_Apr_19_1402,Semantic-hierachy,2021.1.2,60.24369296576928,
72,Trial # 73,layer9-17_O5_to_O7.jpg,layer9-17/layer9-17_O5_to_O7.jpg,OO,layer9-17,0.0,72.0,72.0,72.0,,,,,,,,,722.9854070460424,None,2.0,3.145493221934885,722.9854070460424,None,722.9854070460424,None,722.9854070460424,None,1,2022_Apr_19_1402,Semantic-hierachy,2021.1.2,60.24369296576928,
73,Trial # 74,layer0-5_T11_to_T9.jpg,layer0-5/layer0-5_T11_to_T9.jpg,TT,layer0-5,0.0,73.0,73.0,73.0,,,,,,,,,727.7192703760229,None,1.0,1.7303595058619976,727.7192703760229,None,727.7192703760229,None,727.7192703760229,None,1,2022_Apr_19_1402,Semantic-hierachy,2021.1.2,60.24369296576928,
74,Trial # 75,layer0-5_O11_to_T12.jpg,layer0-5/layer0-5_O11_to_T12.jpg,OT,layer0-5,0.0,74.0,74.0,74.0,,,,,,,,,730.0711787929758,None,1.0,1.510117992060259,730.0711787929758,None,730.0711787929758,None,730.0711787929758,None,1,2022_Apr_19_1402,Semantic-hierachy,2021.1.2,60.24369296576928,
75,Trial # 76,layer9-17_T7_to_T9.jpg,layer9-17/layer9-17_T7_to_T9.jpg,TT,layer9-17,0.0,75.0,75.0,75.0,,,,,,,,,731.9372701880056,None,4.0,28.61239283112809,731.9372701880056,None,731.9372701880056,None,731.9372701880056,None,1,2022_Apr_19_1402,Semantic-hierachy,2021.1.2,60.24369296576928,
76,Trial # 77,layer6-8_O6_to_T2.jpg,layer6-8/layer6-8_O6_to_T2.jpg,OT,layer6-8,0.0,76.0,76.0,76.0,,,,,,,,,763.6818422360811,None,4.0,3.4332299269735813,763.6818422360811,None,763.6818422360811,None,763.6818422360811,None,1,2022_Apr_19_1402,Semantic-hierachy,2021.1.2,60.24369296576928,
77,Trial # 78,layer9-17_T4_to_T5.jpg,layer9-17/layer9-17_T4_to_T5.jpg,TT,layer9-17,0.0,77.0,77.0,77.0,,,,,,,,,768.8164201851469,None,2.0,13.296940189087763,768.8164201851469,None,768.8164201851469,None,768.8164201851469,None,1,2022_Apr_19_1402,Semantic-hierachy,2021.1.2,60.24369296576928,
78,Trial # 79,layer0-5_T2_to_T4.jpg,layer0-5/layer0-5_T2_to_T4.jpg,TT,layer0-5,0.0,78.0,78.0,78.0,,,,,,,,,800.8917741291225,None,1.0,3.0460073680151254,800.8917741291225,None,800.8917741291225,None,800.8917741291225,None,1,2022_Apr_19_1402,Semantic-hierachy,2021.1.2,60.24369296576928,
79,Trial # 80,layer0-5_T2_to_T8.jpg,layer0-5/layer0-5_T2_to_T8.jpg,TT,layer0-5,0.0,79.0,79.0,79.0,,,,,,,,,804.3272398859262,None,1.0,1.4433270171284676,804.3272398859262,None,804.3272398859262,None,804.3272398859262,None,1,2022_Apr_19_1402,Semantic-hierachy,2021.1.2,60.24369296576928,
80,Trial # 81,layer9-17_T3_to_T9.jpg,layer9-17/layer9-17_T3_to_T9.jpg,TT,layer9-17,0.0,80.0,80.0,80.0,,,,,,,,,806.0772057881113,None,2.0,8.65832201205194,806.0772057881113,None,806.0772057881113,None,806.0772057881113,None,1,2022_Apr_19_1402,Semantic-hierachy,2021.1.2,60.24369296576928,
81,Trial # 82,layer9-17_O2_to_O5.jpg,layer9-17/layer9-17_O2_to_O5.jpg,OO,layer9-17,0.0,81.0,81.0,81.0,,,,,,,,,817.180311437929,None,2.0,1.866542994976044,817.180311437929,None,817.180311437929,None,817.180311437929,None,1,2022_Apr_19_1402,Semantic-hierachy,2021.1.2,60.24369296576928,
82,Trial # 83,layer6-8_O6_to_O7.jpg,layer6-8/layer6-8_O6_to_O7.jpg,OO,layer6-8,0.0,82.0,82.0,82.0,,,,,,,,,820.1481704651378,None,4.0,3.7157643269747496,820.1481704651378,None,820.1481704651378,None,820.1481704651378,None,1,2022_Apr_19_1402,Semantic-hierachy,2021.1.2,60.24369296576928,
83,Trial # 84,layer9-17_O11_to_T1.jpg,layer9-17/layer9-17_O11_to_T1.jpg,OT,layer9-17,0.0,83.0,83.0,83.0,,,,,,,,,824.5497303809971,None,2.0,1.6069860749412328,824.5497303809971,None,824.5497303809971,None,824.5497303809971,None,1,2022_Apr_19_1402,Semantic-hierachy,2021.1.2,60.24369296576928,
84,Trial # 85,layer6-8_O5_to_T12.jpg,layer6-8/layer6-8_O5_to_T12.jpg,OT,layer6-8,0.0,84.0,84.0,84.0,,,,,,,,,826.5004306370392,None,3.0,2.321692399913445,826.5004306370392,None,826.5004306370392,None,826.5004306370392,None,1,2022_Apr_19_1402,Semantic-hierachy,2021.1.2,60.24369296576928,
85,Trial # 86,layer6-8_O4_to_O7.jpg,layer6-8/layer6-8_O4_to_O7.jpg,OO,layer6-8,0.0,85.0,85.0,85.0,,,,,,,,,829.3350090680178,None,4.0,2.8717619960661978,829.3350090680178,None,829.3350090680178,None,829.3350090680178,None,1,2022_Apr_19_1402,Semantic-hierachy,2021.1.2,60.24369296576928,
86,Trial # 87,layer6-8_T10_to_T8.jpg,layer6-8/layer6-8_T10_to_T8.jpg,TT,layer6-8,0.0,86.0,86.0,86.0,,,,,,,,,832.7181148880627,None,2.0,1.6922601980622858,832.7181148880627,None,832.7181148880627,None,832.7181148880627,None,1,2022_Apr_19_1402,Semantic-hierachy,2021.1.2,60.24369296576928,
87,Trial # 88,layer6-8_O10_to_T3.jpg,layer6-8/layer6-8_O10_to_T3.jpg,OT,layer6-8,0.0,87.0,87.0,87.0,,,,,,,,,835.9194174669683,None,3.0,2.432634439086541,835.9194174669683,None,835.9194174669683,None,835.9194174669683,None,1,2022_Apr_19_1402,Semantic-hierachy,2021.1.2,60.24369296576928,
88,Trial # 89,layer6-8_O5_to_O9.jpg,layer6-8/layer6-8_O5_to_O9.jpg,OO,layer6-8,0.0,88.0,88.0,88.0,,,,,,,,,838.9376475471072,None,4.0,3.712940165074542,838.9376475471072,None,838.9376475471072,None,838.9376475471072,None,1,2022_Apr_19_1402,Semantic-hierachy,2021.1.2,60.24369296576928,
89,Trial # 90,layer6-8_O10_to_O11.jpg,layer6-8/layer6-8_O10_to_O11.jpg,OO,layer6-8,0.0,89.0,89.0,89.0,,,,,,,,,845.1063578140456,None,4.0,5.400049702031538,845.1063578140456,None,845.1063578140456,None,845.1063578140456,None,1,2022_Apr_19_1402,Semantic-hierachy,2021.1.2,60.24369296576928,
90,Trial # 91,layer0-5_O4_to_T5.jpg,layer0-5/layer0-5_O4_to_T5.jpg,OT,layer0-5,0.0,90.0,90.0,90.0,,,,,,,,,851.2576600480825,None,1.0,1.918369236169383,851.2576600480825,None,851.2576600480825,None,851.2576600480825,None,1,2022_Apr_19_1402,Semantic-hierachy,2021.1.2,60.24369296576928,
91,Trial # 92,layer0-5_T11_to_T12.jpg,layer0-5/layer0-5_T11_to_T12.jpg,TT,layer0-5,0.0,91.0,91.0,91.0,,,,,,,,,854.0086404280737,None,1.0,2.4594644717872143,854.0086404280737,None,854.0086404280737,None,854.0086404280737,None,1,2022_Apr_19_1402,Semantic-hierachy,2021.1.2,60.24369296576928,
92,Trial # 93,layer0-5_T10_to_T3.jpg,layer0-5/layer0-5_T10_to_T3.jpg,TT,layer0-5,0.0,92.0,92.0,92.0,,,,,,,,,856.7931817581411,None,1.0,5.978970447089523,856.7931817581411,None,856.7931817581411,None,856.7931817581411,None,1,2022_Apr_19_1402,Semantic-hierachy,2021.1.2,60.24369296576928,
93,Trial # 94,layer0-5_O2_to_O8.jpg,layer0-5/layer0-5_O2_to_O8.jpg,OO,layer0-5,0.0,93.0,93.0,93.0,,,,,,,,,863.8462265850976,None,1.0,1.8373717030044645,863.8462265850976,None,863.8462265850976,None,863.8462265850976,None,1,2022_Apr_19_1402,Semantic-hierachy,2021.1.2,60.24369296576928,
94,Trial # 95,layer0-5_T3_to_T8.jpg,layer0-5/layer0-5_T3_to_T8.jpg,TT,layer0-5,0.0,94.0,94.0,94.0,,,,,,,,,866.0293818239588,None,1.0,1.9394782099407168,866.0293818239588,None,866.0293818239588,None,866.0293818239588,None,1,2022_Apr_19_1402,Semantic-hierachy,2021.1.2,60.24369296576928,
95,Trial # 96,layer0-5_O7_to_O8.jpg,layer0-5/layer0-5_O7_to_O8.jpg,OO,layer0-5,0.0,95.0,95.0,95.0,,,,,,,,,868.5811790600419,None,1.0,8.246758676832542,868.5811790600419,None,868.5811790600419,None,868.5811790600419,None,1,2022_Apr_19_1402,Semantic-hierachy,2021.1.2,60.24369296576928,
96,Trial # 97,layer6-8_T10_to_T6.jpg,layer6-8/layer6-8_T10_to_T6.jpg,TT,layer6-8,0.0,96.0,96.0,96.0,,,,,,,,,878.449839695124,None,2.0,10.477786303963512,878.449839695124,None,878.449839695124,None,878.449839695124,None,1,2022_Apr_19_1402,Semantic-hierachy,2021.1.2,60.24369296576928,
97,Trial # 98,layer0-5_O1_to_O5.jpg,layer0-5/layer0-5_O1_to_O5.jpg,OO,layer0-5,0.0,97.0,97.0,97.0,,,,,,,,,889.0871774230618,None,1.0,2.4486002530902624,889.0871774230618,None,889.0871774230618,None,889.0871774230618,None,1,2022_Apr_19_1402,Semantic-hierachy,2021.1.2,60.24369296576928,
98,Trial # 99,layer6-8_O1_to_O6.jpg,layer6-8/layer6-8_O1_to_O6.jpg,OO,layer6-8,0.0,98.0,98.0,98.0,,,,,,,,,891.9200380800758,None,4.0,68.8421391879674,891.9200380800758,None,891.9200380800758,None,891.9200380800758,None,1,2022_Apr_19_1402,Semantic-hierachy,2021.1.2,60.24369296576928,
99,Trial # 100,layer6-8_O3_to_T1.jpg,layer6-8/layer6-8_O3_to_T1.jpg,OT,layer6-8,0.0,99.0,99.0,99.0,,,,,,,,,962.1256656351034,None,3.0,1.7430474669672549,962.1256656351034,None,962.1256656351034,None,962.1256656351034,None,1,2022_Apr_19_1402,Semantic-hierachy,2021.1.2,60.24369296576928,
100,Trial # 101,layer6-8_T1_to_T9.jpg,layer6-8/layer6-8_T1_to_T9.jpg,TT,layer6-8,0.0,100.0,100.0,100.0,,,,,,,,,964.6772169070318,None,4.0,2.82480184501037,964.6772169070318,None,964.6772169070318,None,964.6772169070318,None,1,2022_Apr_19_1402,Semantic-hierachy,2021.1.2,60.24369296576928,
101,Trial # 102,layer9-17_O12_to_O6.jpg,layer9-17/layer9-17_O12_to_O6.jpg,OO,layer9-17,0.0,101.0,101.0,101.0,,,,,,,,,968.3612966479268,None,2.0,3.1616054619662464,968.3612966479268,None,968.3612966479268,None,968.3612966479268,None,1,2022_Apr_19_1402,Semantic-hierachy,2021.1.2,60.24369296576928,
102,Trial # 103,layer0-5_T4_to_T9.jpg,layer0-5/layer0-5_T4_to_T9.jpg,TT,layer0-5,0.0,102.0,102.0,102.0,,,,,,,,,972.1611307300628,None,1.0,1.832511663902551,972.1611307300628,None,972.1611307300628,None,972.1611307300628,None,1,2022_Apr_19_1402,Semantic-hierachy,2021.1.2,60.24369296576928,
103,Trial # 104,layer6-8_O10_to_T1.jpg,layer6-8/layer6-8_O10_to_T1.jpg,OT,layer6-8,0.0,103.0,103.0,103.0,,,,,,,,,974.6797205540352,None,4.0,14.377228223951532,974.6797205540352,None,974.6797205540352,None,974.6797205540352,None,1,2022_Apr_19_1402,Semantic-hierachy,2021.1.2,60.24369296576928,
104,Trial # 105,layer0-5_O6_to_T2.jpg,layer0-5/layer0-5_O6_to_T2.jpg,OT,layer0-5,0.0,104.0,104.0,104.0,,,,,,,,,989.8507479240652,None,1.0,1.5554407378658652,989.8507479240652,None,989.8507479240652,None,989.8507479240652,None,1,2022_Apr_19_1402,Semantic-hierachy,2021.1.2,60.24369296576928,
105,Trial # 106,layer9-17_T11_to_T2.jpg,layer9-17/layer9-17_T11_to_T2.jpg,TT,layer9-17,0.0,105.0,105.0,105.0,,,,,,,,,991.9843889861368,None,2.0,1.5875153429806232,991.9843889861368,None,991.9843889861368,None,991.9843889861368,None,1,2022_Apr_19_1402,Semantic-hierachy,2021.1.2,60.24369296576928,
106,Trial # 107,layer9-17_O12_to_O8.jpg,layer9-17/layer9-17_O12_to_O8.jpg,OO,layer9-17,0.0,106.0,106.0,106.0,,,,,,,,,994.0529939220288,None,2.0,4.493939505890012,994.0529939220288,None,994.0529939220288,None,994.0529939220288,None,1,2022_Apr_19_1402,Semantic-hierachy,2021.1.2,60.24369296576928,
107,Trial # 108,layer0-5_T12_to_T3.jpg,layer0-5/layer0-5_T12_to_T3.jpg,TT,layer0-5,0.0,107.0,107.0,107.0,,,,,,,,,999.1044897250832,None,1.0,2.7563584151212126,999.1044897250832,None,999.1044897250832,None,999.1044897250832,None,1,2022_Apr_19_1402,Semantic-hierachy,2021.1.2,60.24369296576928,
108,Trial # 109,layer0-5_T1_to_T10.jpg,layer0-5/layer0-5_T1_to_T10.jpg,TT,layer0-5,0.0,108.0,108.0,108.0,,,,,,,,,1002.6714964101556,None,1.0,1.7114086910150943,1002.6714964101556,None,1002.6714964101556,None,1002.6714964101556,None,1,2022_Apr_19_1402,Semantic-hierachy,2021.1.2,60.24369296576928,
109,Trial # 110,layer6-8_O4_to_T5.jpg,layer6-8/layer6-8_O4_to_T5.jpg,OT,layer6-8,0.0,109.0,109.0,109.0,,,,,,,,,1005.0393636031076,None,3.0,4.066274808952585,1005.0393636031076,None,1005.0393636031076,None,1005.0393636031076,None,1,2022_Apr_19_1402,Semantic-hierachy,2021.1.2,60.24369296576928,
110,Trial # 111,layer9-17_O11_to_O7.jpg,layer9-17/layer9-17_O11_to_O7.jpg,OO,layer9-17,0.0,110.0,110.0,110.0,,,,,,,,,1009.574388026027,None,2.0,3.893250693101436,1009.574388026027,None,1009.574388026027,None,1009.574388026027,None,1,2022_Apr_19_1402,Semantic-hierachy,2021.1.2,60.24369296576928,
111,Trial # 112,layer0-5_O5_to_O8.jpg,layer0-5/layer0-5_O5_to_O8.jpg,OO,layer0-5,0.0,111.0,111.0,111.0,,,,,,,,,1014.0256157829426,None,1.0,1.7562222271226346,1014.0256157829426,None,1014.0256157829426,None,1014.0256157829426,None,1,2022_Apr_19_1402,Semantic-hierachy,2021.1.2,60.24369296576928,
112,Trial # 113,layer0-5_O10_to_O4.jpg,layer0-5/layer0-5_O10_to_O4.jpg,OO,layer0-5,0.0,112.0,112.0,112.0,,,,,,,,,1016.4421668939758,None,1.0,1.90930082811974,1016.4421668939758,None,1016.4421668939758,None,1016.4421668939758,None,1,2022_Apr_19_1402,Semantic-hierachy,2021.1.2,60.24369296576928,
113,Trial # 114,layer9-17_O4_to_O8.jpg,layer9-17/layer9-17_O4_to_O8.jpg,OO,layer9-17,0.0,113.0,113.0,113.0,,,,,,,,,1018.7606366439722,None,2.0,13.178387566935273,1018.7606366439722,None,1018.7606366439722,None,1018.7606366439722,None,1,2022_Apr_19_1402,Semantic-hierachy,2021.1.2,60.24369296576928,
114,Trial # 115,layer0-5_O2_to_T8.jpg,layer0-5/layer0-5_O2_to_T8.jpg,OT,layer0-5,0.0,114.0,114.0,114.0,,,,,,,,,1035.7479793031234,None,1.0,1.4073768961243331,1035.7479793031234,None,1035.7479793031234,None,1035.7479793031234,None,1,2022_Apr_19_1402,Semantic-hierachy,2021.1.2,60.24369296576928,
115,Trial # 116,layer9-17_T2_to_T3.jpg,layer9-17/layer9-17_T2_to_T3.jpg,TT,layer9-17,0.0,115.0,115.0,115.0,,,,,,,,,1037.5153959761374,None,2.0,1.4439500879961995,1037.5153959761374,None,1037.5153959761374,None,1037.5153959761374,None,1,2022_Apr_19_1402,Semantic-hierachy,2021.1.2,60.24369296576928,
116,Trial # 117,layer6-8_O1_to_T10.jpg,layer6-8/layer6-8_O1_to_T10.jpg,OT,layer6-8,0.0,116.0,116.0,116.0,,,,,,,,,1039.53276057099,None,3.0,2.3995578980538994,1039.53276057099,None,1039.53276057099,None,1039.53276057099,None,1,2022_Apr_19_1402,Semantic-hierachy,2021.1.2,60.24369296576928,
117,Trial # 118,layer0-5_T3_to_T7.jpg,layer0-5/layer0-5_T3_to_T7.jpg,TT,layer0-5,0.0,117.0,117.0,117.0,,,,,,,,,1042.4335920640733,None,1.0,1.9871399719268084,1042.4335920640733,None,1042.4335920640733,None,1042.4335920640733,None,1,2022_Apr_19_1402,Semantic-hierachy,2021.1.2,60.24369296576928,
118,Trial # 119,layer9-17_O1_to_O12.jpg,layer9-17/layer9-17_O1_to_O12.jpg,OO,layer9-17,0.0,118.0,118.0,118.0,,,,,,,,,1044.8513837261123,None,2.0,1.911899770842865,1044.8513837261123,None,1044.8513837261123,None,1044.8513837261123,None,1,2022_Apr_19_1402,Semantic-hierachy,2021.1.2,60.24369296576928,
119,Trial # 120,layer6-8_O12_to_O2.jpg,layer6-8/layer6-8_O12_to_O2.jpg,OO,layer6-8,0.0,119.0,119.0,119.0,,,,,,,,,1047.3019233080558,None,3.0,8.430899057071656,1047.3019233080558,None,1047.3019233080558,None,1047.3019233080558,None,1,2022_Apr_19_1402,Semantic-hierachy,2021.1.2,60.24369296576928,
120,Trial # 121,layer9-17_O10_to_O9.jpg,layer9-17/layer9-17_O10_to_O9.jpg,OO,layer9-17,0.0,120.0,120.0,120.0,,,,,,,,,1056.254314988153,None,2.0,1.4808247240725905,1056.254314988153,None,1056.254314988153,None,1056.254314988153,None,1,2022_Apr_19_1402,Semantic-hierachy,2021.1.2,60.24369296576928,
121,Trial # 122,layer6-8_O4_to_T10.jpg,layer6-8/layer6-8_O4_to_T10.jpg,OT,layer6-8,0.0,121.0,121.0,121.0,,,,,,,,,1058.8721067160368,None,3.0,2.124265196966008,1058.8721067160368,None,1058.8721067160368,None,1058.8721067160368,None,1,2022_Apr_19_1402,Semantic-hierachy,2021.1.2,60.24369296576928,
122,Trial # 123,layer6-8_O2_to_T3.jpg,layer6-8/layer6-8_O2_to_T3.jpg,OT,layer6-8,0.0,122.0,122.0,122.0,,,,,,,,,1061.8223936390132,None,3.0,1.9763132859952748,1061.8223936390132,None,1061.8223936390132,None,1061.8223936390132,None,1,2022_Apr_19_1402,Semantic-hierachy,2021.1.2,60.24369296576928,
123,Trial # 124,layer0-5_O1_to_O7.jpg,layer0-5/layer0-5_O1_to_O7.jpg,OO,layer0-5,0.0,123.0,123.0,123.0,,,,,,,,,1064.374613814056,None,1.0,1.8119862480089068,1064.374613814056,None,1064.374613814056,None,1064.374613814056,None,1,2022_Apr_19_1402,Semantic-hierachy,2021.1.2,60.24369296576928,
124,Trial # 125,layer0-5_T8_to_T9.jpg,layer0-5/layer0-5_T8_to_T9.jpg,TT,layer0-5,0.0,124.0,124.0,124.0,,,,,,,,,1066.6243874200154,None,1.0,1.987401407212019,1066.6243874200154,None,1066.6243874200154,None,1066.6243874200154,None,1,2022_Apr_19_1402,Semantic-hierachy,2021.1.2,60.24369296576928,
125,Trial # 126,layer0-5_O12_to_T8.jpg,layer0-5/layer0-5_O12_to_T8.jpg,OT,layer0-5,0.0,125.0,125.0,125.0,,,,,,,,,1069.0094663670752,None,1.0,4.777756819035858,1069.0094663670752,None,1069.0094663670752,None,1069.0094663670752,None,1,2022_Apr_19_1402,Semantic-hierachy,2021.1.2,60.24369296576928,
126,Trial # 127,layer9-17_O4_to_O6.jpg,layer9-17/layer9-17_O4_to_O6.jpg,OO,layer9-17,0.0,126.0,126.0,126.0,,,,,,,,,1074.1442268751562,None,2.0,4.227095528971404,1074.1442268751562,None,1074.1442268751562,None,1074.1442268751562,None,1,2022_Apr_19_1402,Semantic-hierachy,2021.1.2,60.24369296576928,
127,Trial # 128,layer6-8_O12_to_O6.jpg,layer6-8/layer6-8_O12_to_O6.jpg,OO,layer6-8,0.0,127.0,127.0,127.0,,,,,,,,,1079.2958541770931,None,4.0,4.46262506605126,1079.2958541770931,None,1079.2958541770931,None,1079.2958541770931,None,1,2022_Apr_19_1402,Semantic-hierachy,2021.1.2,60.24369296576928,
128,Trial # 129,layer0-5_T4_to_T6.jpg,layer0-5/layer0-5_T4_to_T6.jpg,TT,layer0-5,0.0,128.0,128.0,128.0,,,,,,,,,1085.1135903960094,None,1.0,2.642632068833336,1085.1135903960094,None,1085.1135903960094,None,1085.1135903960094,None,1,2022_Apr_19_1402,Semantic-hierachy,2021.1.2,60.24369296576928,
129,Trial # 130,layer9-17_O1_to_O3.jpg,layer9-17/layer9-17_O1_to_O3.jpg,OO,layer9-17,0.0,129.0,129.0,129.0,,,,,,,,,1088.9656517589465,None,2.0,1.5095910190138966,1088.9656517589465,None,1088.9656517589465,None,1088.9656517589465,None,1,2022_Apr_19_1402,Semantic-hierachy,2021.1.2,60.24369296576928,
130,Trial # 131,layer9-17_O10_to_O3.jpg,layer9-17/layer9-17_O10_to_O3.jpg,OO,layer9-17,0.0,130.0,130.0,130.0,,,,,,,,,1091.1986405290663,None,2.0,2.2917141111101955,1091.1986405290663,None,1091.1986405290663,None,1091.1986405290663,None,1,2022_Apr_19_1402,Semantic-hierachy,2021.1.2,60.24369296576928,
131,Trial # 132,layer9-17_O12_to_O3.jpg,layer9-17/layer9-17_O12_to_O3.jpg,OO,layer9-17,0.0,131.0,131.0,131.0,,,,,,,,,1093.916539098136,None,2.0,1.816261711064726,1093.916539098136,None,1093.916539098136,None,1093.916539098136,None,1,2022_Apr_19_1402,Semantic-hierachy,2021.1.2,60.24369296576928,
132,Trial # 133,layer9-17_O11_to_O4.jpg,layer9-17/layer9-17_O11_to_O4.jpg,OO,layer9-17,0.0,132.0,132.0,132.0,,,,,,,,,1096.1498847571202,None,1.0,1.9292216668836768,1096.1498847571202,None,1096.1498847571202,None,1096.1498847571202,None,1,2022_Apr_19_1402,Semantic-hierachy,2021.1.2,60.24369296576928,
133,Trial # 134,layer9-17_T4_to_T7.jpg,layer9-17/layer9-17_T4_to_T7.jpg,TT,layer9-17,0.0,133.0,133.0,133.0,,,,,,,,,1098.5354246189818,None,2.0,1.9450835881289092,1098.5354246189818,None,1098.5354246189818,None,1098.5354246189818,None,1,2022_Apr_19_1402,Semantic-hierachy,2021.1.2,60.24369296576928,
134,Trial # 135,layer9-17_O1_to_T1.jpg,layer9-17/layer9-17_O1_to_T1.jpg,OT,layer9-17,0.0,134.0,134.0,134.0,,,,,,,,,1100.935490948148,None,2.0,6.440939401974902,1100.935490948148,None,1100.935490948148,None,1100.935490948148,None,1,2022_Apr_19_1402,Semantic-hierachy,2021.1.2,60.24369296576928,
135,Trial # 136,layer6-8_T2_to_T5.jpg,layer6-8/layer6-8_T2_to_T5.jpg,TT,layer6-8,0.0,135.0,135.0,135.0,,,,,,,,,1107.8870945600793,None,3.0,15.481145736994222,1107.8870945600793,None,1107.8870945600793,None,1107.8870945600793,None,1,2022_Apr_19_1402,Semantic-hierachy,2021.1.2,60.24369296576928,
136,Trial # 137,layer9-17_T11_to_T7.jpg,layer9-17/layer9-17_T11_to_T7.jpg,TT,layer9-17,0.0,136.0,136.0,136.0,,,,,,,,,1125.17626449815,None,2.0,1.4737600160297006,1125.17626449815,None,1125.17626449815,None,1125.17626449815,None,1,2022_Apr_19_1402,Semantic-hierachy,2021.1.2,60.24369296576928,
137,Trial # 138,layer6-8_O3_to_O8.jpg,layer6-8/layer6-8_O3_to_O8.jpg,OO,layer6-8,0.0,137.0,137.0,137.0,,,,,,,,,1127.243468140019,None,3.0,18.16881464701146,1127.243468140019,None,1127.243468140019,None,1127.243468140019,None,1,2022_Apr_19_1402,Semantic-hierachy,2021.1.2,60.24369296576928,
138,Trial # 139,layer6-8_O1_to_T7.jpg,layer6-8/layer6-8_O1_to_T7.jpg,OT,layer6-8,0.0,138.0,138.0,138.0,,,,,,,,,1145.9996886339504,None,3.0,2.4796522920951247,1145.9996886339504,None,1145.9996886339504,None,1145.9996886339504,None,1,2022_Apr_19_1402,Semantic-hierachy,2021.1.2,60.24369296576928,
139,Trial # 140,layer9-17_T1_to_T3.jpg,layer9-17/layer9-17_T1_to_T3.jpg,TT,layer9-17,0.0,139.0,139.0,139.0,,,,,,,,,1148.851129054092,None,3.0,18.745942883891985,1148.851129054092,None,1148.851129054092,None,1148.851129054092,None,1,2022_Apr_19_1402,Semantic-hierachy,2021.1.2,60.24369296576928,
140,Trial # 141,layer6-8_O10_to_O12.jpg,layer6-8/layer6-8_O10_to_O12.jpg,OO,layer6-8,0.0,140.0,140.0,140.0,,,,,,,,,1168.223137171939,None,4.0,6.131128789158538,1168.223137171939,None,1168.223137171939,None,1168.223137171939,None,1,2022_Apr_19_1402,Semantic-hierachy,2021.1.2,60.24369296576928,
141,Trial # 142,layer6-8_O12_to_T11.jpg,layer6-8/layer6-8_O12_to_T11.jpg,OT,layer6-8,0.0,141.0,141.0,141.0,,,,,,,,,1175.1252739741467,None,4.0,10.776884414022788,1175.1252739741467,None,1175.1252739741467,None,1175.1252739741467,None,1,2022_Apr_19_1402,Semantic-hierachy,2021.1.2,60.24369296576928,
142,Trial # 143,layer0-5_O11_to_O5.jpg,layer0-5/layer0-5_O11_to_O5.jpg,OO,layer0-5,0.0,142.0,142.0,142.0,,,,,,,,,1186.3277007851284,None,1.0,1.4540159741882237,1186.3277007851284,None,1186.3277007851284,None,1186.3277007851284,None,1,2022_Apr_19_1402,Semantic-hierachy,2021.1.2,60.24369296576928,
143,Trial # 144,layer6-8_O1_to_O8.jpg,layer6-8/layer6-8_O1_to_O8.jpg,OO,layer6-8,0.0,143.0,143.0,143.0,,,,,,,,,1188.180000862107,None,2.0,1.593271727208048,1188.180000862107,None,1188.180000862107,None,1188.180000862107,None,1,2022_Apr_19_1402,Semantic-hierachy,2021.1.2,60.24369296576928,
144,Trial # 145,layer0-5_T2_to_T5.jpg,layer0-5/layer0-5_T2_to_T5.jpg,TT,layer0-5,0.0,144.0,144.0,144.0,,,,,,,,,1190.1297743550967,None,1.0,3.213577647926286,1190.1297743550967,None,1190.1297743550967,None,1190.1297743550967,None,1,2022_Apr_19_1402,Semantic-hierachy,2021.1.2,60.24369296576928,
145,Trial # 146,layer9-17_O8_to_T3.jpg,layer9-17/layer9-17_O8_to_T3.jpg,OT,layer9-17,0.0,145.0,145.0,145.0,,,,,,,,,1194.198029970983,None,2.0,1.4780276950914413,1194.198029970983,None,1194.198029970983,None,1194.198029970983,None,1,2022_Apr_19_1402,Semantic-hierachy,2021.1.2,60.24369296576928,
146,Trial # 147,layer9-17_O8_to_T4.jpg,layer9-17/layer9-17_O8_to_T4.jpg,OT,layer9-17,0.0,146.0,146.0,146.0,,,,,,,,,1196.1976814561058,None,4.0,6.212887556059286,1196.1976814561058,None,1196.1976814561058,None,1196.1976814561058,None,1,2022_Apr_19_1402,Semantic-hierachy,2021.1.2,60.24369296576928,
147,Trial # 148,layer9-17_O4_to_T9.jpg,layer9-17/layer9-17_O4_to_T9.jpg,OT,layer9-17,0.0,147.0,147.0,147.0,,,,,,,,,1203.5511647860983,None,2.0,1.4482954030390829,1203.5511647860983,None,1203.5511647860983,None,1203.5511647860983,None,1,2022_Apr_19_1402,Semantic-hierachy,2021.1.2,60.24369296576928,
148,Trial # 149,layer6-8_O4_to_O8.jpg,layer6-8/layer6-8_O4_to_O8.jpg,OO,layer6-8,0.0,148.0,148.0,148.0,,,,,,,,,1205.450814791955,None,4.0,6.731228671036661,1205.450814791955,None,1205.450814791955,None,1205.450814791955,None,1,2022_Apr_19_1402,Semantic-hierachy,2021.1.2,60.24369296576928,
149,Trial # 150,layer0-5_O12_to_T7.jpg,layer0-5/layer0-5_O12_to_T7.jpg,OT,layer0-5,0.0,149.0,149.0,149.0,,,,,,,,,1212.5859246631153,None,1.0,3.145828979089856,1212.5859246631153,None,1212.5859246631153,None,1212.5859246631153,None,1,2022_Apr_19_1402,Semantic-hierachy,2021.1.2,60.24369296576928,
150,Trial # 151,layer6-8_T1_to_T3.jpg,layer6-8/layer6-8_T1_to_T3.jpg,TT,layer6-8,,,,,0.0,0.0,0.0,0.0,,,,,1248.397977607092,None,4.0,9.068857555976138,1248.397977607092,None,1248.397977607092,None,1248.397977607092,None,1,2022_Apr_19_1402,Semantic-hierachy,2021.1.2,60.24369296576928,
151,Trial # 152,layer0-5_O8_to_O9.jpg,layer0-5/layer0-5_O8_to_O9.jpg,OO,layer0-5,,,,,0.0,1.0,1.0,1.0,,,,,1260.2508924501017,None,1.0,1.5612662008497864,1260.2508924501017,None,1260.2508924501017,None,1260.2508924501017,None,1,2022_Apr_19_1402,Semantic-hierachy,2021.1.2,60.24369296576928,
152,Trial # 153,layer9-17_T1_to_T5.jpg,layer9-17/layer9-17_T1_to_T5.jpg,TT,layer9-17,,,,,0.0,2.0,2.0,2.0,,,,,1262.3350173721556,None,2.0,1.5481869671493769,1262.3350173721556,None,1262.3350173721556,None,1262.3350173721556,None,1,2022_Apr_19_1402,Semantic-hierachy,2021.1.2,60.24369296576928,
153,Trial # 154,layer6-8_T7_to_T9.jpg,layer6-8/layer6-8_T7_to_T9.jpg,TT,layer6-8,,,,,0.0,3.0,3.0,3.0,,,,,1264.336007524049,None,4.0,10.164418424945325,1264.336007524049,None,1264.336007524049,None,1264.336007524049,None,1,2022_Apr_19_1402,Semantic-hierachy,2021.1.2,60.24369296576928,
154,Trial # 155,layer9-17_T12_to_T7.jpg,layer9-17/layer9-17_T12_to_T7.jpg,TT,layer9-17,,,,,0.0,4.0,4.0,4.0,,,,,1275.6558162311558,None,2.0,2.8654443060513586,1275.6558162311558,None,1275.6558162311558,None,1275.6558162311558,None,1,2022_Apr_19_1402,Semantic-hierachy,2021.1.2,60.24369296576928,
155,Trial # 156,layer0-5_O8_to_T11.jpg,layer0-5/layer0-5_O8_to_T11.jpg,OT,layer0-5,,,,,0.0,5.0,5.0,5.0,,,,,1279.040779744042,None,1.0,1.5073509828653189,1279.040779744042,None,1279.040779744042,None,1279.040779744042,None,1,2022_Apr_19_1402,Semantic-hierachy,2021.1.2,60.24369296576928,
156,Trial # 157,layer0-5_O1_to_O9.jpg,layer0-5/layer0-5_O1_to_O9.jpg,OO,layer0-5,,,,,0.0,6.0,6.0,6.0,,,,,1280.8742807540111,None,1.0,1.9638673209119588,1280.8742807540111,None,1280.8742807540111,None,1280.8742807540111,None,1,2022_Apr_19_1402,Semantic-hierachy,2021.1.2,60.24369296576928,
157,Trial # 158,layer0-5_O10_to_O12.jpg,layer0-5/layer0-5_O10_to_O12.jpg,OO,layer0-5,,,,,0.0,7.0,7.0,7.0,,,,,1283.1749827349558,None,1.0,1.5991053821053356,1283.1749827349558,None,1283.1749827349558,None,1283.1749827349558,None,1,2022_Apr_19_1402,Semantic-hierachy,2021.1.2,60.24369296576928,
158,Trial # 159,layer6-8_O10_to_T5.jpg,layer6-8/layer6-8_O10_to_T5.jpg,OT,layer6-8,,,,,0.0,8.0,8.0,8.0,,,,,1285.2586962811183,None,4.0,18.251364066032693,1285.2586962811183,None,1285.2586962811183,None,1285.2586962811183,None,1,2022_Apr_19_1402,Semantic-hierachy,2021.1.2,60.24369296576928,
159,Trial # 160,layer6-8_O5_to_O6.jpg,layer6-8/layer6-8_O5_to_O6.jpg,OO,layer6-8,,,,,0.0,9.0,9.0,9.0,,,,,1304.0644980000798,None,4.0,4.03475751914084,1304.0644980000798,None,1304.0644980000798,None,1304.0644980000798,None,1,2022_Apr_19_1402,Semantic-hierachy,2021.1.2,60.24369296576928,
160,Trial # 161,layer6-8_O6_to_T11.jpg,layer6-8/layer6-8_O6_to_T11.jpg,OT,layer6-8,,,,,0.0,10.0,10.0,10.0,,,,,1310.649765836075,None,2.0,3.760348699055612,1310.649765836075,None,1310.649765836075,None,1310.649765836075,None,1,2022_Apr_19_1402,Semantic-hierachy,2021.1.2,60.24369296576928,
161,Trial # 162,layer9-17_O12_to_O9.jpg,layer9-17/layer9-17_O12_to_O9.jpg,OO,layer9-17,,,,,0.0,11.0,11.0,11.0,,,,,1317.6519956300035,None,2.0,5.245998369064182,1317.6519956300035,None,1317.6519956300035,None,1317.6519956300035,None,1,2022_Apr_19_1402,Semantic-hierachy,2021.1.2,60.24369296576928,
162,Trial # 163,layer6-8_O12_to_T6.jpg,layer6-8/layer6-8_O12_to_T6.jpg,OT,layer6-8,,,,,0.0,12.0,12.0,12.0,,,,,1323.254117676057,None,4.0,3.5929382741451263,1323.254117676057,None,1323.254117676057,None,1323.254117676057,None,1,2022_Apr_19_1402,Semantic-hierachy,2021.1.2,60.24369296576928,
163,Trial # 164,layer0-5_T11_to_T7.jpg,layer0-5/layer0-5_T11_to_T7.jpg,TT,layer0-5,,,,,0.0,13.0,13.0,13.0,,,,,1327.2053253750782,None,1.0,3.79312077909708,1327.2053253750782,None,1327.2053253750782,None,1327.2053253750782,None,1,2022_Apr_19_1402,Semantic-hierachy,2021.1.2,60.24369296576928,
164,Trial # 165,layer9-17_O10_to_T5.jpg,layer9-17/layer9-17_O10_to_T5.jpg,OT,layer9-17,,,,,0.0,14.0,14.0,14.0,,,,,1331.356677314965,None,4.0,6.145323008997366,1331.356677314965,None,1331.356677314965,None,1331.356677314965,None,1,2022_Apr_19_1402,Semantic-hierachy,2021.1.2,60.24369296576928,
165,Trial # 166,layer9-17_T1_to_T6.jpg,layer9-17/layer9-17_T1_to_T6.jpg,TT,layer9-17,,,,,0.0,15.0,15.0,15.0,,,,,1338.8586352879647,None,2.0,1.29455759213306,1338.8586352879647,None,1338.8586352879647,None,1338.8586352879647,None,1,2022_Apr_19_1402,Semantic-hierachy,2021.1.2,60.24369296576928,
166,Trial # 167,layer0-5_T1_to_T3.jpg,layer0-5/layer0-5_T1_to_T3.jpg,TT,layer0-5,,,,,0.0,16.0,16.0,16.0,,,,,1340.4927505590022,None,1.0,1.625910400878638,1340.4927505590022,None,1340.4927505590022,None,1340.4927505590022,None,1,2022_Apr_19_1402,Semantic-hierachy,2021.1.2,60.24369296576928,
167,Trial # 168,layer0-5_O2_to_O9.jpg,layer0-5/layer0-5_O2_to_O9.jpg,OO,layer0-5,,,,,0.0,17.0,17.0,17.0,,,,,1342.5428764740936,None,1.0,2.1429984488058835,1342.5428764740936,None,1342.5428764740936,None,1342.5428764740936,None,1,2022_Apr_19_1402,Semantic-hierachy,2021.1.2,60.24369296576928,
168,Trial # 169,layer9-17_O3_to_T4.jpg,layer9-17/layer9-17_O3_to_T4.jpg,OT,layer9-17,,,,,0.0,18.0,18.0,18.0,,,,,1344.961349596968,None,2.0,2.261287120869383,1344.961349596968,None,1344.961349596968,None,1344.961349596968,None,1,2022_Apr_19_1402,Semantic-hierachy,2021.1.2,60.24369296576928,
169,Trial # 170,layer6-8_O11_to_O9.jpg,layer6-8/layer6-8_O11_to_O9.jpg,OO,layer6-8,,,,,0.0,19.0,19.0,19.0,,,,,1347.5615375530906,None,2.0,6.265526782954112,1347.5615375530906,None,1347.5615375530906,None,1347.5615375530906,None,1,2022_Apr_19_1402,Semantic-hierachy,2021.1.2,60.24369296576928,
170,Trial # 171,layer9-17_O1_to_O7.jpg,layer9-17/layer9-17_O1_to_O7.jpg,OO,layer9-17,,,,,0.0,20.0,20.0,20.0,,,,,1357.0144657359924,None,4.0,3.4634003329556435,1357.0144657359924,None,1357.0144657359924,None,1357.0144657359924,None,1,2022_Apr_19_1402,Semantic-hierachy,2021.1.2,60.24369296576928,
171,Trial # 172,layer0-5_T12_to_T4.jpg,layer0-5/layer0-5_T12_to_T4.jpg,TT,layer0-5,,,,,0.0,21.0,21.0,21.0,,,,,1360.8657561850268,None,1.0,2.84718781709671,1360.8657561850268,None,1360.8657561850268,None,1360.8657561850268,None,1,2022_Apr_19_1402,Semantic-hierachy,2021.1.2,60.24369296576928,
172,Trial # 173,layer0-5_O4_to_T4.jpg,layer0-5/layer0-5_O4_to_T4.jpg,OT,layer0-5,,,,,0.0,22.0,22.0,22.0,,,,,1364.184234653134,None,1.0,3.6789108738303193,1364.184234653134,None,1364.184234653134,None,1364.184234653134,None,1,2022_Apr_19_1402,Semantic-hierachy,2021.1.2,60.24369296576928,
173,Trial # 174,layer6-8_T12_to_T5.jpg,layer6-8/layer6-8_T12_to_T5.jpg,TT,layer6-8,,,,,0.0,23.0,23.0,23.0,,,,,1368.318033694988,None,4.0,16.16516926791519,1368.318033694988,None,1368.318033694988,None,1368.318033694988,None,1,2022_Apr_19_1402,Semantic-hierachy,2021.1.2,60.24369296576928,
174,Trial # 175,layer6-8_O11_to_T1.jpg,layer6-8/layer6-8_O11_to_T1.jpg,OT,layer6-8,,,,,0.0,24.0,24.0,24.0,,,,,1386.7898355000652,None,4.0,6.3718997980467975,1386.7898355000652,None,1386.7898355000652,None,1386.7898355000652,None,1,2022_Apr_19_1402,Semantic-hierachy,2021.1.2,60.24369296576928,
175,Trial # 176,layer0-5_O7_to_T8.jpg,layer0-5/layer0-5_O7_to_T8.jpg,OT,layer0-5,,,,,0.0,25.0,25.0,25.0,,,,,1393.726232802961,None,1.0,2.3080880709458143,1393.726232802961,None,1393.726232802961,None,1393.726232802961,None,1,2022_Apr_19_1402,Semantic-hierachy,2021.1.2,60.24369296576928,
176,Trial # 177,layer0-5_O11_to_T5.jpg,layer0-5/layer0-5_O11_to_T5.jpg,OT,layer0-5,,,,,0.0,26.0,26.0,26.0,,,,,1396.5436806110663,None,1.0,1.4999376330524683,1396.5436806110663,None,1396.5436806110663,None,1396.5436806110663,None,1,2022_Apr_19_1402,Semantic-hierachy,2021.1.2,60.24369296576928,
177,Trial # 178,layer9-17_O2_to_T2.jpg,layer9-17/layer9-17_O2_to_T2.jpg,OT,layer9-17,,,,,0.0,27.0,27.0,27.0,,,,,1398.4116828429978,None,4.0,4.109918222064152,1398.4116828429978,None,1398.4116828429978,None,1398.4116828429978,None,1,2022_Apr_19_1402,Semantic-hierachy,2021.1.2,60.24369296576928,
178,Trial # 179,layer0-5_O4_to_T9.jpg,layer0-5/layer0-5_O4_to_T9.jpg,OT,layer0-5,,,,,0.0,28.0,28.0,28.0,,,,,1402.9952655120287,None,1.0,1.53111280198209,1402.9952655120287,None,1402.9952655120287,None,1402.9952655120287,None,1,2022_Apr_19_1402,Semantic-hierachy,2021.1.2,60.24369296576928,
179,Trial # 180,layer9-17_T6_to_T8.jpg,layer9-17/layer9-17_T6_to_T8.jpg,TT,layer9-17,,,,,0.0,29.0,29.0,29.0,,,,,1404.979213975137,None,2.0,1.5892390699591488,1404.979213975137,None,1404.979213975137,None,1404.979213975137,None,1,2022_Apr_19_1402,Semantic-hierachy,2021.1.2,60.24369296576928,
180,Trial # 181,layer9-17_O12_to_O5.jpg,layer9-17/layer9-17_O12_to_O5.jpg,OO,layer9-17,,,,,0.0,30.0,30.0,30.0,,,,,1406.9464400100987,None,2.0,1.6753516260068864,1406.9464400100987,None,1406.9464400100987,None,1406.9464400100987,None,1,2022_Apr_19_1402,Semantic-hierachy,2021.1.2,60.24369296576928,
181,Trial # 182,layer6-8_O1_to_O7.jpg,layer6-8/layer6-8_O1_to_O7.jpg,OO,layer6-8,,,,,0.0,31.0,31.0,31.0,,,,,1409.031426501926,None,4.0,2.67748060496524,1409.031426501926,None,1409.031426501926,None,1409.031426501926,None,1,2022_Apr_19_1402,Semantic-hierachy,2021.1.2,60.24369296576928,
182,Trial # 183,layer6-8_O3_to_T10.jpg,layer6-8/layer6-8_O3_to_T10.jpg,OT,layer6-8,,,,,0.0,32.0,32.0,32.0,,,,,1412.214341307059,None,3.0,1.909456165973097,1412.214341307059,None,1412.214341307059,None,1412.214341307059,None,1,2022_Apr_19_1402,Semantic-hierachy,2021.1.2,60.24369296576928,
183,Trial # 184,layer0-5_O1_to_T11.jpg,layer0-5/layer0-5_O1_to_T11.jpg,OT,layer0-5,,,,,0.0,33.0,33.0,33.0,,,,,1414.832104739966,None,1.0,1.6268232599832118,1414.832104739966,None,1414.832104739966,None,1414.832104739966,None,1,2022_Apr_19_1402,Semantic-hierachy,2021.1.2,60.24369296576928,
184,Trial # 185,layer6-8_O8_to_O9.jpg,layer6-8/layer6-8_O8_to_O9.jpg,OO,layer6-8,,,,,0.0,34.0,34.0,34.0,,,,,1416.933274727082,None,3.0,8.527158695971593,1416.933274727082,None,1416.933274727082,None,1416.933274727082,None,1,2022_Apr_19_1402,Semantic-hierachy,2021.1.2,60.24369296576928,
185,Trial # 186,layer9-17_O4_to_O9.jpg,layer9-17/layer9-17_O4_to_O9.jpg,OO,layer9-17,,,,,0.0,35.0,35.0,35.0,,,,,1426.235683175968,None,4.0,3.05828542704694,1426.235683175968,None,1426.235683175968,None,1426.235683175968,None,1,2022_Apr_19_1402,Semantic-hierachy,2021.1.2,60.24369296576928,
186,Trial # 187,layer0-5_O12_to_O5.jpg,layer0-5/layer0-5_O12_to_O5.jpg,OO,layer0-5,,,,,0.0,36.0,36.0,36.0,,,,,1430.4203707759734,None,1.0,1.781120948959142,1430.4203707759734,None,1430.4203707759734,None,1430.4203707759734,None,1,2022_Apr_19_1402,Semantic-hierachy,2021.1.2,60.24369296576928,
187,Trial # 188,layer6-8_T12_to_T4.jpg,layer6-8/layer6-8_T12_to_T4.jpg,TT,layer6-8,,,,,0.0,37.0,37.0,37.0,,,,,1432.670539136976,None,4.0,6.797616977011785,1432.670539136976,None,1432.670539136976,None,1432.670539136976,None,1,2022_Apr_19_1402,Semantic-hierachy,2021.1.2,60.24369296576928,
188,Trial # 189,layer0-5_T6_to_T8.jpg,layer0-5/layer0-5_T6_to_T8.jpg,TT,layer0-5,,,,,0.0,38.0,38.0,38.0,,,,,1439.9402370739265,None,1.0,1.4919023141264915,1439.9402370739265,None,1439.9402370739265,None,1439.9402370739265,None,1,2022_Apr_19_1402,Semantic-hierachy,2021.1.2,60.24369296576928,
189,Trial # 190,layer6-8_O11_to_T2.jpg,layer6-8/layer6-8_O11_to_T2.jpg,OT,layer6-8,,,,,0.0,39.0,39.0,39.0,,,,,1441.8072466310114,None,2.0,8.174368671141565,1441.8072466310114,None,1441.8072466310114,None,1441.8072466310114,None,1,2022_Apr_19_1402,Semantic-hierachy,2021.1.2,60.24369296576928,
190,Trial # 191,layer6-8_O1_to_O3.jpg,layer6-8/layer6-8_O1_to_O3.jpg,OO,layer6-8,,,,,0.0,40.0,40.0,40.0,,,,,1450.4770320190582,None,4.0,3.025240689050406,1450.4770320190582,None,1450.4770320190582,None,1450.4770320190582,None,1,2022_Apr_19_1402,Semantic-hierachy,2021.1.2,60.24369296576928,
191,Trial # 192,layer0-5_O7_to_T1.jpg,layer0-5/layer0-5_O7_to_T1.jpg,OT,layer0-5,,,,,0.0,41.0,41.0,41.0,,,,,1455.344335060101,None,1.0,1.426931892056018,1455.344335060101,None,1455.344335060101,None,1455.344335060101,None,1,2022_Apr_19_1402,Semantic-hierachy,2021.1.2,60.24369296576928,
192,Trial # 193,layer6-8_O3_to_T7.jpg,layer6-8/layer6-8_O3_to_T7.jpg,OT,layer6-8,,,,,0.0,42.0,42.0,42.0,,,,,1457.2783305649646,None,3.0,2.89813883905299,1457.2783305649646,None,1457.2783305649646,None,1457.2783305649646,None,1,2022_Apr_19_1402,Semantic-hierachy,2021.1.2,60.24369296576928,
193,Trial # 194,layer9-17_T10_to_T6.jpg,layer9-17/layer9-17_T10_to_T6.jpg,TT,layer9-17,,,,,0.0,43.0,43.0,43.0,,,,,1460.5294326599687,None,2.0,1.610091921873391,1460.5294326599687,None,1460.5294326599687,None,1460.5294326599687,None,1,2022_Apr_19_1402,Semantic-hierachy,2021.1.2,60.24369296576928,
194,Trial # 195,layer6-8_T2_to_T9.jpg,layer6-8/layer6-8_T2_to_T9.jpg,TT,layer6-8,,,,,0.0,44.0,44.0,44.0,,,,,1462.913123578066,None,4.0,3.99217750900425,1462.913123578066,None,1462.913123578066,None,1462.913123578066,None,1,2022_Apr_19_1402,Semantic-hierachy,2021.1.2,60.24369296576928,
195,Trial # 196,layer0-5_O3_to_T3.jpg,layer0-5/layer0-5_O3_to_T3.jpg,OT,layer0-5,,,,,0.0,45.0,45.0,45.0,,,,,1467.348167232005,None,1.0,7.591082344995812,1467.348167232005,None,1467.348167232005,None,1467.348167232005,None,1,2022_Apr_19_1402,Semantic-hierachy,2021.1.2,60.24369296576928,
196,Trial # 197,layer9-17_O1_to_O2.jpg,layer9-17/layer9-17_O1_to_O2.jpg,OO,layer9-17,,,,,0.0,46.0,46.0,46.0,,,,,1482.019223536132,None,4.0,8.961070710094646,1482.019223536132,None,1482.019223536132,None,1482.019223536132,None,1,2022_Apr_19_1402,Semantic-hierachy,2021.1.2,60.24369296576928,
197,Trial # 198,layer9-17_T2_to_T9.jpg,layer9-17/layer9-17_T2_to_T9.jpg,TT,layer9-17,,,,,0.0,47.0,47.0,47.0,,,,,1499.4084727771117,None,2.0,2.163517474895343,1499.4084727771117,None,1499.4084727771117,None,1499.4084727771117,None,1,2022_Apr_19_1402,Semantic-hierachy,2021.1.2,60.24369296576928,
198,Trial # 199,layer9-17_O6_to_T10.jpg,layer9-17/layer9-17_O6_to_T10.jpg,OT,layer9-17,,,,,0.0,48.0,48.0,48.0,,,,,1501.9755745730365,None,2.0,1.3748446239624172,1501.9755745730365,None,1501.9755745730365,None,1501.9755745730365,None,1,2022_Apr_19_1402,Semantic-hierachy,2021.1.2,60.24369296576928,
199,Trial # 200,layer0-5_T12_to_T5.jpg,layer0-5/layer0-5_T12_to_T5.jpg,TT,layer0-5,,,,,0.0,49.0,49.0,49.0,,,,,1503.6930582700295,None,1.0,1.7975248580332843,1503.6930582700295,None,1503.6930582700295,None,1503.6930582700295,None,1,2022_Apr_19_1402,Semantic-hierachy,2021.1.2,60.24369296576928,
200,Trial # 201,layer0-5_O10_to_T10.jpg,layer0-5/layer0-5_O10_to_T10.jpg,OT,layer0-5,,,,,0.0,50.0,50.0,50.0,,,,,1505.8264782160986,None,1.0,16.67767784721218,1505.8264782160986,None,1505.8264782160986,None,1505.8264782160986,None,1,2022_Apr_19_1402,Semantic-hierachy,2021.1.2,60.24369296576928,
201,Trial # 202,layer9-17_T11_to_T12.jpg,layer9-17/layer9-17_T11_to_T12.jpg,TT,layer9-17,,,,,0.0,51.0,51.0,51.0,,,,,1523.2998778889887,None,2.0,1.9598967258352784,1523.2998778889887,None,1523.2998778889887,None,1523.2998778889887,None,1,2022_Apr_19_1402,Semantic-hierachy,2021.1.2,60.24369296576928,
202,Trial # 203,layer6-8_T3_to_T5.jpg,layer6-8/layer6-8_T3_to_T5.jpg,TT,layer6-8,,,,,0.0,52.0,52.0,52.0,,,,,1525.6003703661263,None,4.0,4.388168609002605,1525.6003703661263,None,1525.6003703661263,None,1525.6003703661263,None,1,2022_Apr_19_1402,Semantic-hierachy,2021.1.2,60.24369296576928,
203,Trial # 204,layer0-5_O5_to_T10.jpg,layer0-5/layer0-5_O5_to_T10.jpg,OT,layer0-5,,,,,0.0,53.0,53.0,53.0,,,,,1530.7846262089442,None,1.0,3.2264868412166834,1530.7846262089442,None,1530.7846262089442,None,1530.7846262089442,None,1,2022_Apr_19_1402,Semantic-hierachy,2021.1.2,60.24369296576928,
204,Trial # 205,layer0-5_O10_to_O5.jpg,layer0-5/layer0-5_O10_to_O5.jpg,OO,layer0-5,,,,,0.0,54.0,54.0,54.0,,,,,1534.7363365229685,None,1.0,3.450138530926779,1534.7363365229685,None,1534.7363365229685,None,1534.7363365229685,None,1,2022_Apr_19_1402,Semantic-hierachy,2021.1.2,60.24369296576928,
205,Trial # 206,layer0-5_O5_to_O7.jpg,layer0-5/layer0-5_O5_to_O7.jpg,OO,layer0-5,,,,,0.0,55.0,55.0,55.0,,,,,1539.3042421559803,None,1.0,1.6642199920024725,1539.3042421559803,None,1539.3042421559803,None,1539.3042421559803,None,1,2022_Apr_19_1402,Semantic-hierachy,2021.1.2,60.24369296576928,
206,Trial # 207,layer0-5_O3_to_T10.jpg,layer0-5/layer0-5_O3_to_T10.jpg,OT,layer0-5,,,,,0.0,56.0,56.0,56.0,,,,,1541.5046907940414,None,1.0,4.177712557138875,1541.5046907940414,None,1541.5046907940414,None,1541.5046907940414,None,1,2022_Apr_19_1402,Semantic-hierachy,2021.1.2,60.24369296576928,
207,Trial # 208,layer0-5_O4_to_O5.jpg,layer0-5/layer0-5_O4_to_O5.jpg,OO,layer0-5,,,,,0.0,57.0,57.0,57.0,,,,,1546.1059699670875,None,1.0,1.7910925669129938,1546.1059699670875,None,1546.1059699670875,None,1546.1059699670875,None,1,2022_Apr_19_1402,Semantic-hierachy,2021.1.2,60.24369296576928,
208,Trial # 209,layer6-8_T12_to_T3.jpg,layer6-8/layer6-8_T12_to_T3.jpg,TT,layer6-8,,,,,0.0,58.0,58.0,58.0,,,,,1548.7239862789866,None,4.0,2.757367904065177,1548.7239862789866,None,1548.7239862789866,None,1548.7239862789866,None,1,2022_Apr_19_1402,Semantic-hierachy,2021.1.2,60.24369296576928,
209,Trial # 210,layer6-8_O7_to_T9.jpg,layer6-8/layer6-8_O7_to_T9.jpg,OT,layer6-8,,,,,0.0,59.0,59.0,59.0,,,,,1552.8418974680826,None,3.0,3.3133256940636784,1552.8418974680826,None,1552.8418974680826,None,1552.8418974680826,None,1,2022_Apr_19_1402,Semantic-hierachy,2021.1.2,60.24369296576928,
210,Trial # 211,layer6-8_O1_to_O11.jpg,layer6-8/layer6-8_O1_to_O11.jpg,OO,layer6-8,,,,,0.0,60.0,60.0,60.0,,,,,1558.2931831709575,None,3.0,8.042282721959054,1558.2931831709575,None,1558.2931831709575,None,1558.2931831709575,None,1,2022_Apr_19_1402,Semantic-hierachy,2021.1.2,60.24369296576928,
211,Trial # 212,layer6-8_T2_to_T6.jpg,layer6-8/layer6-8_T2_to_T6.jpg,TT,layer6-8,,,,,0.0,61.0,61.0,61.0,,,,,1567.0959738399831,None,4.0,2.60785540798679,1567.0959738399831,None,1567.0959738399831,None,1567.0959738399831,None,1,2022_Apr_19_1402,Semantic-hierachy,2021.1.2,60.24369296576928,
212,Trial # 213,layer6-8_O10_to_O6.jpg,layer6-8/layer6-8_O10_to_O6.jpg,OO,layer6-8,,,,,0.0,62.0,62.0,62.0,,,,,1570.8639837449882,None,4.0,2.187241972889751,1570.8639837449882,None,1570.8639837449882,None,1570.8639837449882,None,1,2022_Apr_19_1402,Semantic-hierachy,2021.1.2,60.24369296576928,
213,Trial # 214,layer9-17_T5_to_T8.jpg,layer9-17/layer9-17_T5_to_T8.jpg,TT,layer9-17,,,,,0.0,63.0,63.0,63.0,,,,,1574.1149899531156,None,2.0,1.7087391950190067,1574.1149899531156,None,1574.1149899531156,None,1574.1149899531156,None,1,2022_Apr_19_1402,Semantic-hierachy,2021.1.2,60.24369296576928,
214,Trial # 215,layer9-17_O3_to_T10.jpg,layer9-17/layer9-17_O3_to_T10.jpg,OT,layer9-17,,,,,0.0,64.0,64.0,64.0,,,,,1576.2151009021327,None,2.0,1.6759603549726307,1576.2151009021327,None,1576.2151009021327,None,1576.2151009021327,None,1,2022_Apr_19_1402,Semantic-hierachy,2021.1.2,60.24369296576928,
215,Trial # 216,layer6-8_O12_to_O3.jpg,layer6-8/layer6-8_O12_to_O3.jpg,OO,layer6-8,,,,,0.0,65.0,65.0,65.0,,,,,1578.2994202920236,None,4.0,8.226299436064437,1578.2994202920236,None,1578.2994202920236,None,1578.2994202920236,None,1,2022_Apr_19_1402,Semantic-hierachy,2021.1.2,60.24369296576928,
216,Trial # 217,layer0-5_T10_to_T2.jpg,layer0-5/layer0-5_T10_to_T2.jpg,TT,layer0-5,,,,,0.0,66.0,66.0,66.0,,,,,1586.918141209986,None,1.0,3.2246498169843107,1586.918141209986,None,1586.918141209986,None,1586.918141209986,None,1,2022_Apr_19_1402,Semantic-hierachy,2021.1.2,60.24369296576928,
217,Trial # 218,layer9-17_O10_to_O6.jpg,layer9-17/layer9-17_O10_to_O6.jpg,OO,layer9-17,,,,,0.0,67.0,67.0,67.0,,,,,1590.7042505799327,None,4.0,23.07998021203093,1590.7042505799327,None,1590.7042505799327,None,1590.7042505799327,None,1,2022_Apr_19_1402,Semantic-hierachy,2021.1.2,60.24369296576928,
218,Trial # 219,layer6-8_O6_to_O9.jpg,layer6-8/layer6-8_O6_to_O9.jpg,OO,layer6-8,,,,,0.0,68.0,68.0,68.0,,,,,1614.177891818108,None,3.0,4.509098498150706,1614.177891818108,None,1614.177891818108,None,1614.177891818108,None,1,2022_Apr_19_1402,Semantic-hierachy,2021.1.2,60.24369296576928,
219,Trial # 220,layer0-5_O7_to_T2.jpg,layer0-5/layer0-5_O7_to_T2.jpg,OT,layer0-5,,,,,0.0,69.0,69.0,69.0,,,,,1619.0463672990445,None,1.0,1.5573983029462397,1619.0463672990445,None,1619.0463672990445,None,1619.0463672990445,None,1,2022_Apr_19_1402,Semantic-hierachy,2021.1.2,60.24369296576928,
220,Trial # 221,layer9-17_T12_to_T2.jpg,layer9-17/layer9-17_T12_to_T2.jpg,TT,layer9-17,,,,,0.0,70.0,70.0,70.0,,,,,1621.0132804920431,None,2.0,6.606041528051719,1621.0132804920431,None,1621.0132804920431,None,1621.0132804920431,None,1,2022_Apr_19_1402,Semantic-hierachy,2021.1.2,60.24369296576928,
221,Trial # 222,layer9-17_O8_to_T11.jpg,layer9-17/layer9-17_O8_to_T11.jpg,OT,layer9-17,,,,,0.0,71.0,71.0,71.0,,,,,1628.6488432099577,None,4.0,4.792608404997736,1628.6488432099577,None,1628.6488432099577,None,1628.6488432099577,None,1,2022_Apr_19_1402,Semantic-hierachy,2021.1.2,60.24369296576928,
222,Trial # 223,layer6-8_O3_to_T9.jpg,layer6-8/layer6-8_O3_to_T9.jpg,OT,layer6-8,,,,,0.0,72.0,72.0,72.0,,,,,1634.333375587128,None,3.0,1.9448753469623623,1634.333375587128,None,1634.333375587128,None,1634.333375587128,None,1,2022_Apr_19_1402,Semantic-hierachy,2021.1.2,60.24369296576928,
223,Trial # 224,layer0-5_O6_to_O9.jpg,layer0-5/layer0-5_O6_to_O9.jpg,OO,layer0-5,,,,,0.0,73.0,73.0,73.0,,,,,1636.8340680119582,None,1.0,1.7317688970360905,1636.8340680119582,None,1636.8340680119582,None,1636.8340680119582,None,1,2022_Apr_19_1402,Semantic-hierachy,2021.1.2,60.24369296576928,
224,Trial # 225,layer0-5_O12_to_T1.jpg,layer0-5/layer0-5_O12_to_T1.jpg,OT,layer0-5,,,,,0.0,74.0,74.0,74.0,,,,,1639.001665120013,None,1.0,1.7120632901787758,1639.001665120013,None,1639.001665120013,None,1639.001665120013,None,1,2022_Apr_19_1402,Semantic-hierachy,2021.1.2,60.24369296576928,
225,Trial # 226,layer9-17_O2_to_T8.jpg,layer9-17/layer9-17_O2_to_T8.jpg,OT,layer9-17,,,,,0.0,75.0,75.0,75.0,,,,,1641.1350544290617,None,2.0,1.8229231799487025,1641.1350544290617,None,1641.1350544290617,None,1641.1350544290617,None,1,2022_Apr_19_1402,Semantic-hierachy,2021.1.2,60.24369296576928,
226,Trial # 227,layer0-5_T4_to_T8.jpg,layer0-5/layer0-5_T4_to_T8.jpg,TT,layer0-5,,,,,0.0,76.0,76.0,76.0,,,,,1643.9203141951002,None,1.0,1.6932470339816064,1643.9203141951002,None,1643.9203141951002,None,1643.9203141951002,None,1,2022_Apr_19_1402,Semantic-hierachy,2021.1.2,60.24369296576928,
227,Trial # 228,layer9-17_O2_to_T1.jpg,layer9-17/layer9-17_O2_to_T1.jpg,OT,layer9-17,,,,,0.0,77.0,77.0,77.0,,,,,1645.93652539514,None,4.0,2.2065828640479594,1645.93652539514,None,1645.93652539514,None,1645.93652539514,None,1,2022_Apr_19_1402,Semantic-hierachy,2021.1.2,60.24369296576928,
228,Trial # 229,layer0-5_O11_to_O7.jpg,layer0-5/layer0-5_O11_to_O7.jpg,OO,layer0-5,,,,,0.0,78.0,78.0,78.0,,,,,1649.2883331221528,None,1.0,3.524338354822248,1649.2883331221528,None,1649.2883331221528,None,1649.2883331221528,None,1,2022_Apr_19_1402,Semantic-hierachy,2021.1.2,60.24369296576928,
229,Trial # 230,layer6-8_T2_to_T8.jpg,layer6-8/layer6-8_T2_to_T8.jpg,TT,layer6-8,,,,,0.0,79.0,79.0,79.0,,,,,1653.2056275610812,None,3.0,2.123477666871622,1653.2056275610812,None,1653.2056275610812,None,1653.2056275610812,None,1,2022_Apr_19_1402,Semantic-hierachy,2021.1.2,60.24369296576928,
230,Trial # 231,layer9-17_T4_to_T8.jpg,layer9-17/layer9-17_T4_to_T8.jpg,TT,layer9-17,,,,,0.0,80.0,80.0,80.0,,,,,1662.5587223961484,None,2.0,1.3938204529695213,1662.5587223961484,None,1662.5587223961484,None,1662.5587223961484,None,1,2022_Apr_19_1402,Semantic-hierachy,2021.1.2,60.24369296576928,
231,Trial # 232,layer9-17_T11_to_T3.jpg,layer9-17/layer9-17_T11_to_T3.jpg,TT,layer9-17,,,,,0.0,81.0,81.0,81.0,,,,,1664.310331473127,None,2.0,1.564925157930702,1664.310331473127,None,1664.310331473127,None,1664.310331473127,None,1,2022_Apr_19_1402,Semantic-hierachy,2021.1.2,60.24369296576928,
232,Trial # 233,layer0-5_O3_to_T9.jpg,layer0-5/layer0-5_O3_to_T9.jpg,OT,layer0-5,,,,,0.0,82.0,82.0,82.0,,,,,1666.2764792200178,None,1.0,1.808066305005923,1666.2764792200178,None,1666.2764792200178,None,1666.2764792200178,None,1,2022_Apr_19_1402,Semantic-hierachy,2021.1.2,60.24369296576928,
233,Trial # 234,layer9-17_T7_to_T8.jpg,layer9-17/layer9-17_T7_to_T8.jpg,TT,layer9-17,,,,,0.0,83.0,83.0,83.0,,,,,1668.4949891611468,None,4.0,6.164787139045075,1668.4949891611468,None,1668.4949891611468,None,1668.4949891611468,None,1,2022_Apr_19_1402,Semantic-hierachy,2021.1.2,60.24369296576928,
234,Trial # 235,layer9-17_O3_to_O4.jpg,layer9-17/layer9-17_O3_to_O4.jpg,OO,layer9-17,,,,,0.0,84.0,84.0,84.0,,,,,1675.6306394841522,None,2.0,1.4453011949080974,1675.6306394841522,None,1675.6306394841522,None,1675.6306394841522,None,1,2022_Apr_19_1402,Semantic-hierachy,2021.1.2,60.24369296576928,
235,Trial # 236,layer6-8_O8_to_T6.jpg,layer6-8/layer6-8_O8_to_T6.jpg,OT,layer6-8,,,,,0.0,85.0,85.0,85.0,,,,,1677.7294984241016,None,3.0,2.3917180839926004,1677.7294984241016,None,1677.7294984241016,None,1677.7294984241016,None,1,2022_Apr_19_1402,Semantic-hierachy,2021.1.2,60.24369296576928,
236,Trial # 237,layer9-17_T6_to_T7.jpg,layer9-17/layer9-17_T6_to_T7.jpg,TT,layer9-17,,,,,0.0,86.0,86.0,86.0,,,,,1680.9147874200717,None,2.0,1.3802848390769211,1680.9147874200717,None,1680.9147874200717,None,1680.9147874200717,None,1,2022_Apr_19_1402,Semantic-hierachy,2021.1.2,60.24369296576928,
237,Trial # 238,layer0-5_T2_to_T9.jpg,layer0-5/layer0-5_T2_to_T9.jpg,TT,layer0-5,,,,,0.0,87.0,87.0,87.0,,,,,1682.8308031260967,None,1.0,1.5999547680839896,1682.8308031260967,None,1682.8308031260967,None,1682.8308031260967,None,1,2022_Apr_19_1402,Semantic-hierachy,2021.1.2,60.24369296576928,
238,Trial # 239,layer0-5_O2_to_O5.jpg,layer0-5/layer0-5_O2_to_O5.jpg,OO,layer0-5,,,,,0.0,88.0,88.0,88.0,,,,,1684.8654629450757,None,1.0,4.142262222943828,1684.8654629450757,None,1684.8654629450757,None,1684.8654629450757,None,1,2022_Apr_19_1402,Semantic-hierachy,2021.1.2,60.24369296576928,
239,Trial # 240,layer6-8_O1_to_O5.jpg,layer6-8/layer6-8_O1_to_O5.jpg,OO,layer6-8,,,,,0.0,89.0,89.0,89.0,,,,,1689.4173816361,None,4.0,2.5216352688148618,1689.4173816361,None,1689.4173816361,None,1689.4173816361,None,1,2022_Apr_19_1402,Semantic-hierachy,2021.1.2,60.24369296576928,
240,Trial # 241,layer9-17_O3_to_O7.jpg,layer9-17/layer9-17_O3_to_O7.jpg,OO,layer9-17,,,,,0.0,90.0,90.0,90.0,,,,,1692.384546282934,None,2.0,1.3969492479227483,1692.384546282934,None,1692.384546282934,None,1692.384546282934,None,1,2022_Apr_19_1402,Semantic-hierachy,2021.1.2,60.24369296576928,
241,Trial # 242,layer6-8_O11_to_O8.jpg,layer6-8/layer6-8_O11_to_O8.jpg,OO,layer6-8,,,,,0.0,91.0,91.0,91.0,,,,,1694.2690093319395,None,2.0,14.725672845961526,1694.2690093319395,None,1694.2690093319395,None,1694.2690093319395,None,1,2022_Apr_19_1402,Semantic-hierachy,2021.1.2,60.24369296576928,
242,Trial # 243,layer9-17_T1_to_T12.jpg,layer9-17/layer9-17_T1_to_T12.jpg,TT,layer9-17,,,,,0.0,92.0,92.0,92.0,,,,,1709.524116456043,None,2.0,1.3892437589820474,1709.524116456043,None,1709.524116456043,None,1709.524116456043,None,1,2022_Apr_19_1402,Semantic-hierachy,2021.1.2,60.24369296576928,
243,Trial # 244,layer9-17_O6_to_O8.jpg,layer9-17/layer9-17_O6_to_O8.jpg,OO,layer9-17,,,,,0.0,93.0,93.0,93.0,,,,,1711.2902060891502,None,4.0,1.9921897510066628,1711.2902060891502,None,1711.2902060891502,None,1711.2902060891502,None,1,2022_Apr_19_1402,Semantic-hierachy,2021.1.2,60.24369296576928,
244,Trial # 245,layer6-8_O4_to_T11.jpg,layer6-8/layer6-8_O4_to_T11.jpg,OT,layer6-8,,,,,0.0,94.0,94.0,94.0,,,,,1717.1917369640432,None,3.0,1.856564711080864,1717.1917369640432,None,1717.1917369640432,None,1717.1917369640432,None,1,2022_Apr_19_1402,Semantic-hierachy,2021.1.2,60.24369296576928,
245,Trial # 246,layer9-17_T10_to_T3.jpg,layer9-17/layer9-17_T10_to_T3.jpg,TT,layer9-17,,,,,0.0,95.0,95.0,95.0,,,,,1719.4270836771466,None,2.0,1.734502445906401,1719.4270836771466,None,1719.4270836771466,None,1719.4270836771466,None,1,2022_Apr_19_1402,Semantic-hierachy,2021.1.2,60.24369296576928,
246,Trial # 247,layer0-5_O10_to_O8.jpg,layer0-5/layer0-5_O10_to_O8.jpg,OO,layer0-5,,,,,0.0,96.0,96.0,96.0,,,,,1721.5444811161142,None,1.0,1.4126295312307775,1721.5444811161142,None,1721.5444811161142,None,1721.5444811161142,None,1,2022_Apr_19_1402,Semantic-hierachy,2021.1.2,60.24369296576928,
247,Trial # 248,layer6-8_O3_to_T12.jpg,layer6-8/layer6-8_O3_to_T12.jpg,OT,layer6-8,,,,,0.0,97.0,97.0,97.0,,,,,1723.4121119310148,None,3.0,1.7802482550032437,1723.4121119310148,None,1723.4121119310148,None,1723.4121119310148,None,1,2022_Apr_19_1402,Semantic-hierachy,2021.1.2,60.24369296576928,
248,Trial # 249,layer0-5_O12_to_T9.jpg,layer0-5/layer0-5_O12_to_T9.jpg,OT,layer0-5,,,,,0.0,98.0,98.0,98.0,,,,,1725.6117249140516,None,1.0,2.080676920944825,1725.6117249140516,None,1725.6117249140516,None,1725.6117249140516,None,1,2022_Apr_19_1402,Semantic-hierachy,2021.1.2,60.24369296576928,
249,Trial # 250,layer9-17_T1_to_T9.jpg,layer9-17/layer9-17_T1_to_T9.jpg,TT,layer9-17,,,,,0.0,99.0,99.0,99.0,,,,,1728.0291166801471,None,4.0,1.8550020249094812,1728.0291166801471,None,1728.0291166801471,None,1728.0291166801471,None,1,2022_Apr_19_1402,Semantic-hierachy,2021.1.2,60.24369296576928,
250,Trial # 251,layer9-17_T11_to_T8.jpg,layer9-17/layer9-17_T11_to_T8.jpg,TT,layer9-17,,,,,0.0,100.0,100.0,100.0,,,,,1732.146656516008,None,2.0,1.3933345889672637,1732.146656516008,None,1732.146656516008,None,1732.146656516008,None,1,2022_Apr_19_1402,Semantic-hierachy,2021.1.2,60.24369296576928,
251,Trial # 252,layer9-17_T11_to_T5.jpg,layer9-17/layer9-17_T11_to_T5.jpg,TT,layer9-17,,,,,0.0,101.0,101.0,101.0,,,,,1733.8811352630146,None,3.0,4.966397265903652,1733.8811352630146,None,1733.8811352630146,None,1733.8811352630146,None,1,2022_Apr_19_1402,Semantic-hierachy,2021.1.2,60.24369296576928,
252,Trial # 253,layer6-8_T10_to_T12.jpg,layer6-8/layer6-8_T10_to_T12.jpg,TT,layer6-8,,,,,0.0,102.0,102.0,102.0,,,,,1739.6324474189896,None,4.0,3.6927606279496095,1739.6324474189896,None,1739.6324474189896,None,1739.6324474189896,None,1,2022_Apr_19_1402,Semantic-hierachy,2021.1.2,60.24369296576928,
253,Trial # 254,layer9-17_O5_to_T1.jpg,layer9-17/layer9-17_O5_to_T1.jpg,OT,layer9-17,,,,,0.0,103.0,103.0,103.0,,,,,1744.034738317132,None,2.0,3.142301889834925,1744.034738317132,None,1744.034738317132,None,1744.034738317132,None,1,2022_Apr_19_1402,Semantic-hierachy,2021.1.2,60.24369296576928,
254,Trial # 255,layer6-8_T2_to_T3.jpg,layer6-8/layer6-8_T2_to_T3.jpg,TT,layer6-8,,,,,0.0,104.0,104.0,104.0,,,,,1747.6846154399682,None,3.0,12.200518035097048,1747.6846154399682,None,1747.6846154399682,None,1747.6846154399682,None,1,2022_Apr_19_1402,Semantic-hierachy,2021.1.2,60.24369296576928,
255,Trial # 256,layer6-8_O2_to_T6.jpg,layer6-8/layer6-8_O2_to_T6.jpg,OT,layer6-8,,,,,0.0,105.0,105.0,105.0,,,,,1760.388819542015,None,3.0,4.02998296986334,1760.388819542015,None,1760.388819542015,None,1760.388819542015,None,1,2022_Apr_19_1402,Semantic-hierachy,2021.1.2,60.24369296576928,
256,Trial # 257,layer6-8_T11_to_T9.jpg,layer6-8/layer6-8_T11_to_T9.jpg,TT,layer6-8,,,,,0.0,106.0,106.0,106.0,,,,,1764.8238697031047,None,4.0,4.273895469028503,1764.8238697031047,None,1764.8238697031047,None,1764.8238697031047,None,1,2022_Apr_19_1402,Semantic-hierachy,2021.1.2,60.24369296576928,
257,Trial # 258,layer6-8_O5_to_T9.jpg,layer6-8/layer6-8_O5_to_T9.jpg,OT,layer6-8,,,,,0.0,107.0,107.0,107.0,,,,,1769.742367450148,None,3.0,2.8235328609589487,1769.742367450148,None,1769.742367450148,None,1769.742367450148,None,1,2022_Apr_19_1402,Semantic-hierachy,2021.1.2,60.24369296576928,
258,Trial # 259,layer6-8_O9_to_T8.jpg,layer6-8/layer6-8_O9_to_T8.jpg,OT,layer6-8,,,,,0.0,108.0,108.0,108.0,,,,,1773.0099821139593,None,3.0,2.2633045411203057,1773.0099821139593,None,1773.0099821139593,None,1773.0099821139593,None,1,2022_Apr_19_1402,Semantic-hierachy,2021.1.2,60.24369296576928,
259,Trial # 260,layer6-8_T1_to_T5.jpg,layer6-8/layer6-8_T1_to_T5.jpg,TT,layer6-8,,,,,0.0,109.0,109.0,109.0,,,,,1775.87697354611,None,4.0,2.4028226980008185,1775.87697354611,None,1775.87697354611,None,1775.87697354611,None,1,2022_Apr_19_1402,Semantic-hierachy,2021.1.2,60.24369296576928,
260,Trial # 261,layer0-5_O11_to_T2.jpg,layer0-5/layer0-5_O11_to_T2.jpg,OT,layer0-5,,,,,0.0,110.0,110.0,110.0,,,,,1778.79468035209,None,1.0,2.3211410439107567,1778.79468035209,None,1778.79468035209,None,1778.79468035209,None,1,2022_Apr_19_1402,Semantic-hierachy,2021.1.2,60.24369296576928,
261,Trial # 262,layer0-5_O7_to_T4.jpg,layer0-5/layer0-5_O7_to_T4.jpg,OT,layer0-5,,,,,0.0,111.0,111.0,111.0,,,,,1781.661778070964,None,1.0,1.809452088084072,1781.661778070964,None,1781.661778070964,None,1781.661778070964,None,1,2022_Apr_19_1402,Semantic-hierachy,2021.1.2,60.24369296576928,
262,Trial # 263,layer6-8_T12_to_T8.jpg,layer6-8/layer6-8_T12_to_T8.jpg,TT,layer6-8,,,,,0.0,112.0,112.0,112.0,,,,,1783.980286592152,None,2.0,3.8192910549696535,1783.980286592152,None,1783.980286592152,None,1783.980286592152,None,1,2022_Apr_19_1402,Semantic-hierachy,2021.1.2,60.24369296576928,
263,Trial # 264,layer6-8_O4_to_O9.jpg,layer6-8/layer6-8_O4_to_O9.jpg,OO,layer6-8,,,,,0.0,113.0,113.0,113.0,,,,,1789.2317087750416,None,4.0,5.093352808849886,1789.2317087750416,None,1789.2317087750416,None,1789.2317087750416,None,1,2022_Apr_19_1402,Semantic-hierachy,2021.1.2,60.24369296576928,
264,Trial # 265,layer0-5_T1_to_T5.jpg,layer0-5/layer0-5_T1_to_T5.jpg,TT,layer0-5,,,,,0.0,114.0,114.0,114.0,,,,,1794.733737386996,None,1.0,3.2766161190811545,1794.733737386996,None,1794.733737386996,None,1794.733737386996,None,1,2022_Apr_19_1402,Semantic-hierachy,2021.1.2,60.24369296576928,
265,Trial # 266,layer0-5_O12_to_O7.jpg,layer0-5/layer0-5_O12_to_O7.jpg,OO,layer0-5,,,,,0.0,115.0,115.0,115.0,,,,,1798.384238467086,None,1.0,1.423167287837714,1798.384238467086,None,1798.384238467086,None,1798.384238467086,None,1,2022_Apr_19_1402,Semantic-hierachy,2021.1.2,60.24369296576928,
266,Trial # 267,layer6-8_T8_to_T9.jpg,layer6-8/layer6-8_T8_to_T9.jpg,TT,layer6-8,,,,,0.0,116.0,116.0,116.0,,,,,1800.2521267631091,None,3.0,15.699317718157545,1800.2521267631091,None,1800.2521267631091,None,1800.2521267631091,None,1,2022_Apr_19_1402,Semantic-hierachy,2021.1.2,60.24369296576928,
267,Trial # 268,layer9-17_O11_to_T10.jpg,layer9-17/layer9-17_O11_to_T10.jpg,OT,layer9-17,,,,,0.0,117.0,117.0,117.0,,,,,1816.5892541150097,None,2.0,1.6137437419965863,1816.5892541150097,None,1816.5892541150097,None,1816.5892541150097,None,1,2022_Apr_19_1402,Semantic-hierachy,2021.1.2,60.24369296576928,
268,Trial # 269,layer0-5_O8_to_T9.jpg,layer0-5/layer0-5_O8_to_T9.jpg,OT,layer0-5,,,,,0.0,118.0,118.0,118.0,,,,,1818.5576014521064,None,1.0,1.3950722569134086,1818.5576014521064,None,1818.5576014521064,None,1818.5576014521064,None,1,2022_Apr_19_1402,Semantic-hierachy,2021.1.2,60.24369296576928,
269,Trial # 270,layer9-17_O10_to_O11.jpg,layer9-17/layer9-17_O10_to_O11.jpg,OO,layer9-17,,,,,0.0,119.0,119.0,119.0,,,,,1820.374983218964,None,2.0,5.678197199013084,1820.374983218964,None,1820.374983218964,None,1820.374983218964,None,1,2022_Apr_19_1402,Semantic-hierachy,2021.1.2,60.24369296576928,
270,Trial # 271,layer0-5_T1_to_T9.jpg,layer0-5/layer0-5_T1_to_T9.jpg,TT,layer0-5,,,,,0.0,120.0,120.0,120.0,,,,,1826.5423919600437,None,1.0,1.8297340560238808,1826.5423919600437,None,1826.5423919600437,None,1826.5423919600437,None,1,2022_Apr_19_1402,Semantic-hierachy,2021.1.2,60.24369296576928,
271,Trial # 272,layer6-8_T11_to_T8.jpg,layer6-8/layer6-8_T11_to_T8.jpg,TT,layer6-8,,,,,0.0,121.0,121.0,121.0,,,,,1828.8447138101328,None,4.0,4.616553545929492,1828.8447138101328,None,1828.8447138101328,None,1828.8447138101328,None,1,2022_Apr_19_1402,Semantic-hierachy,2021.1.2,60.24369296576928,
272,Trial # 273,layer9-17_O10_to_O12.jpg,layer9-17/layer9-17_O10_to_O12.jpg,OO,layer9-17,,,,,0.0,122.0,122.0,122.0,,,,,1833.928333234042,None,2.0,1.6420931990724057,1833.928333234042,None,1833.928333234042,None,1833.928333234042,None,1,2022_Apr_19_1402,Semantic-hierachy,2021.1.2,60.24369296576928,
273,Trial # 274,layer0-5_T12_to_T6.jpg,layer0-5/layer0-5_T12_to_T6.jpg,TT,layer0-5,,,,,0.0,123.0,123.0,123.0,,,,,1836.379059114028,None,1.0,4.3765636291354895,1836.379059114028,None,1836.379059114028,None,1836.379059114028,None,1,2022_Apr_19_1402,Semantic-hierachy,2021.1.2,60.24369296576928,
274,Trial # 275,layer9-17_O11_to_O5.jpg,layer9-17/layer9-17_O11_to_O5.jpg,OO,layer9-17,,,,,0.0,124.0,124.0,124.0,,,,,1841.2141704640817,None,2.0,8.141114725032821,1841.2141704640817,None,1841.2141704640817,None,1841.2141704640817,None,1,2022_Apr_19_1402,Semantic-hierachy,2021.1.2,60.24369296576928,
275,Trial # 276,layer9-17_O1_to_O4.jpg,layer9-17/layer9-17_O1_to_O4.jpg,OO,layer9-17,,,,,0.0,125.0,125.0,125.0,,,,,1849.8163671169896,None,2.0,18.10024424805306,1849.8163671169896,None,1849.8163671169896,None,1849.8163671169896,None,1,2022_Apr_19_1402,Semantic-hierachy,2021.1.2,60.24369296576928,
276,Trial # 277,layer6-8_O11_to_O3.jpg,layer6-8/layer6-8_O11_to_O3.jpg,OO,layer6-8,,,,,0.0,126.0,126.0,126.0,,,,,1871.489498282084,None,2.0,4.02985048503615,1871.489498282084,None,1871.489498282084,None,1871.489498282084,None,1,2022_Apr_19_1402,Semantic-hierachy,2021.1.2,60.24369296576928,
277,Trial # 278,layer6-8_T10_to_T11.jpg,layer6-8/layer6-8_T10_to_T11.jpg,TT,layer6-8,,,,,0.0,127.0,127.0,127.0,,,,,1876.224141647108,None,3.0,2.862080212915316,1876.224141647108,None,1876.224141647108,None,1876.224141647108,None,1,2022_Apr_19_1402,Semantic-hierachy,2021.1.2,60.24369296576928,
278,Trial # 279,layer0-5_O7_to_T3.jpg,layer0-5/layer0-5_O7_to_T3.jpg,OT,layer0-5,,,,,0.0,128.0,128.0,128.0,,,,,1879.8931634540204,None,1.0,1.3380203840788454,1879.8931634540204,None,1879.8931634540204,None,1879.8931634540204,None,1,2022_Apr_19_1402,Semantic-hierachy,2021.1.2,60.24369296576928,
279,Trial # 280,layer9-17_T1_to_T10.jpg,layer9-17/layer9-17_T1_to_T10.jpg,TT,layer9-17,,,,,0.0,129.0,129.0,129.0,,,,,1881.644119094126,None,2.0,5.809203467098996,1881.644119094126,None,1881.644119094126,None,1881.644119094126,None,1,2022_Apr_19_1402,Semantic-hierachy,2021.1.2,60.24369296576928,
280,Trial # 281,layer9-17_O6_to_T7.jpg,layer9-17/layer9-17_O6_to_T7.jpg,OT,layer9-17,,,,,0.0,130.0,130.0,130.0,,,,,1888.0788861501496,None,2.0,1.3464051908813417,1888.0788861501496,None,1888.0788861501496,None,1888.0788861501496,None,1,2022_Apr_19_1402,Semantic-hierachy,2021.1.2,60.24369296576928,
281,Trial # 282,layer0-5_O10_to_O7.jpg,layer0-5/layer0-5_O10_to_O7.jpg,OO,layer0-5,,,,,0.0,131.0,131.0,131.0,,,,,1889.829190548975,None,1.0,2.328023812966421,1889.829190548975,None,1889.829190548975,None,1889.829190548975,None,1,2022_Apr_19_1402,Semantic-hierachy,2021.1.2,60.24369296576928,
282,Trial # 283,layer0-5_O1_to_O11.jpg,layer0-5/layer0-5_O1_to_O11.jpg,OO,layer0-5,,,,,0.0,132.0,132.0,132.0,,,,,1892.712596141966,None,1.0,1.7292914320714772,1892.712596141966,None,1892.712596141966,None,1892.712596141966,None,1,2022_Apr_19_1402,Semantic-hierachy,2021.1.2,60.24369296576928,
283,Trial # 284,layer6-8_O7_to_O8.jpg,layer6-8/layer6-8_O7_to_O8.jpg,OO,layer6-8,,,,,0.0,133.0,133.0,133.0,,,,,1895.0142700769936,None,2.0,3.869011915056035,1895.0142700769936,None,1895.0142700769936,None,1895.0142700769936,None,1,2022_Apr_19_1402,Semantic-hierachy,2021.1.2,60.24369296576928,
284,Trial # 285,layer0-5_T7_to_T8.jpg,layer0-5/layer0-5_T7_to_T8.jpg,TT,layer0-5,,,,,0.0,134.0,134.0,134.0,,,,,1899.399733680068,None,1.0,1.5597862121649086,1899.399733680068,None,1899.399733680068,None,1899.399733680068,None,1,2022_Apr_19_1402,Semantic-hierachy,2021.1.2,60.24369296576928,
285,Trial # 286,layer9-17_T11_to_T6.jpg,layer9-17/layer9-17_T11_to_T6.jpg,TT,layer9-17,,,,,0.0,135.0,135.0,135.0,,,,,1901.6158059299923,None,2.0,5.392554318066686,1901.6158059299923,None,1901.6158059299923,None,1901.6158059299923,None,1,2022_Apr_19_1402,Semantic-hierachy,2021.1.2,60.24369296576928,
286,Trial # 287,layer0-5_T2_to_T7.jpg,layer0-5/layer0-5_T2_to_T7.jpg,TT,layer0-5,,,,,0.0,136.0,136.0,136.0,,,,,1909.302397510968,None,1.0,1.6773165778722614,1909.302397510968,None,1909.302397510968,None,1909.302397510968,None,1,2022_Apr_19_1402,Semantic-hierachy,2021.1.2,60.24369296576928,
287,Trial # 288,layer9-17_O10_to_O2.jpg,layer9-17/layer9-17_O10_to_O2.jpg,OO,layer9-17,,,,,0.0,137.0,137.0,137.0,,,,,1911.6864444480743,None,2.0,1.58852354506962,1911.6864444480743,None,1911.6864444480743,None,1911.6864444480743,None,1,2022_Apr_19_1402,Semantic-hierachy,2021.1.2,60.24369296576928,
288,Trial # 289,layer0-5_T10_to_T9.jpg,layer0-5/layer0-5_T10_to_T9.jpg,TT,layer0-5,,,,,0.0,138.0,138.0,138.0,,,,,1913.9364366910888,None,1.0,4.762978676008061,1913.9364366910888,None,1913.9364366910888,None,1913.9364366910888,None,1,2022_Apr_19_1402,Semantic-hierachy,2021.1.2,60.24369296576928,
289,Trial # 290,layer6-8_O11_to_O5.jpg,layer6-8/layer6-8_O11_to_O5.jpg,OO,layer6-8,,,,,0.0,139.0,139.0,139.0,,,,,1919.8877266650088,None,2.0,3.295148759149015,1919.8877266650088,None,1919.8877266650088,None,1919.8877266650088,None,1,2022_Apr_19_1402,Semantic-hierachy,2021.1.2,60.24369296576928,
290,Trial # 291,layer6-8_O3_to_O7.jpg,layer6-8/layer6-8_O3_to_O7.jpg,OO,layer6-8,,,,,0.0,140.0,140.0,140.0,,,,,1923.739807356149,None,2.0,1.3561008009128273,1923.739807356149,None,1923.739807356149,None,1923.739807356149,None,1,2022_Apr_19_1402,Semantic-hierachy,2021.1.2,60.24369296576928,
291,Trial # 292,layer9-17_O12_to_T11.jpg,layer9-17/layer9-17_O12_to_T11.jpg,OT,layer9-17,,,,,0.0,141.0,141.0,141.0,,,,,1925.9075637790372,None,2.0,4.496347727952525,1925.9075637790372,None,1925.9075637790372,None,1925.9075637790372,None,1,2022_Apr_19_1402,Semantic-hierachy,2021.1.2,60.24369296576928,
292,Trial # 293,layer9-17_O2_to_O4.jpg,layer9-17/layer9-17_O2_to_O4.jpg,OO,layer9-17,,,,,0.0,142.0,142.0,142.0,,,,,1930.824913999997,None,2.0,5.014111996861175,1930.824913999997,None,1930.824913999997,None,1930.824913999997,None,1,2022_Apr_19_1402,Semantic-hierachy,2021.1.2,60.24369296576928,
293,Trial # 294,layer6-8_O1_to_T12.jpg,layer6-8/layer6-8_O1_to_T12.jpg,OT,layer6-8,,,,,0.0,143.0,143.0,143.0,,,,,1944.3457671441136,None,3.0,4.724540028953925,1944.3457671441136,None,1944.3457671441136,None,1944.3457671441136,None,1,2022_Apr_19_1402,Semantic-hierachy,2021.1.2,60.24369296576928,
294,Trial # 295,layer9-17_O11_to_T5.jpg,layer9-17/layer9-17_O11_to_T5.jpg,OT,layer9-17,,,,,0.0,144.0,144.0,144.0,,,,,1949.414967091987,None,2.0,1.5653041959740222,1949.414967091987,None,1949.414967091987,None,1949.414967091987,None,1,2022_Apr_19_1402,Semantic-hierachy,2021.1.2,60.24369296576928,
295,Trial # 296,layer0-5_O10_to_O9.jpg,layer0-5/layer0-5_O10_to_O9.jpg,OO,layer0-5,,,,,0.0,145.0,145.0,145.0,,,,,1951.7483502370303,None,1.0,2.045881751924753,1951.7483502370303,None,1951.7483502370303,None,1951.7483502370303,None,1,2022_Apr_19_1402,Semantic-hierachy,2021.1.2,60.24369296576928,
296,Trial # 297,layer6-8_O12_to_T10.jpg,layer6-8/layer6-8_O12_to_T10.jpg,OT,layer6-8,,,,,0.0,146.0,146.0,146.0,,,,,1954.215962795075,None,3.0,1.6623804580885917,1954.215962795075,None,1954.215962795075,None,1954.215962795075,None,1,2022_Apr_19_1402,Semantic-hierachy,2021.1.2,60.24369296576928,
297,Trial # 298,layer6-8_O3_to_T2.jpg,layer6-8/layer6-8_O3_to_T2.jpg,OT,layer6-8,,,,,0.0,147.0,147.0,147.0,,,,,1956.299947851105,None,3.0,5.311923014931381,1956.299947851105,None,1956.299947851105,None,1956.299947851105,None,1,2022_Apr_19_1402,Semantic-hierachy,2021.1.2,60.24369296576928,
298,Trial # 299,layer9-17_O2_to_T5.jpg,layer9-17/layer9-17_O2_to_T5.jpg,OT,layer9-17,,,,,0.0,148.0,148.0,148.0,,,,,1962.7848220949527,None,4.0,2.37782339588739,1962.7848220949527,None,1962.7848220949527,None,1962.7848220949527,None,1,2022_Apr_19_1402,Semantic-hierachy,2021.1.2,60.24369296576928,
299,Trial # 300,layer0-5_O3_to_T7.jpg,layer0-5/layer0-5_O3_to_T7.jpg,OT,layer0-5,,,,,0.0,149.0,149.0,149.0,,,,,1965.7353166691028,None,1.0,1.4401974049396813,1965.7353166691028,None,1965.7353166691028,None,1965.7353166691028,None,1,2022_Apr_19_1402,Semantic-hierachy,2021.1.2,60.24369296576928,
300,Trial # 301,layer9-17_O11_to_O6.jpg,layer9-17/layer9-17_O11_to_O6.jpg,OO,layer9-17,,,,,,,,,0.0,0.0,0.0,0.0,1970.553730580956,None,2.0,8.4614832138177,1970.553730580956,None,1970.553730580956,None,1970.553730580956,None,1,2022_Apr_19_1402,Semantic-hierachy,2021.1.2,60.24369296576928,
301,Trial # 302,layer0-5_O3_to_O7.jpg,layer0-5/layer0-5_O3_to_O7.jpg,OO,layer0-5,,,,,,,,,0.0,1.0,1.0,1.0,1979.440246292157,None,1.0,1.7076029151212424,1979.440246292157,None,1979.440246292157,None,1979.440246292157,None,1,2022_Apr_19_1402,Semantic-hierachy,2021.1.2,60.24369296576928,
302,Trial # 303,layer6-8_O11_to_T3.jpg,layer6-8/layer6-8_O11_to_T3.jpg,OT,layer6-8,,,,,,,,,0.0,2.0,2.0,2.0,1981.607530202018,None,3.0,1.96167420479469,1981.607530202018,None,1981.607530202018,None,1981.607530202018,None,1,2022_Apr_19_1402,Semantic-hierachy,2021.1.2,60.24369296576928,
303,Trial # 304,layer6-8_O2_to_T7.jpg,layer6-8/layer6-8_O2_to_T7.jpg,OT,layer6-8,,,,,,,,,0.0,3.0,3.0,3.0,1983.992167497985,None,3.0,1.6451126660685986,1983.992167497985,None,1983.992167497985,None,1983.992167497985,None,1,2022_Apr_19_1402,Semantic-hierachy,2021.1.2,60.24369296576928,
304,Trial # 305,layer0-5_T1_to_T7.jpg,layer0-5/layer0-5_T1_to_T7.jpg,TT,layer0-5,,,,,,,,,0.0,4.0,4.0,4.0,1986.1096218989696,None,1.0,1.7087142651434988,1986.1096218989696,None,1986.1096218989696,None,1986.1096218989696,None,1,2022_Apr_19_1402,Semantic-hierachy,2021.1.2,60.24369296576928,
305,Trial # 306,layer6-8_O7_to_T11.jpg,layer6-8/layer6-8_O7_to_T11.jpg,OT,layer6-8,,,,,,,,,0.0,5.0,5.0,5.0,1988.242822570959,None,3.0,2.730541934026405,1988.242822570959,None,1988.242822570959,None,1988.242822570959,None,1,2022_Apr_19_1402,Semantic-hierachy,2021.1.2,60.24369296576928,
306,Trial # 307,layer9-17_O5_to_T5.jpg,layer9-17/layer9-17_O5_to_T5.jpg,OT,layer9-17,,,,,,,,,0.0,6.0,6.0,6.0,1991.409949182067,None,2.0,2.876682739937678,1991.409949182067,None,1991.409949182067,None,1991.409949182067,None,1,2022_Apr_19_1402,Semantic-hierachy,2021.1.2,60.24369296576928,
307,Trial # 308,layer9-17_T12_to_T5.jpg,layer9-17/layer9-17_T12_to_T5.jpg,TT,layer9-17,,,,,,,,,0.0,7.0,7.0,7.0,1994.7621991781048,None,2.0,2.8715473681222647,1994.7621991781048,None,1994.7621991781048,None,1994.7621991781048,None,1,2022_Apr_19_1402,Semantic-hierachy,2021.1.2,60.24369296576928,
308,Trial # 309,layer6-8_O11_to_O2.jpg,layer6-8/layer6-8_O11_to_O2.jpg,OO,layer6-8,,,,,,,,,0.0,8.0,8.0,8.0,1998.0286389419343,None,2.0,2.9588636078406125,1998.0286389419343,None,1998.0286389419343,None,1998.0286389419343,None,1,2022_Apr_19_1402,Semantic-hierachy,2021.1.2,60.24369296576928,
309,Trial # 310,layer6-8_O10_to_O7.jpg,layer6-8/layer6-8_O10_to_O7.jpg,OO,layer6-8,,,,,,,,,0.0,9.0,9.0,9.0,2001.4300259230656,None,2.0,3.5237546029966325,2001.4300259230656,None,2001.4300259230656,None,2001.4300259230656,None,1,2022_Apr_19_1402,Semantic-hierachy,2021.1.2,60.24369296576928,
310,Trial # 311,layer9-17_O10_to_T11.jpg,layer9-17/layer9-17_O10_to_T11.jpg,OT,layer9-17,,,,,,,,,0.0,10.0,10.0,10.0,2005.9481636299752,None,2.0,2.726198300020769,2005.9481636299752,None,2005.9481636299752,None,2005.9481636299752,None,1,2022_Apr_19_1402,Semantic-hierachy,2021.1.2,60.24369296576928,
311,Trial # 312,layer6-8_O11_to_O12.jpg,layer6-8/layer6-8_O11_to_O12.jpg,OO,layer6-8,,,,,,,,,0.0,11.0,11.0,11.0,2009.2499542529692,None,2.0,2.1151725619565696,2009.2499542529692,None,2009.2499542529692,None,2009.2499542529692,None,1,2022_Apr_19_1402,Semantic-hierachy,2021.1.2,60.24369296576928,
312,Trial # 313,layer9-17_O9_to_T8.jpg,layer9-17/layer9-17_O9_to_T8.jpg,OT,layer9-17,,,,,,,,,0.0,12.0,12.0,12.0,2011.816437246045,None,2.0,8.097951023839414,2011.816437246045,None,2011.816437246045,None,2011.816437246045,None,1,2022_Apr_19_1402,Semantic-hierachy,2021.1.2,60.24369296576928,
313,Trial # 314,layer0-5_O3_to_T2.jpg,layer0-5/layer0-5_O3_to_T2.jpg,OT,layer0-5,,,,,,,,,0.0,13.0,13.0,13.0,2021.2367809370623,None,1.0,2.9585168650373816,2021.2367809370623,None,2021.2367809370623,None,2021.2367809370623,None,1,2022_Apr_19_1402,Semantic-hierachy,2021.1.2,60.24369296576928,
314,Trial # 315,layer9-17_T1_to_T11.jpg,layer9-17/layer9-17_T1_to_T11.jpg,TT,layer9-17,,,,,,,,,0.0,14.0,14.0,14.0,2025.2380590480752,None,2.0,1.504627682035789,2025.2380590480752,None,2025.2380590480752,None,2025.2380590480752,None,1,2022_Apr_19_1402,Semantic-hierachy,2021.1.2,60.24369296576928,
315,Trial # 316,layer6-8_T10_to_T7.jpg,layer6-8/layer6-8_T10_to_T7.jpg,TT,layer6-8,,,,,,,,,0.0,15.0,15.0,15.0,2027.1054100471083,None,1.0,12.630635275039822,2027.1054100471083,None,2027.1054100471083,None,2027.1054100471083,None,1,2022_Apr_19_1402,Semantic-hierachy,2021.1.2,60.24369296576928,
316,Trial # 317,layer0-5_T6_to_T7.jpg,layer0-5/layer0-5_T6_to_T7.jpg,TT,layer0-5,,,,,,,,,0.0,16.0,16.0,16.0,2040.876504695043,None,1.0,2.2553655148949474,2040.876504695043,None,2040.876504695043,None,2040.876504695043,None,1,2022_Apr_19_1402,Semantic-hierachy,2021.1.2,60.24369296576928,
317,Trial # 318,layer9-17_O1_to_T3.jpg,layer9-17/layer9-17_O1_to_T3.jpg,OT,layer9-17,,,,,,,,,0.0,17.0,17.0,17.0,2043.5443996300453,None,2.0,1.3129016000311822,2043.5443996300453,None,2043.5443996300453,None,2043.5443996300453,None,1,2022_Apr_19_1402,Semantic-hierachy,2021.1.2,60.24369296576928,
318,Trial # 319,layer0-5_O2_to_T5.jpg,layer0-5/layer0-5_O2_to_T5.jpg,OT,layer0-5,,,,,,,,,0.0,18.0,18.0,18.0,2045.293998728972,None,1.0,2.155968907987699,2045.293998728972,None,2045.293998728972,None,2045.293998728972,None,1,2022_Apr_19_1402,Semantic-hierachy,2021.1.2,60.24369296576928,
319,Trial # 320,layer6-8_O7_to_T10.jpg,layer6-8/layer6-8_O7_to_T10.jpg,OT,layer6-8,,,,,,,,,0.0,19.0,19.0,19.0,2048.011443176074,None,3.0,1.5800944371148944,2048.011443176074,None,2048.011443176074,None,2048.011443176074,None,1,2022_Apr_19_1402,Semantic-hierachy,2021.1.2,60.24369296576928,
320,Trial # 321,layer0-5_O5_to_O6.jpg,layer0-5/layer0-5_O5_to_O6.jpg,OO,layer0-5,,,,,,,,,0.0,20.0,20.0,20.0,2050.0616051009856,None,1.0,1.6628672271035612,2050.0616051009856,None,2050.0616051009856,None,2050.0616051009856,None,1,2022_Apr_19_1402,Semantic-hierachy,2021.1.2,60.24369296576928,
321,Trial # 322,layer9-17_O5_to_T4.jpg,layer9-17/layer9-17_O5_to_T4.jpg,OT,layer9-17,,,,,,,,,0.0,21.0,21.0,21.0,2052.095367060043,None,2.0,1.6729918089695277,2052.095367060043,None,2052.095367060043,None,2052.095367060043,None,1,2022_Apr_19_1402,Semantic-hierachy,2021.1.2,60.24369296576928,
322,Trial # 323,layer0-5_T12_to_T2.jpg,layer0-5/layer0-5_T12_to_T2.jpg,TT,layer0-5,,,,,,,,,0.0,22.0,22.0,22.0,2054.180872177938,None,1.0,2.1214509359560907,2054.180872177938,None,2054.180872177938,None,2054.180872177938,None,1,2022_Apr_19_1402,Semantic-hierachy,2021.1.2,60.24369296576928,
323,Trial # 324,layer0-5_O2_to_O4.jpg,layer0-5/layer0-5_O2_to_O4.jpg,OO,layer0-5,,,,,,,,,0.0,23.0,23.0,23.0,2056.86334163812,None,1.0,1.624900477938354,2056.86334163812,None,2056.86334163812,None,2056.86334163812,None,1,2022_Apr_19_1402,Semantic-hierachy,2021.1.2,60.24369296576928,
324,Trial # 325,layer6-8_O1_to_O9.jpg,layer6-8/layer6-8_O1_to_O9.jpg,OO,layer6-8,,,,,,,,,0.0,24.0,24.0,24.0,2058.815269550076,None,4.0,4.195738469948992,2058.815269550076,None,2058.815269550076,None,2058.815269550076,None,1,2022_Apr_19_1402,Semantic-hierachy,2021.1.2,60.24369296576928,
325,Trial # 326,layer0-5_T3_to_T5.jpg,layer0-5/layer0-5_T3_to_T5.jpg,TT,layer0-5,,,,,,,,,0.0,25.0,25.0,25.0,2063.5494316311087,None,1.0,2.762669575866312,2063.5494316311087,None,2063.5494316311087,None,2063.5494316311087,None,1,2022_Apr_19_1402,Semantic-hierachy,2021.1.2,60.24369296576928,
326,Trial # 327,layer6-8_O8_to_T12.jpg,layer6-8/layer6-8_O8_to_T12.jpg,OT,layer6-8,,,,,,,,,0.0,26.0,26.0,26.0,2066.7499873910565,None,3.0,2.663733321009204,2066.7499873910565,None,2066.7499873910565,None,2066.7499873910565,None,1,2022_Apr_19_1402,Semantic-hierachy,2021.1.2,60.24369296576928,
327,Trial # 328,layer9-17_T11_to_T4.jpg,layer9-17/layer9-17_T11_to_T4.jpg,TT,layer9-17,,,,,,,,,0.0,27.0,27.0,27.0,2070.00198277412,None,2.0,1.773385331965983,2070.00198277412,None,2070.00198277412,None,2070.00198277412,None,1,2022_Apr_19_1402,Semantic-hierachy,2021.1.2,60.24369296576928,
328,Trial # 329,layer9-17_O6_to_T2.jpg,layer9-17/layer9-17_O6_to_T2.jpg,OT,layer9-17,,,,,,,,,0.0,28.0,28.0,28.0,2072.134736617096,None,2.0,1.55777632095851,2072.134736617096,None,2072.134736617096,None,2072.134736617096,None,1,2022_Apr_19_1402,Semantic-hierachy,2021.1.2,60.24369296576928,
329,Trial # 330,layer9-17_T10_to_T9.jpg,layer9-17/layer9-17_T10_to_T9.jpg,TT,layer9-17,,,,,,,,,0.0,29.0,29.0,29.0,2074.0359584479597,None,2.0,2.539651017868892,2074.0359584479597,None,2074.0359584479597,None,2074.0359584479597,None,1,2022_Apr_19_1402,Semantic-hierachy,2021.1.2,60.24369296576928,
330,Trial # 331,layer0-5_O2_to_O3.jpg,layer0-5/layer0-5_O2_to_O3.jpg,OO,layer0-5,,,,,,,,,0.0,30.0,30.0,30.0,2077.820199002977,None,1.0,1.7269322001375258,2077.820199002977,None,2077.820199002977,None,2077.820199002977,None,1,2022_Apr_19_1402,Semantic-hierachy,2021.1.2,60.24369296576928,
331,Trial # 332,layer6-8_O1_to_O12.jpg,layer6-8/layer6-8_O1_to_O12.jpg,OO,layer6-8,,,,,,,,,0.0,31.0,31.0,31.0,2079.905317940982,None,3.0,2.4212940810248256,2079.905317940982,None,2079.905317940982,None,2079.905317940982,None,1,2022_Apr_19_1402,Semantic-hierachy,2021.1.2,60.24369296576928,
332,Trial # 333,layer0-5_O5_to_T12.jpg,layer0-5/layer0-5_O5_to_T12.jpg,OT,layer0-5,,,,,,,,,0.0,32.0,32.0,32.0,2082.9220556600485,None,1.0,1.9771921059582385,2082.9220556600485,None,2082.9220556600485,None,2082.9220556600485,None,1,2022_Apr_19_1402,Semantic-hierachy,2021.1.2,60.24369296576928,
333,Trial # 334,layer9-17_O11_to_T6.jpg,layer9-17/layer9-17_O11_to_T6.jpg,OT,layer9-17,,,,,,,,,0.0,33.0,33.0,33.0,2085.4562847670168,None,2.0,1.7314630209002644,2085.4562847670168,None,2085.4562847670168,None,2085.4562847670168,None,1,2022_Apr_19_1402,Semantic-hierachy,2021.1.2,60.24369296576928,
334,Trial # 335,layer0-5_O4_to_T1.jpg,layer0-5/layer0-5_O4_to_T1.jpg,OT,layer0-5,,,,,,,,,0.0,34.0,34.0,34.0,2087.6560468040407,None,1.0,1.7292947431560606,2087.6560468040407,None,2087.6560468040407,None,2087.6560468040407,None,1,2022_Apr_19_1402,Semantic-hierachy,2021.1.2,60.24369296576928,
335,Trial # 336,layer6-8_T1_to_T6.jpg,layer6-8/layer6-8_T1_to_T6.jpg,TT,layer6-8,,,,,,,,,0.0,35.0,35.0,35.0,2089.775207499042,None,4.0,2.474509909050539,2089.775207499042,None,2089.775207499042,None,2089.775207499042,None,1,2022_Apr_19_1402,Semantic-hierachy,2021.1.2,60.24369296576928,
336,Trial # 337,layer0-5_O12_to_O6.jpg,layer0-5/layer0-5_O12_to_O6.jpg,OO,layer0-5,,,,,,,,,0.0,36.0,36.0,36.0,2092.741147021996,None,1.0,2.1643436518497765,2092.741147021996,None,2092.741147021996,None,2092.741147021996,None,1,2022_Apr_19_1402,Semantic-hierachy,2021.1.2,60.24369296576928,
337,Trial # 338,layer0-5_O1_to_O10.jpg,layer0-5/layer0-5_O1_to_O10.jpg,OO,layer0-5,,,,,,,,,0.0,37.0,37.0,37.0,2095.25991994096,None,1.0,5.582791474880651,2095.25991994096,None,2095.25991994096,None,2095.25991994096,None,1,2022_Apr_19_1402,Semantic-hierachy,2021.1.2,60.24369296576928,
338,Trial # 339,layer0-5_O9_to_T9.jpg,layer0-5/layer0-5_O9_to_T9.jpg,OT,layer0-5,,,,,,,,,0.0,38.0,38.0,38.0,2101.810895449948,None,1.0,1.4273608159273865,2101.810895449948,None,2101.810895449948,None,2101.810895449948,None,1,2022_Apr_19_1402,Semantic-hierachy,2021.1.2,60.24369296576928,
339,Trial # 340,layer6-8_O6_to_T10.jpg,layer6-8/layer6-8_O6_to_T10.jpg,OT,layer6-8,,,,,,,,,0.0,39.0,39.0,39.0,2103.5950469351374,None,3.0,1.3811403759755194,2103.5950469351374,None,2103.5950469351374,None,2103.5950469351374,None,1,2022_Apr_19_1402,Semantic-hierachy,2021.1.2,60.24369296576928,
340,Trial # 341,layer9-17_O3_to_T3.jpg,layer9-17/layer9-17_O3_to_T3.jpg,OT,layer9-17,,,,,,,,,0.0,40.0,40.0,40.0,2105.3628594460897,None,2.0,1.3955568179953843,2105.3628594460897,None,2105.3628594460897,None,2105.3628594460897,None,1,2022_Apr_19_1402,Semantic-hierachy,2021.1.2,60.24369296576928,
