,Trial_num,image_name,image_path,pair_type,layers,block1.thisRepN,block1.thisTrialN,block1.thisN,block1.thisIndex,block2.thisRepN,block2.thisTrialN,block2.thisN,block2.thisIndex,block3.thisRepN,block3.thisTrialN,block3.thisN,block3.thisIndex,image_8.started,image_8.stopped,selected_semantic.response,selected_semantic.rt,selected_semantic.started,selected_semantic.stopped,Instruction.started,Instruction.stopped,Trial_number.started,Trial_number.stopped,session,date,expName,psychopyVersion,frameRate,Unnamed: 33
0,Trial # 1,layer0-5_O2_to_T1.jpg,layer0-5/layer0-5_O2_to_T1.jpg,OT,layer0-5,0.0,0.0,0.0,0.0,,,,,,,,,12.812804260989653,None,1.0,5.156755405943841,12.812804260989653,None,12.812804260989653,None,12.812804260989653,None,1,2022_Apr_07_1150,Semantic-hierachy,2021.1.2,59.8348842750952,
1,Trial # 2,layer0-5_O11_to_T7.jpg,layer0-5/layer0-5_O11_to_T7.jpg,OT,layer0-5,0.0,1.0,1.0,1.0,,,,,,,,,18.7962766001001,None,1.0,1.3312115229200572,18.7962766001001,None,18.7962766001001,None,18.7962766001001,None,1,2022_Apr_07_1150,Semantic-hierachy,2021.1.2,59.8348842750952,
2,Trial # 3,layer6-8_O3_to_O5.jpg,layer6-8/layer6-8_O3_to_O5.jpg,OO,layer6-8,0.0,2.0,2.0,2.0,,,,,,,,,20.51468263892457,None,3.0,5.467922976939008,20.51468263892457,None,20.51468263892457,None,20.51468263892457,None,1,2022_Apr_07_1150,Semantic-hierachy,2021.1.2,59.8348842750952,
3,Trial # 4,layer6-8_O11_to_O4.jpg,layer6-8/layer6-8_O11_to_O4.jpg,OO,layer6-8,0.0,3.0,3.0,3.0,,,,,,,,,28.332960409112275,None,3.0,3.594262098893523,28.332960409112275,None,28.332960409112275,None,28.332960409112275,None,1,2022_Apr_07_1150,Semantic-hierachy,2021.1.2,59.8348842750952,
4,Trial # 5,layer6-8_O8_to_T8.jpg,layer6-8/layer6-8_O8_to_T8.jpg,OT,layer6-8,0.0,4.0,4.0,4.0,,,,,,,,,32.20156520605087,None,3.0,1.64113783207722,32.20156520605087,None,32.20156520605087,None,32.20156520605087,None,1,2022_Apr_07_1150,Semantic-hierachy,2021.1.2,59.8348842750952,
5,Trial # 6,layer0-5_O11_to_O8.jpg,layer0-5/layer0-5_O11_to_O8.jpg,OO,layer0-5,0.0,5.0,5.0,5.0,,,,,,,,,34.53386109392159,None,1.0,1.788710376014933,34.53386109392159,None,34.53386109392159,None,34.53386109392159,None,1,2022_Apr_07_1150,Semantic-hierachy,2021.1.2,59.8348842750952,
6,Trial # 7,layer0-5_T10_to_T11.jpg,layer0-5/layer0-5_T10_to_T11.jpg,TT,layer0-5,0.0,6.0,6.0,6.0,,,,,,,,,36.63608034513891,None,1.0,1.908754691015929,36.63608034513891,None,36.63608034513891,None,36.63608034513891,None,1,2022_Apr_07_1150,Semantic-hierachy,2021.1.2,59.8348842750952,
7,Trial # 8,layer9-17_O6_to_O9.jpg,layer9-17/layer9-17_O6_to_O9.jpg,OO,layer9-17,0.0,7.0,7.0,7.0,,,,,,,,,38.85224251705222,None,2.0,1.6756340789142996,38.85224251705222,None,38.85224251705222,None,38.85224251705222,None,1,2022_Apr_07_1150,Semantic-hierachy,2021.1.2,59.8348842750952,
8,Trial # 9,layer6-8_O12_to_O9.jpg,layer6-8/layer6-8_O12_to_O9.jpg,OO,layer6-8,0.0,8.0,8.0,8.0,,,,,,,,,40.85428346507251,None,3.0,2.6798541080206637,40.85428346507251,None,40.85428346507251,None,40.85428346507251,None,1,2022_Apr_07_1150,Semantic-hierachy,2021.1.2,59.8348842750952,
9,Trial # 10,layer0-5_O10_to_T2.jpg,layer0-5/layer0-5_O10_to_T2.jpg,OT,layer0-5,0.0,9.0,9.0,9.0,,,,,,,,,43.92070070607588,None,1.0,3.1464738890063018,43.92070070607588,None,43.92070070607588,None,43.92070070607588,None,1,2022_Apr_07_1150,Semantic-hierachy,2021.1.2,59.8348842750952,
10,Trial # 11,layer9-17_T10_to_T2.jpg,layer9-17/layer9-17_T10_to_T2.jpg,TT,layer9-17,0.0,10.0,10.0,10.0,,,,,,,,,47.87198325805366,None,4.0,10.742760405875742,47.87198325805366,None,47.87198325805366,None,47.87198325805366,None,1,2022_Apr_07_1150,Semantic-hierachy,2021.1.2,59.8348842750952,
11,Trial # 12,layer6-8_T6_to_T7.jpg,layer6-8/layer6-8_T6_to_T7.jpg,TT,layer6-8,0.0,11.0,11.0,11.0,,,,,,,,,59.10853442410007,None,3.0,1.7449586500879375,59.10853442410007,None,59.10853442410007,None,59.10853442410007,None,1,2022_Apr_07_1150,Semantic-hierachy,2021.1.2,59.8348842750952,
12,Trial # 13,layer9-17_O10_to_T2.jpg,layer9-17/layer9-17_O10_to_T2.jpg,OT,layer9-17,0.0,12.0,12.0,12.0,,,,,,,,,62.094204742927104,None,2.0,1.4945238581858575,62.094204742927104,None,62.094204742927104,None,62.094204742927104,None,1,2022_Apr_07_1150,Semantic-hierachy,2021.1.2,59.8348842750952,
13,Trial # 14,layer6-8_T4_to_T7.jpg,layer6-8/layer6-8_T4_to_T7.jpg,TT,layer6-8,0.0,13.0,13.0,13.0,,,,,,,,,63.94352353713475,None,2.0,4.331963409204036,63.94352353713475,None,63.94352353713475,None,63.94352353713475,None,1,2022_Apr_07_1150,Semantic-hierachy,2021.1.2,59.8348842750952,
14,Trial # 15,layer9-17_O8_to_T2.jpg,layer9-17/layer9-17_O8_to_T2.jpg,OT,layer9-17,0.0,14.0,14.0,14.0,,,,,,,,,68.56158867198974,None,2.0,1.3428212848957628,68.56158867198974,None,68.56158867198974,None,68.56158867198974,None,1,2022_Apr_07_1150,Semantic-hierachy,2021.1.2,59.8348842750952,
15,Trial # 16,layer0-5_T6_to_T9.jpg,layer0-5/layer0-5_T6_to_T9.jpg,TT,layer0-5,0.0,15.0,15.0,15.0,,,,,,,,,70.2616409980692,None,1.0,1.732668878044933,70.2616409980692,None,70.2616409980692,None,70.2616409980692,None,1,2022_Apr_07_1150,Semantic-hierachy,2021.1.2,59.8348842750952,
16,Trial # 17,layer0-5_O11_to_O12.jpg,layer0-5/layer0-5_O11_to_O12.jpg,OO,layer0-5,0.0,16.0,16.0,16.0,,,,,,,,,72.46398175903596,None,1.0,1.3468317799270153,72.46398175903596,None,72.46398175903596,None,72.46398175903596,None,1,2022_Apr_07_1150,Semantic-hierachy,2021.1.2,59.8348842750952,
17,Trial # 18,layer0-5_T11_to_T5.jpg,layer0-5/layer0-5_T11_to_T5.jpg,TT,layer0-5,0.0,17.0,17.0,17.0,,,,,,,,,74.1633001039736,None,1.0,3.2419950319454074,74.1633001039736,None,74.1633001039736,None,74.1633001039736,None,1,2022_Apr_07_1150,Semantic-hierachy,2021.1.2,59.8348842750952,
18,Trial # 19,layer0-5_O6_to_T12.jpg,layer0-5/layer0-5_O6_to_T12.jpg,OT,layer0-5,0.0,18.0,18.0,18.0,,,,,,,,,77.69762257998809,None,1.0,1.6573793380521238,77.69762257998809,None,77.69762257998809,None,77.69762257998809,None,1,2022_Apr_07_1150,Semantic-hierachy,2021.1.2,59.8348842750952,
19,Trial # 20,layer6-8_T6_to_T8.jpg,layer6-8/layer6-8_T6_to_T8.jpg,TT,layer6-8,0.0,19.0,19.0,19.0,,,,,,,,,79.68147806706838,None,3.0,7.158608305035159,79.68147806706838,None,79.68147806706838,None,79.68147806706838,None,1,2022_Apr_07_1150,Semantic-hierachy,2021.1.2,59.8348842750952,
20,Trial # 21,layer9-17_T2_to_T5.jpg,layer9-17/layer9-17_T2_to_T5.jpg,TT,layer9-17,0.0,20.0,20.0,20.0,,,,,,,,,87.50073883100413,None,2.0,1.8417415511794388,87.50073883100413,None,87.50073883100413,None,87.50073883100413,None,1,2022_Apr_07_1150,Semantic-hierachy,2021.1.2,59.8348842750952,
21,Trial # 22,layer6-8_O2_to_O6.jpg,layer6-8/layer6-8_O2_to_O6.jpg,OO,layer6-8,0.0,21.0,21.0,21.0,,,,,,,,,89.66809942293912,None,2.0,3.823625813005492,89.66809942293912,None,89.66809942293912,None,89.66809942293912,None,1,2022_Apr_07_1150,Semantic-hierachy,2021.1.2,59.8348842750952,
22,Trial # 23,layer9-17_O3_to_T12.jpg,layer9-17/layer9-17_O3_to_T12.jpg,OT,layer9-17,0.0,22.0,22.0,22.0,,,,,,,,,95.452764792135,None,2.0,1.5565623850561678,95.452764792135,None,95.452764792135,None,95.452764792135,None,1,2022_Apr_07_1150,Semantic-hierachy,2021.1.2,59.8348842750952,
23,Trial # 24,layer0-5_O11_to_O3.jpg,layer0-5/layer0-5_O11_to_O3.jpg,OO,layer0-5,0.0,23.0,23.0,23.0,,,,,,,,,97.45426079607569,None,1.0,1.842881912132725,97.45426079607569,None,97.45426079607569,None,97.45426079607569,None,1,2022_Apr_07_1150,Semantic-hierachy,2021.1.2,59.8348842750952,
24,Trial # 25,layer6-8_O2_to_O9.jpg,layer6-8/layer6-8_O2_to_O9.jpg,OO,layer6-8,0.0,24.0,24.0,24.0,,,,,,,,,100.20502722309902,None,3.0,4.622469902969897,100.20502722309902,None,100.20502722309902,None,100.20502722309902,None,1,2022_Apr_07_1150,Semantic-hierachy,2021.1.2,59.8348842750952,
25,Trial # 26,layer9-17_O10_to_O8.jpg,layer9-17/layer9-17_O10_to_O8.jpg,OO,layer9-17,0.0,25.0,25.0,25.0,,,,,,,,,105.27263368992136,None,2.0,3.0952688578981906,105.27263368992136,None,105.27263368992136,None,105.27263368992136,None,1,2022_Apr_07_1150,Semantic-hierachy,2021.1.2,59.8348842750952,
26,Trial # 27,layer9-17_T4_to_T6.jpg,layer9-17/layer9-17_T4_to_T6.jpg,TT,layer9-17,0.0,26.0,26.0,26.0,,,,,,,,,110.0911363789346,None,2.0,1.3080370938405397,110.0911363789346,None,110.0911363789346,None,110.0911363789346,None,1,2022_Apr_07_1150,Semantic-hierachy,2021.1.2,59.8348842750952,
27,Trial # 28,layer6-8_O7_to_T8.jpg,layer6-8/layer6-8_O7_to_T8.jpg,OT,layer6-8,0.0,27.0,27.0,27.0,,,,,,,,,111.8764225190971,None,3.0,4.272805591113865,111.8764225190971,None,111.8764225190971,None,111.8764225190971,None,1,2022_Apr_07_1150,Semantic-hierachy,2021.1.2,59.8348842750952,
28,Trial # 29,layer6-8_T4_to_T5.jpg,layer6-8/layer6-8_T4_to_T5.jpg,TT,layer6-8,0.0,28.0,28.0,28.0,,,,,,,,,116.41008261102252,None,2.0,2.495017304085195,116.41008261102252,None,116.41008261102252,None,116.41008261102252,None,1,2022_Apr_07_1150,Semantic-hierachy,2021.1.2,59.8348842750952,
29,Trial # 30,layer6-8_T10_to_T9.jpg,layer6-8/layer6-8_T10_to_T9.jpg,TT,layer6-8,0.0,29.0,29.0,29.0,,,,,,,,,123.54530069814064,None,2.0,18.530935565009717,123.54530069814064,None,123.54530069814064,None,123.54530069814064,None,1,2022_Apr_07_1150,Semantic-hierachy,2021.1.2,59.8348842750952,
30,Trial # 31,layer9-17_O1_to_O8.jpg,layer9-17/layer9-17_O1_to_O8.jpg,OO,layer9-17,0.0,30.0,30.0,30.0,,,,,,,,,144.58507457002997,None,2.0,2.6211508389096707,144.58507457002997,None,144.58507457002997,None,144.58507457002997,None,1,2022_Apr_07_1150,Semantic-hierachy,2021.1.2,59.8348842750952,
31,Trial # 32,layer9-17_O12_to_O7.jpg,layer9-17/layer9-17_O12_to_O7.jpg,OO,layer9-17,0.0,31.0,31.0,31.0,,,,,,,,,147.83631836506538,None,2.0,1.1892897142097354,147.83631836506538,None,147.83631836506538,None,147.83631836506538,None,1,2022_Apr_07_1150,Semantic-hierachy,2021.1.2,59.8348842750952,
32,Trial # 33,layer9-17_T10_to_T12.jpg,layer9-17/layer9-17_T10_to_T12.jpg,TT,layer9-17,0.0,32.0,32.0,32.0,,,,,,,,,149.50387890613638,None,2.0,4.314228427130729,149.50387890613638,None,149.50387890613638,None,149.50387890613638,None,1,2022_Apr_07_1150,Semantic-hierachy,2021.1.2,59.8348842750952,
33,Trial # 34,layer0-5_T2_to_T6.jpg,layer0-5/layer0-5_T2_to_T6.jpg,TT,layer0-5,0.0,33.0,33.0,33.0,,,,,,,,,154.2717652239371,None,1.0,2.141783898929134,154.2717652239371,None,154.2717652239371,None,154.2717652239371,None,1,2022_Apr_07_1150,Semantic-hierachy,2021.1.2,59.8348842750952,
34,Trial # 35,layer6-8_T11_to_T2.jpg,layer6-8/layer6-8_T11_to_T2.jpg,TT,layer6-8,0.0,34.0,34.0,34.0,,,,,,,,,156.73952676309273,None,4.0,4.922085164114833,156.73952676309273,None,156.73952676309273,None,156.73952676309273,None,1,2022_Apr_07_1150,Semantic-hierachy,2021.1.2,59.8348842750952,
35,Trial # 36,layer6-8_O4_to_T3.jpg,layer6-8/layer6-8_O4_to_T3.jpg,OT,layer6-8,0.0,35.0,35.0,35.0,,,,,,,,,161.9748575829435,None,3.0,2.497805556980893,161.9748575829435,None,161.9748575829435,None,161.9748575829435,None,1,2022_Apr_07_1150,Semantic-hierachy,2021.1.2,59.8348842750952,
36,Trial # 37,layer6-8_O3_to_T11.jpg,layer6-8/layer6-8_O3_to_T11.jpg,OT,layer6-8,0.0,36.0,36.0,36.0,,,,,,,,,165.02533612097614,None,3.0,1.9587983479723332,165.02533612097614,None,165.02533612097614,None,165.02533612097614,None,1,2022_Apr_07_1150,Semantic-hierachy,2021.1.2,59.8348842750952,
37,Trial # 38,layer6-8_T1_to_T2.jpg,layer6-8/layer6-8_T1_to_T2.jpg,TT,layer6-8,0.0,37.0,37.0,37.0,,,,,,,,,169.35929576400667,None,3.0,2.5253338559996337,169.35929576400667,None,169.35929576400667,None,169.35929576400667,None,1,2022_Apr_07_1150,Semantic-hierachy,2021.1.2,59.8348842750952,
38,Trial # 39,layer9-17_O2_to_O6.jpg,layer9-17/layer9-17_O2_to_O6.jpg,OO,layer9-17,0.0,38.0,38.0,38.0,,,,,,,,,172.99394349800423,None,4.0,5.991993668023497,172.99394349800423,None,172.99394349800423,None,172.99394349800423,None,1,2022_Apr_07_1150,Semantic-hierachy,2021.1.2,59.8348842750952,
39,Trial # 40,layer9-17_O4_to_T2.jpg,layer9-17/layer9-17_O4_to_T2.jpg,OT,layer9-17,0.0,39.0,39.0,39.0,,,,,,,,,179.67924621794373,None,2.0,4.806407557800412,179.67924621794373,None,179.67924621794373,None,179.67924621794373,None,1,2022_Apr_07_1150,Semantic-hierachy,2021.1.2,59.8348842750952,
40,Trial # 41,layer6-8_O5_to_T3.jpg,layer6-8/layer6-8_O5_to_T3.jpg,OT,layer6-8,0.0,40.0,40.0,40.0,,,,,,,,,184.814227885101,None,3.0,60.42732709180564,184.814227885101,None,184.814227885101,None,184.814227885101,None,1,2022_Apr_07_1150,Semantic-hierachy,2021.1.2,59.8348842750952,
41,Trial # 42,layer6-8_O2_to_O3.jpg,layer6-8/layer6-8_O2_to_O3.jpg,OO,layer6-8,0.0,41.0,41.0,41.0,,,,,,,,,245.7669825020712,None,4.0,7.674018200021237,245.7669825020712,None,245.7669825020712,None,245.7669825020712,None,1,2022_Apr_07_1150,Semantic-hierachy,2021.1.2,59.8348842750952,
42,Trial # 43,layer6-8_O1_to_T6.jpg,layer6-8/layer6-8_O1_to_T6.jpg,OT,layer6-8,0.0,42.0,42.0,42.0,,,,,,,,,254.03574490896423,None,2.0,8.75998955196701,254.03574490896423,None,254.03574490896423,None,254.03574490896423,None,1,2022_Apr_07_1150,Semantic-hierachy,2021.1.2,59.8348842750952,
43,Trial # 44,layer6-8_O2_to_T12.jpg,layer6-8/layer6-8_O2_to_T12.jpg,OT,layer6-8,0.0,43.0,43.0,43.0,,,,,,,,,265.2723857269157,None,3.0,5.316828045994043,265.2723857269157,None,265.2723857269157,None,265.2723857269157,None,1,2022_Apr_07_1150,Semantic-hierachy,2021.1.2,59.8348842750952,
44,Trial # 45,layer9-17_O2_to_O8.jpg,layer9-17/layer9-17_O2_to_O8.jpg,OO,layer9-17,0.0,44.0,44.0,44.0,,,,,,,,,271.72547711711377,None,4.0,5.474690405884758,271.72547711711377,None,271.72547711711377,None,271.72547711711377,None,1,2022_Apr_07_1150,Semantic-hierachy,2021.1.2,59.8348842750952,
45,Trial # 46,layer9-17_O10_to_O4.jpg,layer9-17/layer9-17_O10_to_O4.jpg,OO,layer9-17,0.0,45.0,45.0,45.0,,,,,,,,,278.527039132081,None,2.0,4.205923760076985,278.527039132081,None,278.527039132081,None,278.527039132081,None,1,2022_Apr_07_1150,Semantic-hierachy,2021.1.2,59.8348842750952,
46,Trial # 47,layer0-5_O1_to_O4.jpg,layer0-5/layer0-5_O1_to_O4.jpg,OO,layer0-5,0.0,46.0,46.0,46.0,,,,,,,,,283.0112754169386,None,1.0,2.244504507863894,283.0112754169386,None,283.0112754169386,None,283.0112754169386,None,1,2022_Apr_07_1150,Semantic-hierachy,2021.1.2,59.8348842750952,
47,Trial # 48,layer0-5_T4_to_T5.jpg,layer0-5/layer0-5_T4_to_T5.jpg,TT,layer0-5,0.0,47.0,47.0,47.0,,,,,,,,,285.64657967397943,None,1.0,2.4426697918679565,285.64657967397943,None,285.64657967397943,None,285.64657967397943,None,1,2022_Apr_07_1150,Semantic-hierachy,2021.1.2,59.8348842750952,
48,Trial # 49,layer9-17_T12_to_T8.jpg,layer9-17/layer9-17_T12_to_T8.jpg,TT,layer9-17,0.0,48.0,48.0,48.0,,,,,,,,,288.66304740007035,None,2.0,2.0049735200591385,288.66304740007035,None,288.66304740007035,None,288.66304740007035,None,1,2022_Apr_07_1150,Semantic-hierachy,2021.1.2,59.8348842750952,
49,Trial # 50,layer0-5_T10_to_T5.jpg,layer0-5/layer0-5_T10_to_T5.jpg,TT,layer0-5,0.0,49.0,49.0,49.0,,,,,,,,,290.99818604812026,None,1.0,1.9475807598792017,290.99818604812026,None,290.99818604812026,None,290.99818604812026,None,1,2022_Apr_07_1150,Semantic-hierachy,2021.1.2,59.8348842750952,
50,Trial # 51,layer6-8_O10_to_O8.jpg,layer6-8/layer6-8_O10_to_O8.jpg,OO,layer6-8,0.0,50.0,50.0,50.0,,,,,,,,,293.6648396740202,None,2.0,2.372089138953015,293.6648396740202,None,293.6648396740202,None,293.6648396740202,None,1,2022_Apr_07_1150,Semantic-hierachy,2021.1.2,59.8348842750952,
51,Trial # 52,layer9-17_O3_to_O5.jpg,layer9-17/layer9-17_O3_to_O5.jpg,OO,layer9-17,0.0,51.0,51.0,51.0,,,,,,,,,297.15035054506734,None,2.0,1.5470261150039732,297.15035054506734,None,297.15035054506734,None,297.15035054506734,None,1,2022_Apr_07_1150,Semantic-hierachy,2021.1.2,59.8348842750952,
52,Trial # 53,layer6-8_T1_to_T12.jpg,layer6-8/layer6-8_T1_to_T12.jpg,TT,layer6-8,0.0,52.0,52.0,52.0,,,,,,,,,299.0161204061005,None,3.0,3.978667938848957,299.0161204061005,None,299.0161204061005,None,299.0161204061005,None,1,2022_Apr_07_1150,Semantic-hierachy,2021.1.2,59.8348842750952,
53,Trial # 54,layer0-5_O4_to_O9.jpg,layer0-5/layer0-5_O4_to_O9.jpg,OO,layer0-5,0.0,53.0,53.0,53.0,,,,,,,,,303.5180255139712,None,1.0,2.344667803961784,303.5180255139712,None,303.5180255139712,None,303.5180255139712,None,1,2022_Apr_07_1150,Semantic-hierachy,2021.1.2,59.8348842750952,
54,Trial # 55,layer0-5_O5_to_O9.jpg,layer0-5/layer0-5_O5_to_O9.jpg,OO,layer0-5,0.0,54.0,54.0,54.0,,,,,,,,,306.6197772889864,None,1.0,1.375658225035295,306.6197772889864,None,306.6197772889864,None,306.6197772889864,None,1,2022_Apr_07_1150,Semantic-hierachy,2021.1.2,59.8348842750952,
55,Trial # 56,layer0-5_O1_to_O2.jpg,layer0-5/layer0-5_O1_to_O2.jpg,OO,layer0-5,0.0,55.0,55.0,55.0,,,,,,,,,308.43581450311467,None,1.0,1.0283573209308088,308.43581450311467,None,308.43581450311467,None,308.43581450311467,None,1,2022_Apr_07_1150,Semantic-hierachy,2021.1.2,59.8348842750952,
56,Trial # 57,layer9-17_T12_to_T3.jpg,layer9-17/layer9-17_T12_to_T3.jpg,TT,layer9-17,0.0,56.0,56.0,56.0,,,,,,,,,309.8529611800332,None,2.0,1.692720773164183,309.8529611800332,None,309.8529611800332,None,309.8529611800332,None,1,2022_Apr_07_1150,Semantic-hierachy,2021.1.2,59.8348842750952,
57,Trial # 58,layer0-5_O7_to_O9.jpg,layer0-5/layer0-5_O7_to_O9.jpg,OO,layer0-5,0.0,57.0,57.0,57.0,,,,,,,,,312.0883348030038,None,1.0,3.0518640629015863,312.0883348030038,None,312.0883348030038,None,312.0883348030038,None,1,2022_Apr_07_1150,Semantic-hierachy,2021.1.2,59.8348842750952,
58,Trial # 59,layer0-5_T5_to_T9.jpg,layer0-5/layer0-5_T5_to_T9.jpg,TT,layer0-5,0.0,58.0,58.0,58.0,,,,,,,,,315.50491336593404,None,1.0,1.1917941221036017,315.50491336593404,None,315.50491336593404,None,315.50491336593404,None,1,2022_Apr_07_1150,Semantic-hierachy,2021.1.2,59.8348842750952,
59,Trial # 60,layer9-17_O1_to_O9.jpg,layer9-17/layer9-17_O1_to_O9.jpg,OO,layer9-17,0.0,59.0,59.0,59.0,,,,,,,,,317.08966733608395,None,4.0,3.693207721924409,317.08966733608395,None,317.08966733608395,None,317.08966733608395,None,1,2022_Apr_07_1150,Semantic-hierachy,2021.1.2,59.8348842750952,
60,Trial # 61,layer0-5_O6_to_O7.jpg,layer0-5/layer0-5_O6_to_O7.jpg,OO,layer0-5,0.0,60.0,60.0,60.0,,,,,,,,,321.14113222807646,None,1.0,2.7549438229762018,321.14113222807646,None,321.14113222807646,None,321.14113222807646,None,1,2022_Apr_07_1150,Semantic-hierachy,2021.1.2,59.8348842750952,
61,Trial # 62,layer9-17_T5_to_T6.jpg,layer9-17/layer9-17_T5_to_T6.jpg,TT,layer9-17,0.0,61.0,61.0,61.0,,,,,,,,,324.2742232559249,None,2.0,2.3921334019396454,324.2742232559249,None,324.2742232559249,None,324.2742232559249,None,1,2022_Apr_07_1150,Semantic-hierachy,2021.1.2,59.8348842750952,
62,Trial # 63,layer9-17_T4_to_T9.jpg,layer9-17/layer9-17_T4_to_T9.jpg,TT,layer9-17,0.0,62.0,62.0,62.0,,,,,,,,,327.4594904431142,None,2.0,1.2231297309044749,327.4594904431142,None,327.4594904431142,None,327.4594904431142,None,1,2022_Apr_07_1150,Semantic-hierachy,2021.1.2,59.8348842750952,
63,Trial # 64,layer0-5_O11_to_T1.jpg,layer0-5/layer0-5_O11_to_T1.jpg,OT,layer0-5,0.0,63.0,63.0,63.0,,,,,,,,,329.1422946329694,None,1.0,2.364933948032558,329.1422946329694,None,329.1422946329694,None,329.1422946329694,None,1,2022_Apr_07_1150,Semantic-hierachy,2021.1.2,59.8348842750952,
64,Trial # 65,layer6-8_T5_to_T9.jpg,layer6-8/layer6-8_T5_to_T9.jpg,TT,layer6-8,0.0,64.0,64.0,64.0,,,,,,,,,332.17654888913967,None,4.0,4.381206064950675,332.17654888913967,None,332.17654888913967,None,332.17654888913967,None,1,2022_Apr_07_1150,Semantic-hierachy,2021.1.2,59.8348842750952,
65,Trial # 66,layer0-5_T4_to_T7.jpg,layer0-5/layer0-5_T4_to_T7.jpg,TT,layer0-5,0.0,65.0,65.0,65.0,,,,,,,,,336.9623884661123,None,1.0,2.47573369089514,336.9623884661123,None,336.9623884661123,None,336.9623884661123,None,1,2022_Apr_07_1150,Semantic-hierachy,2021.1.2,59.8348842750952,
66,Trial # 67,layer0-5_O2_to_O6.jpg,layer0-5/layer0-5_O2_to_O6.jpg,OO,layer0-5,0.0,66.0,66.0,66.0,,,,,,,,,339.74565929407254,None,1.0,0.9595575639978052,339.74565929407254,None,339.74565929407254,None,339.74565929407254,None,1,2022_Apr_07_1150,Semantic-hierachy,2021.1.2,59.8348842750952,
67,Trial # 68,layer9-17_O12_to_T3.jpg,layer9-17/layer9-17_O12_to_T3.jpg,OT,layer9-17,0.0,67.0,67.0,67.0,,,,,,,,,341.0630009791348,None,2.0,1.5760528040118515,341.0630009791348,None,341.0630009791348,None,341.0630009791348,None,1,2022_Apr_07_1150,Semantic-hierachy,2021.1.2,59.8348842750952,
68,Trial # 69,layer9-17_O7_to_O9.jpg,layer9-17/layer9-17_O7_to_O9.jpg,OO,layer9-17,0.0,68.0,68.0,68.0,,,,,,,,,342.8966069179587,None,4.0,4.312673144973815,342.8966069179587,None,342.8966069179587,None,342.8966069179587,None,1,2022_Apr_07_1150,Semantic-hierachy,2021.1.2,59.8348842750952,
69,Trial # 70,layer9-17_T1_to_T8.jpg,layer9-17/layer9-17_T1_to_T8.jpg,TT,layer9-17,0.0,69.0,69.0,69.0,,,,,,,,,348.4818471840117,None,4.0,6.812914178008214,348.4818471840117,None,348.4818471840117,None,348.4818471840117,None,1,2022_Apr_07_1150,Semantic-hierachy,2021.1.2,59.8348842750952,
70,Trial # 71,layer0-5_O3_to_T8.jpg,layer0-5/layer0-5_O3_to_T8.jpg,OT,layer0-5,0.0,70.0,70.0,70.0,,,,,,,,,355.8007750019897,None,1.0,3.763968952000141,355.8007750019897,None,355.8007750019897,None,355.8007750019897,None,1,2022_Apr_07_1150,Semantic-hierachy,2021.1.2,59.8348842750952,
71,Trial # 72,layer9-17_O9_to_T2.jpg,layer9-17/layer9-17_O9_to_T2.jpg,OT,layer9-17,0.0,71.0,71.0,71.0,,,,,,,,,360.95348989008926,None,2.0,2.1002850451041013,360.95348989008926,None,360.95348989008926,None,360.95348989008926,None,1,2022_Apr_07_1150,Semantic-hierachy,2021.1.2,59.8348842750952,
72,Trial # 73,layer9-17_O5_to_O7.jpg,layer9-17/layer9-17_O5_to_O7.jpg,OO,layer9-17,0.0,72.0,72.0,72.0,,,,,,,,,363.4861452970654,None,2.0,2.0445809939410537,363.4861452970654,None,363.4861452970654,None,363.4861452970654,None,1,2022_Apr_07_1150,Semantic-hierachy,2021.1.2,59.8348842750952,
73,Trial # 74,layer0-5_T11_to_T9.jpg,layer0-5/layer0-5_T11_to_T9.jpg,TT,layer0-5,0.0,73.0,73.0,73.0,,,,,,,,,365.9547182689421,None,1.0,1.6117831969168035,365.9547182689421,None,365.9547182689421,None,365.9547182689421,None,1,2022_Apr_07_1150,Semantic-hierachy,2021.1.2,59.8348842750952,
74,Trial # 75,layer0-5_O11_to_T12.jpg,layer0-5/layer0-5_O11_to_T12.jpg,OT,layer0-5,0.0,74.0,74.0,74.0,,,,,,,,,367.87154522095807,None,1.0,1.3940816030371934,367.87154522095807,None,367.87154522095807,None,367.87154522095807,None,1,2022_Apr_07_1150,Semantic-hierachy,2021.1.2,59.8348842750952,
75,Trial # 76,layer9-17_T7_to_T9.jpg,layer9-17/layer9-17_T7_to_T9.jpg,TT,layer9-17,0.0,75.0,75.0,75.0,,,,,,,,,369.58873026794754,None,4.0,5.055423631099984,369.58873026794754,None,369.58873026794754,None,369.58873026794754,None,1,2022_Apr_07_1150,Semantic-hierachy,2021.1.2,59.8348842750952,
76,Trial # 77,layer6-8_O6_to_T2.jpg,layer6-8/layer6-8_O6_to_T2.jpg,OT,layer6-8,0.0,76.0,76.0,76.0,,,,,,,,,375.0900184630882,None,3.0,4.394047531066462,375.0900184630882,None,375.0900184630882,None,375.0900184630882,None,1,2022_Apr_07_1150,Semantic-hierachy,2021.1.2,59.8348842750952,
77,Trial # 78,layer9-17_T4_to_T5.jpg,layer9-17/layer9-17_T4_to_T5.jpg,TT,layer9-17,0.0,77.0,77.0,77.0,,,,,,,,,381.1094396191184,None,2.0,2.082444261061028,381.1094396191184,None,381.1094396191184,None,381.1094396191184,None,1,2022_Apr_07_1150,Semantic-hierachy,2021.1.2,59.8348842750952,
78,Trial # 79,layer0-5_T2_to_T4.jpg,layer0-5/layer0-5_T2_to_T4.jpg,TT,layer0-5,0.0,78.0,78.0,78.0,,,,,,,,,383.5255650051404,None,1.0,2.064949120860547,383.5255650051404,None,383.5255650051404,None,383.5255650051404,None,1,2022_Apr_07_1150,Semantic-hierachy,2021.1.2,59.8348842750952,
79,Trial # 80,layer0-5_T2_to_T8.jpg,layer0-5/layer0-5_T2_to_T8.jpg,TT,layer0-5,0.0,79.0,79.0,79.0,,,,,,,,,385.97759919497184,None,1.0,1.945180255919695,385.97759919497184,None,385.97759919497184,None,385.97759919497184,None,1,2022_Apr_07_1150,Semantic-hierachy,2021.1.2,59.8348842750952,
80,Trial # 81,layer9-17_T3_to_T9.jpg,layer9-17/layer9-17_T3_to_T9.jpg,TT,layer9-17,0.0,80.0,80.0,80.0,,,,,,,,,388.9771544660907,None,2.0,2.172962683951482,388.9771544660907,None,388.9771544660907,None,388.9771544660907,None,1,2022_Apr_07_1150,Semantic-hierachy,2021.1.2,59.8348842750952,
81,Trial # 82,layer9-17_O2_to_O5.jpg,layer9-17/layer9-17_O2_to_O5.jpg,OO,layer9-17,0.0,81.0,81.0,81.0,,,,,,,,,391.4791848380119,None,2.0,5.749595070956275,391.4791848380119,None,391.4791848380119,None,391.4791848380119,None,1,2022_Apr_07_1150,Semantic-hierachy,2021.1.2,59.8348842750952,
82,Trial # 83,layer6-8_O6_to_O7.jpg,layer6-8/layer6-8_O6_to_O7.jpg,OO,layer6-8,0.0,82.0,82.0,82.0,,,,,,,,,397.52998450002633,None,3.0,3.7474599410779774,397.52998450002633,None,397.52998450002633,None,397.52998450002633,None,1,2022_Apr_07_1150,Semantic-hierachy,2021.1.2,59.8348842750952,
83,Trial # 84,layer9-17_O11_to_T1.jpg,layer9-17/layer9-17_O11_to_T1.jpg,OT,layer9-17,0.0,83.0,83.0,83.0,,,,,,,,,401.849037759006,None,2.0,1.999000128125772,401.849037759006,None,401.849037759006,None,401.849037759006,None,1,2022_Apr_07_1150,Semantic-hierachy,2021.1.2,59.8348842750952,
84,Trial # 85,layer6-8_O5_to_T12.jpg,layer6-8/layer6-8_O5_to_T12.jpg,OT,layer6-8,0.0,84.0,84.0,84.0,,,,,,,,,404.2652316240128,None,3.0,1.828196455957368,404.2652316240128,None,404.2652316240128,None,404.2652316240128,None,1,2022_Apr_07_1150,Semantic-hierachy,2021.1.2,59.8348842750952,
85,Trial # 86,layer6-8_O4_to_O7.jpg,layer6-8/layer6-8_O4_to_O7.jpg,OO,layer6-8,0.0,85.0,85.0,85.0,,,,,,,,,406.400749880122,None,4.0,4.732972397934645,406.400749880122,None,406.400749880122,None,406.400749880122,None,1,2022_Apr_07_1150,Semantic-hierachy,2021.1.2,59.8348842750952,
86,Trial # 87,layer6-8_T10_to_T8.jpg,layer6-8/layer6-8_T10_to_T8.jpg,TT,layer6-8,0.0,86.0,86.0,86.0,,,,,,,,,411.4353563240729,None,2.0,1.7435401459224522,411.4353563240729,None,411.4353563240729,None,411.4353563240729,None,1,2022_Apr_07_1150,Semantic-hierachy,2021.1.2,59.8348842750952,
87,Trial # 88,layer6-8_O10_to_T3.jpg,layer6-8/layer6-8_O10_to_T3.jpg,OT,layer6-8,0.0,87.0,87.0,87.0,,,,,,,,,413.5192848879378,None,3.0,4.00039617693983,413.5192848879378,None,413.5192848879378,None,413.5192848879378,None,1,2022_Apr_07_1150,Semantic-hierachy,2021.1.2,59.8348842750952,
88,Trial # 89,layer6-8_O5_to_O9.jpg,layer6-8/layer6-8_O5_to_O9.jpg,OO,layer6-8,0.0,88.0,88.0,88.0,,,,,,,,,418.61978152696975,None,3.0,5.778345550876111,418.61978152696975,None,418.61978152696975,None,418.61978152696975,None,1,2022_Apr_07_1150,Semantic-hierachy,2021.1.2,59.8348842750952,
89,Trial # 90,layer6-8_O10_to_O11.jpg,layer6-8/layer6-8_O10_to_O11.jpg,OO,layer6-8,0.0,89.0,89.0,89.0,,,,,,,,,425.7567032780498,None,2.0,2.0815756479278207,425.7567032780498,None,425.7567032780498,None,425.7567032780498,None,1,2022_Apr_07_1150,Semantic-hierachy,2021.1.2,59.8348842750952,
90,Trial # 91,layer0-5_O4_to_T5.jpg,layer0-5/layer0-5_O4_to_T5.jpg,OT,layer0-5,0.0,90.0,90.0,90.0,,,,,,,,,428.2562649659813,None,1.0,1.960190563928336,428.2562649659813,None,428.2562649659813,None,428.2562649659813,None,1,2022_Apr_07_1150,Semantic-hierachy,2021.1.2,59.8348842750952,
91,Trial # 92,layer0-5_T11_to_T12.jpg,layer0-5/layer0-5_T11_to_T12.jpg,TT,layer0-5,0.0,91.0,91.0,91.0,,,,,,,,,430.6248952089809,None,1.0,1.1444073929451406,430.6248952089809,None,430.6248952089809,None,430.6248952089809,None,1,2022_Apr_07_1150,Semantic-hierachy,2021.1.2,59.8348842750952,
92,Trial # 93,layer0-5_T10_to_T3.jpg,layer0-5/layer0-5_T10_to_T3.jpg,TT,layer0-5,0.0,92.0,92.0,92.0,,,,,,,,,432.19188379799016,None,1.0,1.113131487974897,432.19188379799016,None,432.19188379799016,None,432.19188379799016,None,1,2022_Apr_07_1150,Semantic-hierachy,2021.1.2,59.8348842750952,
93,Trial # 94,layer0-5_O2_to_O8.jpg,layer0-5/layer0-5_O2_to_O8.jpg,OO,layer0-5,0.0,93.0,93.0,93.0,,,,,,,,,433.6580367749557,None,1.0,1.1457931941840798,433.6580367749557,None,433.6580367749557,None,433.6580367749557,None,1,2022_Apr_07_1150,Semantic-hierachy,2021.1.2,59.8348842750952,
94,Trial # 95,layer0-5_T3_to_T8.jpg,layer0-5/layer0-5_T3_to_T8.jpg,TT,layer0-5,0.0,94.0,94.0,94.0,,,,,,,,,435.1083023000974,None,1.0,0.9955129609443248,435.1083023000974,None,435.1083023000974,None,435.1083023000974,None,1,2022_Apr_07_1150,Semantic-hierachy,2021.1.2,59.8348842750952,
95,Trial # 96,layer0-5_O7_to_O8.jpg,layer0-5/layer0-5_O7_to_O8.jpg,OO,layer0-5,0.0,95.0,95.0,95.0,,,,,,,,,437.010100933956,None,1.0,1.3955379500985146,437.010100933956,None,437.010100933956,None,437.010100933956,None,1,2022_Apr_07_1150,Semantic-hierachy,2021.1.2,59.8348842750952,
96,Trial # 97,layer6-8_T10_to_T6.jpg,layer6-8/layer6-8_T10_to_T6.jpg,TT,layer6-8,0.0,96.0,96.0,96.0,,,,,,,,,438.8093561790884,None,2.0,1.7147649680264294,438.8093561790884,None,438.8093561790884,None,438.8093561790884,None,1,2022_Apr_07_1150,Semantic-hierachy,2021.1.2,59.8348842750952,
97,Trial # 98,layer0-5_O1_to_O5.jpg,layer0-5/layer0-5_O1_to_O5.jpg,OO,layer0-5,0.0,97.0,97.0,97.0,,,,,,,,,441.1106691570021,None,1.0,1.5151074649766088,441.1106691570021,None,441.1106691570021,None,441.1106691570021,None,1,2022_Apr_07_1150,Semantic-hierachy,2021.1.2,59.8348842750952,
98,Trial # 99,layer6-8_O1_to_O6.jpg,layer6-8/layer6-8_O1_to_O6.jpg,OO,layer6-8,0.0,98.0,98.0,98.0,,,,,,,,,443.077641294105,None,2.0,1.861340296920389,443.077641294105,None,443.077641294105,None,443.077641294105,None,1,2022_Apr_07_1150,Semantic-hierachy,2021.1.2,59.8348842750952,
99,Trial # 100,layer6-8_O3_to_T1.jpg,layer6-8/layer6-8_O3_to_T1.jpg,OT,layer6-8,0.0,99.0,99.0,99.0,,,,,,,,,447.4620833909139,None,3.0,1.998070993926376,447.4620833909139,None,447.4620833909139,None,447.4620833909139,None,1,2022_Apr_07_1150,Semantic-hierachy,2021.1.2,59.8348842750952,
100,Trial # 101,layer6-8_T1_to_T9.jpg,layer6-8/layer6-8_T1_to_T9.jpg,TT,layer6-8,0.0,100.0,100.0,100.0,,,,,,,,,450.32926919707097,None,4.0,6.775878658983856,450.32926919707097,None,450.32926919707097,None,450.32926919707097,None,1,2022_Apr_07_1150,Semantic-hierachy,2021.1.2,59.8348842750952,
101,Trial # 102,layer9-17_O12_to_O6.jpg,layer9-17/layer9-17_O12_to_O6.jpg,OO,layer9-17,0.0,101.0,101.0,101.0,,,,,,,,,457.8994751931168,None,2.0,1.9418146698735652,457.8994751931168,None,457.8994751931168,None,457.8994751931168,None,1,2022_Apr_07_1150,Semantic-hierachy,2021.1.2,59.8348842750952,
102,Trial # 103,layer0-5_T4_to_T9.jpg,layer0-5/layer0-5_T4_to_T9.jpg,TT,layer0-5,0.0,102.0,102.0,102.0,,,,,,,,,460.1328664941248,None,1.0,1.4835572249721736,460.1328664941248,None,460.1328664941248,None,460.1328664941248,None,1,2022_Apr_07_1150,Semantic-hierachy,2021.1.2,59.8348842750952,
103,Trial # 104,layer6-8_O10_to_T1.jpg,layer6-8/layer6-8_O10_to_T1.jpg,OT,layer6-8,0.0,103.0,103.0,103.0,,,,,,,,,462.0014512790367,None,3.0,2.9955339510925114,462.0014512790367,None,462.0014512790367,None,462.0014512790367,None,1,2022_Apr_07_1150,Semantic-hierachy,2021.1.2,59.8348842750952,
104,Trial # 105,layer0-5_O6_to_T2.jpg,layer0-5/layer0-5_O6_to_T2.jpg,OT,layer0-5,0.0,104.0,104.0,104.0,,,,,,,,,465.70194320497103,None,1.0,2.910608367994428,465.70194320497103,None,465.70194320497103,None,465.70194320497103,None,1,2022_Apr_07_1150,Semantic-hierachy,2021.1.2,59.8348842750952,
105,Trial # 106,layer9-17_T11_to_T2.jpg,layer9-17/layer9-17_T11_to_T2.jpg,TT,layer9-17,0.0,105.0,105.0,105.0,,,,,,,,,468.95214712503366,None,2.0,1.459971684962511,468.95214712503366,None,468.95214712503366,None,468.95214712503366,None,1,2022_Apr_07_1150,Semantic-hierachy,2021.1.2,59.8348842750952,
106,Trial # 107,layer9-17_O12_to_O8.jpg,layer9-17/layer9-17_O12_to_O8.jpg,OO,layer9-17,0.0,106.0,106.0,106.0,,,,,,,,,470.7370957899839,None,2.0,1.1247173890005795,470.7370957899839,None,470.7370957899839,None,470.7370957899839,None,1,2022_Apr_07_1150,Semantic-hierachy,2021.1.2,59.8348842750952,
107,Trial # 108,layer0-5_T12_to_T3.jpg,layer0-5/layer0-5_T12_to_T3.jpg,TT,layer0-5,0.0,107.0,107.0,107.0,,,,,,,,,472.2709632399492,None,1.0,1.7798156689386817,472.2709632399492,None,472.2709632399492,None,472.2709632399492,None,1,2022_Apr_07_1150,Semantic-hierachy,2021.1.2,59.8348842750952,
108,Trial # 109,layer0-5_T1_to_T10.jpg,layer0-5/layer0-5_T1_to_T10.jpg,TT,layer0-5,0.0,108.0,108.0,108.0,,,,,,,,,474.48770606098697,None,1.0,0.9664382159244268,474.48770606098697,None,474.48770606098697,None,474.48770606098697,None,1,2022_Apr_07_1150,Semantic-hierachy,2021.1.2,59.8348842750952,
109,Trial # 110,layer6-8_O4_to_T5.jpg,layer6-8/layer6-8_O4_to_T5.jpg,OT,layer6-8,0.0,109.0,109.0,109.0,,,,,,,,,475.8888862349559,None,3.0,3.261611001798883,475.8888862349559,None,475.8888862349559,None,475.8888862349559,None,1,2022_Apr_07_1150,Semantic-hierachy,2021.1.2,59.8348842750952,
110,Trial # 111,layer9-17_O11_to_O7.jpg,layer9-17/layer9-17_O11_to_O7.jpg,OO,layer9-17,0.0,110.0,110.0,110.0,,,,,,,,,479.404906675918,None,2.0,1.682716490002349,479.404906675918,None,479.404906675918,None,479.404906675918,None,1,2022_Apr_07_1150,Semantic-hierachy,2021.1.2,59.8348842750952,
111,Trial # 112,layer0-5_O5_to_O8.jpg,layer0-5/layer0-5_O5_to_O8.jpg,OO,layer0-5,0.0,111.0,111.0,111.0,,,,,,,,,481.44034420512617,None,1.0,1.3447184909600765,481.44034420512617,None,481.44034420512617,None,481.44034420512617,None,1,2022_Apr_07_1150,Semantic-hierachy,2021.1.2,59.8348842750952,
112,Trial # 113,layer0-5_O10_to_O4.jpg,layer0-5/layer0-5_O10_to_O4.jpg,OO,layer0-5,0.0,112.0,112.0,112.0,,,,,,,,,483.1232604600955,None,1.0,1.14258349314332,483.1232604600955,None,483.1232604600955,None,483.1232604600955,None,1,2022_Apr_07_1150,Semantic-hierachy,2021.1.2,59.8348842750952,
113,Trial # 114,layer9-17_O4_to_O8.jpg,layer9-17/layer9-17_O4_to_O8.jpg,OO,layer9-17,0.0,113.0,113.0,113.0,,,,,,,,,484.5568083950784,None,3.0,4.530060112010688,484.5568083950784,None,484.5568083950784,None,484.5568083950784,None,1,2022_Apr_07_1150,Semantic-hierachy,2021.1.2,59.8348842750952,
114,Trial # 115,layer0-5_O2_to_T8.jpg,layer0-5/layer0-5_O2_to_T8.jpg,OT,layer0-5,0.0,114.0,114.0,114.0,,,,,,,,,489.5417685329448,None,1.0,1.3091906919144094,489.5417685329448,None,489.5417685329448,None,489.5417685329448,None,1,2022_Apr_07_1150,Semantic-hierachy,2021.1.2,59.8348842750952,
115,Trial # 116,layer9-17_T2_to_T3.jpg,layer9-17/layer9-17_T2_to_T3.jpg,TT,layer9-17,0.0,115.0,115.0,115.0,,,,,,,,,491.1603665619623,None,2.0,1.5152464169077575,491.1603665619623,None,491.1603665619623,None,491.1603665619623,None,1,2022_Apr_07_1150,Semantic-hierachy,2021.1.2,59.8348842750952,
116,Trial # 117,layer6-8_O1_to_T10.jpg,layer6-8/layer6-8_O1_to_T10.jpg,OT,layer6-8,0.0,116.0,116.0,116.0,,,,,,,,,493.4598859860562,None,3.0,4.045075888046995,493.4598859860562,None,493.4598859860562,None,493.4598859860562,None,1,2022_Apr_07_1150,Semantic-hierachy,2021.1.2,59.8348842750952,
117,Trial # 118,layer0-5_T3_to_T7.jpg,layer0-5/layer0-5_T3_to_T7.jpg,TT,layer0-5,0.0,117.0,117.0,117.0,,,,,,,,,498.02830601204187,None,1.0,2.0166402750182897,498.02830601204187,None,498.02830601204187,None,498.02830601204187,None,1,2022_Apr_07_1150,Semantic-hierachy,2021.1.2,59.8348842750952,
118,Trial # 119,layer9-17_O1_to_O12.jpg,layer9-17/layer9-17_O1_to_O12.jpg,OO,layer9-17,0.0,118.0,118.0,118.0,,,,,,,,,500.3785953570623,None,2.0,1.5343435630202291,500.3785953570623,None,500.3785953570623,None,500.3785953570623,None,1,2022_Apr_07_1150,Semantic-hierachy,2021.1.2,59.8348842750952,
119,Trial # 120,layer6-8_O12_to_O2.jpg,layer6-8/layer6-8_O12_to_O2.jpg,OO,layer6-8,0.0,119.0,119.0,119.0,,,,,,,,,502.2134078689851,None,3.0,2.8490130309946835,502.2134078689851,None,502.2134078689851,None,502.2134078689851,None,1,2022_Apr_07_1150,Semantic-hierachy,2021.1.2,59.8348842750952,
120,Trial # 121,layer9-17_O10_to_O9.jpg,layer9-17/layer9-17_O10_to_O9.jpg,OO,layer9-17,0.0,120.0,120.0,120.0,,,,,,,,,505.6315547369886,None,2.0,1.6173399270046502,505.6315547369886,None,505.6315547369886,None,505.6315547369886,None,1,2022_Apr_07_1150,Semantic-hierachy,2021.1.2,59.8348842750952,
121,Trial # 122,layer6-8_O4_to_T10.jpg,layer6-8/layer6-8_O4_to_T10.jpg,OT,layer6-8,0.0,121.0,121.0,121.0,,,,,,,,,507.6308235770557,None,3.0,2.2420266659464687,507.6308235770557,None,507.6308235770557,None,507.6308235770557,None,1,2022_Apr_07_1150,Semantic-hierachy,2021.1.2,59.8348842750952,
122,Trial # 123,layer6-8_O2_to_T3.jpg,layer6-8/layer6-8_O2_to_T3.jpg,OT,layer6-8,0.0,122.0,122.0,122.0,,,,,,,,,511.98306240094826,None,3.0,4.464024004992098,511.98306240094826,None,511.98306240094826,None,511.98306240094826,None,1,2022_Apr_07_1150,Semantic-hierachy,2021.1.2,59.8348842750952,
123,Trial # 124,layer0-5_O1_to_O7.jpg,layer0-5/layer0-5_O1_to_O7.jpg,OO,layer0-5,0.0,123.0,123.0,123.0,,,,,,,,,516.8846809170209,None,1.0,2.749465120024979,516.8846809170209,None,516.8846809170209,None,516.8846809170209,None,1,2022_Apr_07_1150,Semantic-hierachy,2021.1.2,59.8348842750952,
124,Trial # 125,layer0-5_T8_to_T9.jpg,layer0-5/layer0-5_T8_to_T9.jpg,TT,layer0-5,0.0,124.0,124.0,124.0,,,,,,,,,520.3347573110368,None,1.0,1.4497360941022637,520.3347573110368,None,520.3347573110368,None,520.3347573110368,None,1,2022_Apr_07_1150,Semantic-hierachy,2021.1.2,59.8348842750952,
125,Trial # 126,layer0-5_O12_to_T8.jpg,layer0-5/layer0-5_O12_to_T8.jpg,OT,layer0-5,0.0,125.0,125.0,125.0,,,,,,,,,523.9191365351435,None,1.0,1.6284396548289806,523.9191365351435,None,523.9191365351435,None,523.9191365351435,None,1,2022_Apr_07_1150,Semantic-hierachy,2021.1.2,59.8348842750952,
126,Trial # 127,layer9-17_O4_to_O6.jpg,layer9-17/layer9-17_O4_to_O6.jpg,OO,layer9-17,0.0,126.0,126.0,126.0,,,,,,,,,526.1877509979531,None,2.0,3.012000938877464,526.1877509979531,None,526.1877509979531,None,526.1877509979531,None,1,2022_Apr_07_1150,Semantic-hierachy,2021.1.2,59.8348842750952,
127,Trial # 128,layer6-8_O12_to_O6.jpg,layer6-8/layer6-8_O12_to_O6.jpg,OO,layer6-8,0.0,127.0,127.0,127.0,,,,,,,,,529.537372936029,None,3.0,2.19998261006549,529.537372936029,None,529.537372936029,None,529.537372936029,None,1,2022_Apr_07_1150,Semantic-hierachy,2021.1.2,59.8348842750952,
128,Trial # 129,layer0-5_T4_to_T6.jpg,layer0-5/layer0-5_T4_to_T6.jpg,TT,layer0-5,0.0,128.0,128.0,128.0,,,,,,,,,532.2720741380472,None,1.0,3.859599000075832,532.2720741380472,None,532.2720741380472,None,532.2720741380472,None,1,2022_Apr_07_1150,Semantic-hierachy,2021.1.2,59.8348842750952,
129,Trial # 130,layer9-17_O1_to_O3.jpg,layer9-17/layer9-17_O1_to_O3.jpg,OO,layer9-17,0.0,129.0,129.0,129.0,,,,,,,,,537.7748739109375,None,2.0,1.5782789448276162,537.7748739109375,None,537.7748739109375,None,537.7748739109375,None,1,2022_Apr_07_1150,Semantic-hierachy,2021.1.2,59.8348842750952,
130,Trial # 131,layer9-17_O10_to_O3.jpg,layer9-17/layer9-17_O10_to_O3.jpg,OO,layer9-17,0.0,130.0,130.0,130.0,,,,,,,,,539.6404592511244,None,2.0,1.1179851868655533,539.6404592511244,None,539.6404592511244,None,539.6404592511244,None,1,2022_Apr_07_1150,Semantic-hierachy,2021.1.2,59.8348842750952,
131,Trial # 132,layer9-17_O12_to_O3.jpg,layer9-17/layer9-17_O12_to_O3.jpg,OO,layer9-17,0.0,131.0,131.0,131.0,,,,,,,,,541.1422285339795,None,2.0,1.3517288831062615,541.1422285339795,None,541.1422285339795,None,541.1422285339795,None,1,2022_Apr_07_1150,Semantic-hierachy,2021.1.2,59.8348842750952,
132,Trial # 133,layer9-17_O11_to_O4.jpg,layer9-17/layer9-17_O11_to_O4.jpg,OO,layer9-17,0.0,132.0,132.0,132.0,,,,,,,,,542.7755668140016,None,2.0,3.3824826208874583,542.7755668140016,None,542.7755668140016,None,542.7755668140016,None,1,2022_Apr_07_1150,Semantic-hierachy,2021.1.2,59.8348842750952,
133,Trial # 134,layer9-17_T4_to_T7.jpg,layer9-17/layer9-17_T4_to_T7.jpg,TT,layer9-17,0.0,133.0,133.0,133.0,,,,,,,,,546.4107628059573,None,2.0,2.2487810000311583,546.4107628059573,None,546.4107628059573,None,546.4107628059573,None,1,2022_Apr_07_1150,Semantic-hierachy,2021.1.2,59.8348842750952,
134,Trial # 135,layer9-17_O1_to_T1.jpg,layer9-17/layer9-17_O1_to_T1.jpg,OT,layer9-17,0.0,134.0,134.0,134.0,,,,,,,,,548.9602963970974,None,2.0,1.5089303629938513,548.9602963970974,None,548.9602963970974,None,548.9602963970974,None,1,2022_Apr_07_1150,Semantic-hierachy,2021.1.2,59.8348842750952,
135,Trial # 136,layer6-8_T2_to_T5.jpg,layer6-8/layer6-8_T2_to_T5.jpg,TT,layer6-8,0.0,135.0,135.0,135.0,,,,,,,,,550.9287269569468,None,3.0,2.8292656019330025,550.9287269569468,None,550.9287269569468,None,550.9287269569468,None,1,2022_Apr_07_1150,Semantic-hierachy,2021.1.2,59.8348842750952,
136,Trial # 137,layer9-17_T11_to_T7.jpg,layer9-17/layer9-17_T11_to_T7.jpg,TT,layer9-17,0.0,136.0,136.0,136.0,,,,,,,,,554.4786290589254,None,2.0,3.613491408992559,554.4786290589254,None,554.4786290589254,None,554.4786290589254,None,1,2022_Apr_07_1150,Semantic-hierachy,2021.1.2,59.8348842750952,
137,Trial # 138,layer6-8_O3_to_O8.jpg,layer6-8/layer6-8_O3_to_O8.jpg,OO,layer6-8,0.0,137.0,137.0,137.0,,,,,,,,,558.4630458210595,None,3.0,2.714973500929773,558.4630458210595,None,558.4630458210595,None,558.4630458210595,None,1,2022_Apr_07_1150,Semantic-hierachy,2021.1.2,59.8348842750952,
138,Trial # 139,layer6-8_O1_to_T7.jpg,layer6-8/layer6-8_O1_to_T7.jpg,OT,layer6-8,0.0,138.0,138.0,138.0,,,,,,,,,561.5152774329763,None,3.0,1.2443688360508531,561.5152774329763,None,561.5152774329763,None,561.5152774329763,None,1,2022_Apr_07_1150,Semantic-hierachy,2021.1.2,59.8348842750952,
139,Trial # 140,layer9-17_T1_to_T3.jpg,layer9-17/layer9-17_T1_to_T3.jpg,TT,layer9-17,0.0,139.0,139.0,139.0,,,,,,,,,563.3647398101166,None,2.0,2.763517083134502,563.3647398101166,None,563.3647398101166,None,563.3647398101166,None,1,2022_Apr_07_1150,Semantic-hierachy,2021.1.2,59.8348842750952,
140,Trial # 141,layer6-8_O10_to_O12.jpg,layer6-8/layer6-8_O10_to_O12.jpg,OO,layer6-8,0.0,140.0,140.0,140.0,,,,,,,,,566.9503909449559,None,2.0,2.7927025770768523,566.9503909449559,None,566.9503909449559,None,566.9503909449559,None,1,2022_Apr_07_1150,Semantic-hierachy,2021.1.2,59.8348842750952,
141,Trial # 142,layer6-8_O12_to_T11.jpg,layer6-8/layer6-8_O12_to_T11.jpg,OT,layer6-8,0.0,141.0,141.0,141.0,,,,,,,,,570.2330180739518,None,2.0,4.313855892978609,570.2330180739518,None,570.2330180739518,None,570.2330180739518,None,1,2022_Apr_07_1150,Semantic-hierachy,2021.1.2,59.8348842750952,
142,Trial # 143,layer0-5_O11_to_O5.jpg,layer0-5/layer0-5_O11_to_O5.jpg,OO,layer0-5,0.0,142.0,142.0,142.0,,,,,,,,,576.0864441921003,None,1.0,1.5764142000116408,576.0864441921003,None,576.0864441921003,None,576.0864441921003,None,1,2022_Apr_07_1150,Semantic-hierachy,2021.1.2,59.8348842750952,
143,Trial # 144,layer6-8_O1_to_O8.jpg,layer6-8/layer6-8_O1_to_O8.jpg,OO,layer6-8,0.0,143.0,143.0,143.0,,,,,,,,,578.0525812851265,None,3.0,1.998361722100526,578.0525812851265,None,578.0525812851265,None,578.0525812851265,None,1,2022_Apr_07_1150,Semantic-hierachy,2021.1.2,59.8348842750952,
144,Trial # 145,layer0-5_T2_to_T5.jpg,layer0-5/layer0-5_T2_to_T5.jpg,TT,layer0-5,0.0,144.0,144.0,144.0,,,,,,,,,581.9719276810065,None,1.0,1.6899989938829094,581.9719276810065,None,581.9719276810065,None,581.9719276810065,None,1,2022_Apr_07_1150,Semantic-hierachy,2021.1.2,59.8348842750952,
145,Trial # 146,layer9-17_O8_to_T3.jpg,layer9-17/layer9-17_O8_to_T3.jpg,OT,layer9-17,0.0,145.0,145.0,145.0,,,,,,,,,583.9544180000667,None,2.0,1.6136142818722874,583.9544180000667,None,583.9544180000667,None,583.9544180000667,None,1,2022_Apr_07_1150,Semantic-hierachy,2021.1.2,59.8348842750952,
146,Trial # 147,layer9-17_O8_to_T4.jpg,layer9-17/layer9-17_O8_to_T4.jpg,OT,layer9-17,0.0,146.0,146.0,146.0,,,,,,,,,586.0064760700334,None,4.0,3.31651130807586,586.0064760700334,None,586.0064760700334,None,586.0064760700334,None,1,2022_Apr_07_1150,Semantic-hierachy,2021.1.2,59.8348842750952,
147,Trial # 148,layer9-17_O4_to_T9.jpg,layer9-17/layer9-17_O4_to_T9.jpg,OT,layer9-17,0.0,147.0,147.0,147.0,,,,,,,,,589.6393493700307,None,2.0,2.1829018669668585,589.6393493700307,None,589.6393493700307,None,589.6393493700307,None,1,2022_Apr_07_1150,Semantic-hierachy,2021.1.2,59.8348842750952,
148,Trial # 149,layer6-8_O4_to_O8.jpg,layer6-8/layer6-8_O4_to_O8.jpg,OO,layer6-8,0.0,148.0,148.0,148.0,,,,,,,,,592.1581889919471,None,3.0,2.3488924279809,592.1581889919471,None,592.1581889919471,None,592.1581889919471,None,1,2022_Apr_07_1150,Semantic-hierachy,2021.1.2,59.8348842750952,
149,Trial # 150,layer0-5_O12_to_T7.jpg,layer0-5/layer0-5_O12_to_T7.jpg,OT,layer0-5,0.0,149.0,149.0,149.0,,,,,,,,,595.3249501080718,None,1.0,1.6751361258793622,595.3249501080718,None,595.3249501080718,None,595.3249501080718,None,1,2022_Apr_07_1150,Semantic-hierachy,2021.1.2,59.8348842750952,
150,Trial # 151,layer6-8_T1_to_T3.jpg,layer6-8/layer6-8_T1_to_T3.jpg,TT,layer6-8,,,,,0.0,0.0,0.0,0.0,,,,,600.8766642459668,None,3.0,4.398997446056455,600.8766642459668,None,600.8766642459668,None,600.8766642459668,None,1,2022_Apr_07_1150,Semantic-hierachy,2021.1.2,59.8348842750952,
151,Trial # 152,layer0-5_O8_to_O9.jpg,layer0-5/layer0-5_O8_to_O9.jpg,OO,layer0-5,,,,,0.0,1.0,1.0,1.0,,,,,606.0616521590855,None,1.0,5.303941324120387,606.0616521590855,None,606.0616521590855,None,606.0616521590855,None,1,2022_Apr_07_1150,Semantic-hierachy,2021.1.2,59.8348842750952,
152,Trial # 153,layer9-17_T1_to_T5.jpg,layer9-17/layer9-17_T1_to_T5.jpg,TT,layer9-17,,,,,0.0,2.0,2.0,2.0,,,,,611.6809338000603,None,2.0,1.5818989230319858,611.6809338000603,None,611.6809338000603,None,611.6809338000603,None,1,2022_Apr_07_1150,Semantic-hierachy,2021.1.2,59.8348842750952,
153,Trial # 154,layer6-8_T7_to_T9.jpg,layer6-8/layer6-8_T7_to_T9.jpg,TT,layer6-8,,,,,0.0,3.0,3.0,3.0,,,,,613.8470683139749,None,3.0,2.47736384999007,613.8470683139749,None,613.8470683139749,None,613.8470683139749,None,1,2022_Apr_07_1150,Semantic-hierachy,2021.1.2,59.8348842750952,
154,Trial # 155,layer9-17_T12_to_T7.jpg,layer9-17/layer9-17_T12_to_T7.jpg,TT,layer9-17,,,,,0.0,4.0,4.0,4.0,,,,,616.6488037609961,None,2.0,1.5453975389245898,616.6488037609961,None,616.6488037609961,None,616.6488037609961,None,1,2022_Apr_07_1150,Semantic-hierachy,2021.1.2,59.8348842750952,
155,Trial # 156,layer0-5_O8_to_T11.jpg,layer0-5/layer0-5_O8_to_T11.jpg,OT,layer0-5,,,,,0.0,5.0,5.0,5.0,,,,,618.6149843151215,None,1.0,2.061496222158894,618.6149843151215,None,618.6149843151215,None,618.6149843151215,None,1,2022_Apr_07_1150,Semantic-hierachy,2021.1.2,59.8348842750952,
156,Trial # 157,layer0-5_O1_to_O9.jpg,layer0-5/layer0-5_O1_to_O9.jpg,OO,layer0-5,,,,,0.0,6.0,6.0,6.0,,,,,623.9834482150618,None,1.0,1.7475155191496017,623.9834482150618,None,623.9834482150618,None,623.9834482150618,None,1,2022_Apr_07_1150,Semantic-hierachy,2021.1.2,59.8348842750952,
157,Trial # 158,layer0-5_O10_to_O12.jpg,layer0-5/layer0-5_O10_to_O12.jpg,OO,layer0-5,,,,,0.0,7.0,7.0,7.0,,,,,626.0678832819685,None,1.0,1.0987953848671168,626.0678832819685,None,626.0678832819685,None,626.0678832819685,None,1,2022_Apr_07_1150,Semantic-hierachy,2021.1.2,59.8348842750952,
158,Trial # 159,layer6-8_O10_to_T5.jpg,layer6-8/layer6-8_O10_to_T5.jpg,OT,layer6-8,,,,,0.0,8.0,8.0,8.0,,,,,627.5024082609452,None,3.0,2.179065130883828,627.5024082609452,None,627.5024082609452,None,627.5024082609452,None,1,2022_Apr_07_1150,Semantic-hierachy,2021.1.2,59.8348842750952,
159,Trial # 160,layer6-8_O5_to_O6.jpg,layer6-8/layer6-8_O5_to_O6.jpg,OO,layer6-8,,,,,0.0,9.0,9.0,9.0,,,,,630.0185881440993,None,2.0,1.5171939239371568,630.0185881440993,None,630.0185881440993,None,630.0185881440993,None,1,2022_Apr_07_1150,Semantic-hierachy,2021.1.2,59.8348842750952,
160,Trial # 161,layer6-8_O6_to_T11.jpg,layer6-8/layer6-8_O6_to_T11.jpg,OT,layer6-8,,,,,0.0,10.0,10.0,10.0,,,,,631.8537097671069,None,3.0,3.162758548045531,631.8537097671069,None,631.8537097671069,None,631.8537097671069,None,1,2022_Apr_07_1150,Semantic-hierachy,2021.1.2,59.8348842750952,
161,Trial # 162,layer9-17_O12_to_O9.jpg,layer9-17/layer9-17_O12_to_O9.jpg,OO,layer9-17,,,,,0.0,11.0,11.0,11.0,,,,,637.4219545191154,None,2.0,2.3324603110086173,637.4219545191154,None,637.4219545191154,None,637.4219545191154,None,1,2022_Apr_07_1150,Semantic-hierachy,2021.1.2,59.8348842750952,
162,Trial # 163,layer6-8_O12_to_T6.jpg,layer6-8/layer6-8_O12_to_T6.jpg,OT,layer6-8,,,,,0.0,12.0,12.0,12.0,,,,,640.0881297430024,None,4.0,3.006545745069161,640.0881297430024,None,640.0881297430024,None,640.0881297430024,None,1,2022_Apr_07_1150,Semantic-hierachy,2021.1.2,59.8348842750952,
163,Trial # 164,layer0-5_T11_to_T7.jpg,layer0-5/layer0-5_T11_to_T7.jpg,TT,layer0-5,,,,,0.0,13.0,13.0,13.0,,,,,643.4734085730743,None,1.0,3.1295122371520847,643.4734085730743,None,643.4734085730743,None,643.4734085730743,None,1,2022_Apr_07_1150,Semantic-hierachy,2021.1.2,59.8348842750952,
164,Trial # 165,layer9-17_O10_to_T5.jpg,layer9-17/layer9-17_O10_to_T5.jpg,OT,layer9-17,,,,,0.0,14.0,14.0,14.0,,,,,646.9415710880421,None,4.0,5.252788417041302,646.9415710880421,None,646.9415710880421,None,646.9415710880421,None,1,2022_Apr_07_1150,Semantic-hierachy,2021.1.2,59.8348842750952,
165,Trial # 166,layer9-17_T1_to_T6.jpg,layer9-17/layer9-17_T1_to_T6.jpg,TT,layer9-17,,,,,0.0,15.0,15.0,15.0,,,,,652.5265855221078,None,2.0,2.147624518023804,652.5265855221078,None,652.5265855221078,None,652.5265855221078,None,1,2022_Apr_07_1150,Semantic-hierachy,2021.1.2,59.8348842750952,
166,Trial # 167,layer0-5_T1_to_T3.jpg,layer0-5/layer0-5_T1_to_T3.jpg,TT,layer0-5,,,,,0.0,16.0,16.0,16.0,,,,,654.9594226940535,None,1.0,1.6581242009997368,654.9594226940535,None,654.9594226940535,None,654.9594226940535,None,1,2022_Apr_07_1150,Semantic-hierachy,2021.1.2,59.8348842750952,
167,Trial # 168,layer0-5_O2_to_O9.jpg,layer0-5/layer0-5_O2_to_O9.jpg,OO,layer0-5,,,,,0.0,17.0,17.0,17.0,,,,,656.9107434889302,None,1.0,2.981409011874348,656.9107434889302,None,656.9107434889302,None,656.9107434889302,None,1,2022_Apr_07_1150,Semantic-hierachy,2021.1.2,59.8348842750952,
168,Trial # 169,layer9-17_O3_to_T4.jpg,layer9-17/layer9-17_O3_to_T4.jpg,OT,layer9-17,,,,,0.0,18.0,18.0,18.0,,,,,660.1281338660046,None,2.0,1.6677126721479,660.1281338660046,None,660.1281338660046,None,660.1281338660046,None,1,2022_Apr_07_1150,Semantic-hierachy,2021.1.2,59.8348842750952,
169,Trial # 170,layer6-8_O11_to_O9.jpg,layer6-8/layer6-8_O11_to_O9.jpg,OO,layer6-8,,,,,0.0,19.0,19.0,19.0,,,,,662.1795443571173,None,3.0,5.045808528084308,662.1795443571173,None,662.1795443571173,None,662.1795443571173,None,1,2022_Apr_07_1150,Semantic-hierachy,2021.1.2,59.8348842750952,
170,Trial # 171,layer9-17_O1_to_O7.jpg,layer9-17/layer9-17_O1_to_O7.jpg,OO,layer9-17,,,,,0.0,20.0,20.0,20.0,,,,,667.8817956359126,None,4.0,8.236101939808577,667.8817956359126,None,667.8817956359126,None,667.8817956359126,None,1,2022_Apr_07_1150,Semantic-hierachy,2021.1.2,59.8348842750952,
171,Trial # 172,layer0-5_T12_to_T4.jpg,layer0-5/layer0-5_T12_to_T4.jpg,TT,layer0-5,,,,,0.0,21.0,21.0,21.0,,,,,676.516952786129,None,1.0,2.426163835916668,676.516952786129,None,676.516952786129,None,676.516952786129,None,1,2022_Apr_07_1150,Semantic-hierachy,2021.1.2,59.8348842750952,
172,Trial # 173,layer0-5_O4_to_T4.jpg,layer0-5/layer0-5_O4_to_T4.jpg,OT,layer0-5,,,,,0.0,22.0,22.0,22.0,,,,,680.4849806530401,None,1.0,2.198330577928573,680.4849806530401,None,680.4849806530401,None,680.4849806530401,None,1,2022_Apr_07_1150,Semantic-hierachy,2021.1.2,59.8348842750952,
173,Trial # 174,layer6-8_T12_to_T5.jpg,layer6-8/layer6-8_T12_to_T5.jpg,TT,layer6-8,,,,,0.0,23.0,23.0,23.0,,,,,683.2517760680057,None,4.0,9.234785416163504,683.2517760680057,None,683.2517760680057,None,683.2517760680057,None,1,2022_Apr_07_1150,Semantic-hierachy,2021.1.2,59.8348842750952,
174,Trial # 175,layer6-8_O11_to_T1.jpg,layer6-8/layer6-8_O11_to_T1.jpg,OT,layer6-8,,,,,0.0,24.0,24.0,24.0,,,,,693.038850069046,None,3.0,2.9830219249706715,693.038850069046,None,693.038850069046,None,693.038850069046,None,1,2022_Apr_07_1150,Semantic-hierachy,2021.1.2,59.8348842750952,
175,Trial # 176,layer0-5_O7_to_T8.jpg,layer0-5/layer0-5_O7_to_T8.jpg,OT,layer0-5,,,,,0.0,25.0,25.0,25.0,,,,,696.6894681700505,None,1.0,1.742626013001427,696.6894681700505,None,696.6894681700505,None,696.6894681700505,None,1,2022_Apr_07_1150,Semantic-hierachy,2021.1.2,59.8348842750952,
176,Trial # 177,layer0-5_O11_to_T5.jpg,layer0-5/layer0-5_O11_to_T5.jpg,OT,layer0-5,,,,,0.0,26.0,26.0,26.0,,,,,698.7570419090334,None,1.0,1.0959562549833208,698.7570419090334,None,698.7570419090334,None,698.7570419090334,None,1,2022_Apr_07_1150,Semantic-hierachy,2021.1.2,59.8348842750952,
177,Trial # 178,layer9-17_O2_to_T2.jpg,layer9-17/layer9-17_O2_to_T2.jpg,OT,layer9-17,,,,,0.0,27.0,27.0,27.0,,,,,700.4899809660856,None,2.0,5.44127063988708,700.4899809660856,None,700.4899809660856,None,700.4899809660856,None,1,2022_Apr_07_1150,Semantic-hierachy,2021.1.2,59.8348842750952,
178,Trial # 179,layer0-5_O4_to_T9.jpg,layer0-5/layer0-5_O4_to_T9.jpg,OT,layer0-5,,,,,0.0,28.0,28.0,28.0,,,,,706.5761089639273,None,1.0,1.492646923987195,706.5761089639273,None,706.5761089639273,None,706.5761089639273,None,1,2022_Apr_07_1150,Semantic-hierachy,2021.1.2,59.8348842750952,
179,Trial # 180,layer9-17_T6_to_T8.jpg,layer9-17/layer9-17_T6_to_T8.jpg,TT,layer9-17,,,,,0.0,29.0,29.0,29.0,,,,,708.3928996899631,None,2.0,2.0740505310241133,708.3928996899631,None,708.3928996899631,None,708.3928996899631,None,1,2022_Apr_07_1150,Semantic-hierachy,2021.1.2,59.8348842750952,
180,Trial # 181,layer9-17_O12_to_O5.jpg,layer9-17/layer9-17_O12_to_O5.jpg,OO,layer9-17,,,,,0.0,30.0,30.0,30.0,,,,,710.9780715319794,None,2.0,1.0636593780945989,710.9780715319794,None,710.9780715319794,None,710.9780715319794,None,1,2022_Apr_07_1150,Semantic-hierachy,2021.1.2,59.8348842750952,
181,Trial # 182,layer6-8_O1_to_O7.jpg,layer6-8/layer6-8_O1_to_O7.jpg,OO,layer6-8,,,,,0.0,31.0,31.0,31.0,,,,,712.4273100120481,None,3.0,2.381780901923776,712.4273100120481,None,712.4273100120481,None,712.4273100120481,None,1,2022_Apr_07_1150,Semantic-hierachy,2021.1.2,59.8348842750952,
182,Trial # 183,layer6-8_O3_to_T10.jpg,layer6-8/layer6-8_O3_to_T10.jpg,OT,layer6-8,,,,,0.0,32.0,32.0,32.0,,,,,716.8634497120511,None,3.0,1.7797832291107625,716.8634497120511,None,716.8634497120511,None,716.8634497120511,None,1,2022_Apr_07_1150,Semantic-hierachy,2021.1.2,59.8348842750952,
183,Trial # 184,layer0-5_O1_to_T11.jpg,layer0-5/layer0-5_O1_to_T11.jpg,OT,layer0-5,,,,,0.0,33.0,33.0,33.0,,,,,719.4293264730368,None,1.0,3.3136616651900117,719.4293264730368,None,719.4293264730368,None,719.4293264730368,None,1,2022_Apr_07_1150,Semantic-hierachy,2021.1.2,59.8348842750952,
184,Trial # 185,layer6-8_O8_to_O9.jpg,layer6-8/layer6-8_O8_to_O9.jpg,OO,layer6-8,,,,,0.0,34.0,34.0,34.0,,,,,723.0977520279121,None,3.0,2.8302225649822503,723.0977520279121,None,723.0977520279121,None,723.0977520279121,None,1,2022_Apr_07_1150,Semantic-hierachy,2021.1.2,59.8348842750952,
185,Trial # 186,layer9-17_O4_to_O9.jpg,layer9-17/layer9-17_O4_to_O9.jpg,OO,layer9-17,,,,,0.0,35.0,35.0,35.0,,,,,726.2662761600222,None,2.0,3.9919487580191344,726.2662761600222,None,726.2662761600222,None,726.2662761600222,None,1,2022_Apr_07_1150,Semantic-hierachy,2021.1.2,59.8348842750952,
186,Trial # 187,layer0-5_O12_to_O5.jpg,layer0-5/layer0-5_O12_to_O5.jpg,OO,layer0-5,,,,,0.0,36.0,36.0,36.0,,,,,731.6678619349841,None,1.0,3.331901303026825,731.6678619349841,None,731.6678619349841,None,731.6678619349841,None,1,2022_Apr_07_1150,Semantic-hierachy,2021.1.2,59.8348842750952,
187,Trial # 188,layer6-8_T12_to_T4.jpg,layer6-8/layer6-8_T12_to_T4.jpg,TT,layer6-8,,,,,0.0,37.0,37.0,37.0,,,,,735.2677666009404,None,4.0,6.417115140007809,735.2677666009404,None,735.2677666009404,None,735.2677666009404,None,1,2022_Apr_07_1150,Semantic-hierachy,2021.1.2,59.8348842750952,
188,Trial # 189,layer0-5_T6_to_T8.jpg,layer0-5/layer0-5_T6_to_T8.jpg,TT,layer0-5,,,,,0.0,38.0,38.0,38.0,,,,,742.6039873450063,None,1.0,1.6948095571715385,742.6039873450063,None,742.6039873450063,None,742.6039873450063,None,1,2022_Apr_07_1150,Semantic-hierachy,2021.1.2,59.8348842750952,
189,Trial # 190,layer6-8_O11_to_T2.jpg,layer6-8/layer6-8_O11_to_T2.jpg,OT,layer6-8,,,,,0.0,39.0,39.0,39.0,,,,,744.6039629420266,None,3.0,16.101754311006516,744.6039629420266,None,744.6039629420266,None,744.6039629420266,None,1,2022_Apr_07_1150,Semantic-hierachy,2021.1.2,59.8348842750952,
190,Trial # 191,layer6-8_O1_to_O3.jpg,layer6-8/layer6-8_O1_to_O3.jpg,OO,layer6-8,,,,,0.0,40.0,40.0,40.0,,,,,761.1429110029712,None,4.0,2.4787172409705818,761.1429110029712,None,761.1429110029712,None,761.1429110029712,None,1,2022_Apr_07_1150,Semantic-hierachy,2021.1.2,59.8348842750952,
191,Trial # 192,layer0-5_O7_to_T1.jpg,layer0-5/layer0-5_O7_to_T1.jpg,OT,layer0-5,,,,,0.0,41.0,41.0,41.0,,,,,764.1602617369499,None,1.0,1.5136846581008283,764.1602617369499,None,764.1602617369499,None,764.1602617369499,None,1,2022_Apr_07_1150,Semantic-hierachy,2021.1.2,59.8348842750952,
192,Trial # 193,layer6-8_O3_to_T7.jpg,layer6-8/layer6-8_O3_to_T7.jpg,OT,layer6-8,,,,,0.0,42.0,42.0,42.0,,,,,766.145032945089,None,3.0,1.8612787469755856,766.145032945089,None,766.145032945089,None,766.145032945089,None,1,2022_Apr_07_1150,Semantic-hierachy,2021.1.2,59.8348842750952,
193,Trial # 194,layer9-17_T10_to_T6.jpg,layer9-17/layer9-17_T10_to_T6.jpg,TT,layer9-17,,,,,0.0,43.0,43.0,43.0,,,,,772.7300299389753,None,2.0,1.3976456951349974,772.7300299389753,None,772.7300299389753,None,772.7300299389753,None,1,2022_Apr_07_1150,Semantic-hierachy,2021.1.2,59.8348842750952,
194,Trial # 195,layer6-8_T2_to_T9.jpg,layer6-8/layer6-8_T2_to_T9.jpg,TT,layer6-8,,,,,0.0,44.0,44.0,44.0,,,,,774.4801961129997,None,3.0,5.561478598974645,774.4801961129997,None,774.4801961129997,None,774.4801961129997,None,1,2022_Apr_07_1150,Semantic-hierachy,2021.1.2,59.8348842750952,
195,Trial # 196,layer0-5_O3_to_T3.jpg,layer0-5/layer0-5_O3_to_T3.jpg,OT,layer0-5,,,,,0.0,45.0,45.0,45.0,,,,,780.515050793998,None,1.0,3.961417648009956,780.515050793998,None,780.515050793998,None,780.515050793998,None,1,2022_Apr_07_1150,Semantic-hierachy,2021.1.2,59.8348842750952,
196,Trial # 197,layer9-17_O1_to_O2.jpg,layer9-17/layer9-17_O1_to_O2.jpg,OO,layer9-17,,,,,0.0,46.0,46.0,46.0,,,,,785.1832744621206,None,3.0,7.456075870897621,785.1832744621206,None,785.1832744621206,None,785.1832744621206,None,1,2022_Apr_07_1150,Semantic-hierachy,2021.1.2,59.8348842750952,
197,Trial # 198,layer9-17_T2_to_T9.jpg,layer9-17/layer9-17_T2_to_T9.jpg,TT,layer9-17,,,,,0.0,47.0,47.0,47.0,,,,,793.0856664609164,None,2.0,1.530086037935689,793.0856664609164,None,793.0856664609164,None,793.0856664609164,None,1,2022_Apr_07_1150,Semantic-hierachy,2021.1.2,59.8348842750952,
198,Trial # 199,layer9-17_O6_to_T10.jpg,layer9-17/layer9-17_O6_to_T10.jpg,OT,layer9-17,,,,,0.0,48.0,48.0,48.0,,,,,794.9361476979684,None,2.0,2.0290753478184342,794.9361476979684,None,794.9361476979684,None,794.9361476979684,None,1,2022_Apr_07_1150,Semantic-hierachy,2021.1.2,59.8348842750952,
199,Trial # 200,layer0-5_T12_to_T5.jpg,layer0-5/layer0-5_T12_to_T5.jpg,TT,layer0-5,,,,,0.0,49.0,49.0,49.0,,,,,797.2383968520444,None,1.0,1.3816709991078824,797.2383968520444,None,797.2383968520444,None,797.2383968520444,None,1,2022_Apr_07_1150,Semantic-hierachy,2021.1.2,59.8348842750952,
200,Trial # 201,layer0-5_O10_to_T10.jpg,layer0-5/layer0-5_O10_to_T10.jpg,OT,layer0-5,,,,,0.0,50.0,50.0,50.0,,,,,798.9040357889608,None,1.0,1.1430099359713497,798.9040357889608,None,798.9040357889608,None,798.9040357889608,None,1,2022_Apr_07_1150,Semantic-hierachy,2021.1.2,59.8348842750952,
201,Trial # 202,layer9-17_T11_to_T12.jpg,layer9-17/layer9-17_T11_to_T12.jpg,TT,layer9-17,,,,,0.0,51.0,51.0,51.0,,,,,800.8393989689648,None,2.0,1.584541509859264,800.8393989689648,None,800.8393989689648,None,800.8393989689648,None,1,2022_Apr_07_1150,Semantic-hierachy,2021.1.2,59.8348842750952,
202,Trial # 203,layer6-8_T3_to_T5.jpg,layer6-8/layer6-8_T3_to_T5.jpg,TT,layer6-8,,,,,0.0,52.0,52.0,52.0,,,,,802.855536001036,None,3.0,3.597067635972053,802.855536001036,None,802.855536001036,None,802.855536001036,None,1,2022_Apr_07_1150,Semantic-hierachy,2021.1.2,59.8348842750952,
203,Trial # 204,layer0-5_O5_to_T10.jpg,layer0-5/layer0-5_O5_to_T10.jpg,OT,layer0-5,,,,,0.0,53.0,53.0,53.0,,,,,807.1078418649267,None,1.0,2.559990207897499,807.1078418649267,None,807.1078418649267,None,807.1078418649267,None,1,2022_Apr_07_1150,Semantic-hierachy,2021.1.2,59.8348842750952,
204,Trial # 205,layer0-5_O10_to_O5.jpg,layer0-5/layer0-5_O10_to_O5.jpg,OO,layer0-5,,,,,0.0,54.0,54.0,54.0,,,,,810.3737774719484,None,1.0,2.2163994039874524,810.3737774719484,None,810.3737774719484,None,810.3737774719484,None,1,2022_Apr_07_1150,Semantic-hierachy,2021.1.2,59.8348842750952,
205,Trial # 206,layer0-5_O5_to_O7.jpg,layer0-5/layer0-5_O5_to_O7.jpg,OO,layer0-5,,,,,0.0,55.0,55.0,55.0,,,,,813.9920493511017,None,1.0,1.4776938741561023,813.9920493511017,None,813.9920493511017,None,813.9920493511017,None,1,2022_Apr_07_1150,Semantic-hierachy,2021.1.2,59.8348842750952,
206,Trial # 207,layer0-5_O3_to_T10.jpg,layer0-5/layer0-5_O3_to_T10.jpg,OT,layer0-5,,,,,0.0,56.0,56.0,56.0,,,,,815.8770206030458,None,1.0,1.3707856219261885,815.8770206030458,None,815.8770206030458,None,815.8770206030458,None,1,2022_Apr_07_1150,Semantic-hierachy,2021.1.2,59.8348842750952,
207,Trial # 208,layer0-5_O4_to_O5.jpg,layer0-5/layer0-5_O4_to_O5.jpg,OO,layer0-5,,,,,0.0,57.0,57.0,57.0,,,,,817.8602030950133,None,1.0,1.341404230101034,817.8602030950133,None,817.8602030950133,None,817.8602030950133,None,1,2022_Apr_07_1150,Semantic-hierachy,2021.1.2,59.8348842750952,
208,Trial # 209,layer6-8_T12_to_T3.jpg,layer6-8/layer6-8_T12_to_T3.jpg,TT,layer6-8,,,,,0.0,58.0,58.0,58.0,,,,,819.6774456619751,None,2.0,3.382637014845386,819.6774456619751,None,819.6774456619751,None,819.6774456619751,None,1,2022_Apr_07_1150,Semantic-hierachy,2021.1.2,59.8348842750952,
209,Trial # 210,layer6-8_O7_to_T9.jpg,layer6-8/layer6-8_O7_to_T9.jpg,OT,layer6-8,,,,,0.0,59.0,59.0,59.0,,,,,823.7619529159274,None,3.0,2.0450517581775784,823.7619529159274,None,823.7619529159274,None,823.7619529159274,None,1,2022_Apr_07_1150,Semantic-hierachy,2021.1.2,59.8348842750952,
210,Trial # 211,layer6-8_O1_to_O11.jpg,layer6-8/layer6-8_O1_to_O11.jpg,OO,layer6-8,,,,,0.0,60.0,60.0,60.0,,,,,826.3975359729957,None,3.0,1.3628416149877012,826.3975359729957,None,826.3975359729957,None,826.3975359729957,None,1,2022_Apr_07_1150,Semantic-hierachy,2021.1.2,59.8348842750952,
211,Trial # 212,layer6-8_T2_to_T6.jpg,layer6-8/layer6-8_T2_to_T6.jpg,TT,layer6-8,,,,,0.0,61.0,61.0,61.0,,,,,828.996827933006,None,3.0,1.2482655579224229,828.996827933006,None,828.996827933006,None,828.996827933006,None,1,2022_Apr_07_1150,Semantic-hierachy,2021.1.2,59.8348842750952,
212,Trial # 213,layer6-8_O10_to_O6.jpg,layer6-8/layer6-8_O10_to_O6.jpg,OO,layer6-8,,,,,0.0,62.0,62.0,62.0,,,,,831.8815153809264,None,3.0,2.044126745080576,831.8815153809264,None,831.8815153809264,None,831.8815153809264,None,1,2022_Apr_07_1150,Semantic-hierachy,2021.1.2,59.8348842750952,
213,Trial # 214,layer9-17_T5_to_T8.jpg,layer9-17/layer9-17_T5_to_T8.jpg,TT,layer9-17,,,,,0.0,63.0,63.0,63.0,,,,,835.966138815973,None,2.0,2.5304403519257903,835.966138815973,None,835.966138815973,None,835.966138815973,None,1,2022_Apr_07_1150,Semantic-hierachy,2021.1.2,59.8348842750952,
214,Trial # 215,layer9-17_O3_to_T10.jpg,layer9-17/layer9-17_O3_to_T10.jpg,OT,layer9-17,,,,,0.0,64.0,64.0,64.0,,,,,840.7174596479163,None,2.0,1.8103177489247173,840.7174596479163,None,840.7174596479163,None,840.7174596479163,None,1,2022_Apr_07_1150,Semantic-hierachy,2021.1.2,59.8348842750952,
215,Trial # 216,layer6-8_O12_to_O3.jpg,layer6-8/layer6-8_O12_to_O3.jpg,OO,layer6-8,,,,,0.0,65.0,65.0,65.0,,,,,843.1844641070347,None,4.0,2.4578183558769524,843.1844641070347,None,843.1844641070347,None,843.1844641070347,None,1,2022_Apr_07_1150,Semantic-hierachy,2021.1.2,59.8348842750952,
216,Trial # 217,layer0-5_T10_to_T2.jpg,layer0-5/layer0-5_T10_to_T2.jpg,TT,layer0-5,,,,,0.0,66.0,66.0,66.0,,,,,846.369471463142,None,1.0,1.9050371879711747,846.369471463142,None,846.369471463142,None,846.369471463142,None,1,2022_Apr_07_1150,Semantic-hierachy,2021.1.2,59.8348842750952,
217,Trial # 218,layer9-17_O10_to_O6.jpg,layer9-17/layer9-17_O10_to_O6.jpg,OO,layer9-17,,,,,0.0,67.0,67.0,67.0,,,,,848.6028114520013,None,3.0,3.5402673999778926,848.6028114520013,None,848.6028114520013,None,848.6028114520013,None,1,2022_Apr_07_1150,Semantic-hierachy,2021.1.2,59.8348842750952,
218,Trial # 219,layer6-8_O6_to_O9.jpg,layer6-8/layer6-8_O6_to_O9.jpg,OO,layer6-8,,,,,0.0,68.0,68.0,68.0,,,,,852.5045469580218,None,3.0,4.663828647928312,852.5045469580218,None,852.5045469580218,None,852.5045469580218,None,1,2022_Apr_07_1150,Semantic-hierachy,2021.1.2,59.8348842750952,
219,Trial # 220,layer0-5_O7_to_T2.jpg,layer0-5/layer0-5_O7_to_T2.jpg,OT,layer0-5,,,,,0.0,69.0,69.0,69.0,,,,,857.8403587040957,None,1.0,2.6634881768841296,857.8403587040957,None,857.8403587040957,None,857.8403587040957,None,1,2022_Apr_07_1150,Semantic-hierachy,2021.1.2,59.8348842750952,
220,Trial # 221,layer9-17_T12_to_T2.jpg,layer9-17/layer9-17_T12_to_T2.jpg,TT,layer9-17,,,,,0.0,70.0,70.0,70.0,,,,,861.0237027099356,None,2.0,1.9083622680045664,861.0237027099356,None,861.0237027099356,None,861.0237027099356,None,1,2022_Apr_07_1150,Semantic-hierachy,2021.1.2,59.8348842750952,
221,Trial # 222,layer9-17_O8_to_T11.jpg,layer9-17/layer9-17_O8_to_T11.jpg,OT,layer9-17,,,,,0.0,71.0,71.0,71.0,,,,,864.8242411969695,None,4.0,8.3303133379668,864.8242411969695,None,864.8242411969695,None,864.8242411969695,None,1,2022_Apr_07_1150,Semantic-hierachy,2021.1.2,59.8348842750952,
222,Trial # 223,layer6-8_O3_to_T9.jpg,layer6-8/layer6-8_O3_to_T9.jpg,OT,layer6-8,,,,,0.0,72.0,72.0,72.0,,,,,875.277893695049,None,3.0,2.0346524780616164,875.277893695049,None,875.277893695049,None,875.277893695049,None,1,2022_Apr_07_1150,Semantic-hierachy,2021.1.2,59.8348842750952,
223,Trial # 224,layer0-5_O6_to_O9.jpg,layer0-5/layer0-5_O6_to_O9.jpg,OO,layer0-5,,,,,0.0,73.0,73.0,73.0,,,,,877.8961692231242,None,1.0,1.588995393132791,877.8961692231242,None,877.8961692231242,None,877.8961692231242,None,1,2022_Apr_07_1150,Semantic-hierachy,2021.1.2,59.8348842750952,
224,Trial # 225,layer0-5_O12_to_T1.jpg,layer0-5/layer0-5_O12_to_T1.jpg,OT,layer0-5,,,,,0.0,74.0,74.0,74.0,,,,,879.7792652731296,None,1.0,4.0318072128575295,879.7792652731296,None,879.7792652731296,None,879.7792652731296,None,1,2022_Apr_07_1150,Semantic-hierachy,2021.1.2,59.8348842750952,
225,Trial # 226,layer9-17_O2_to_T8.jpg,layer9-17/layer9-17_O2_to_T8.jpg,OT,layer9-17,,,,,0.0,75.0,75.0,75.0,,,,,891.6175819120836,None,2.0,1.447201149072498,891.6175819120836,None,891.6175819120836,None,891.6175819120836,None,1,2022_Apr_07_1150,Semantic-hierachy,2021.1.2,59.8348842750952,
226,Trial # 227,layer0-5_T4_to_T8.jpg,layer0-5/layer0-5_T4_to_T8.jpg,TT,layer0-5,,,,,0.0,76.0,76.0,76.0,,,,,893.5169056809973,None,1.0,2.543905976926908,893.5169056809973,None,893.5169056809973,None,893.5169056809973,None,1,2022_Apr_07_1150,Semantic-hierachy,2021.1.2,59.8348842750952,
227,Trial # 228,layer9-17_O2_to_T1.jpg,layer9-17/layer9-17_O2_to_T1.jpg,OT,layer9-17,,,,,0.0,77.0,77.0,77.0,,,,,897.4679431510158,None,2.0,1.7803909070789814,897.4679431510158,None,897.4679431510158,None,897.4679431510158,None,1,2022_Apr_07_1150,Semantic-hierachy,2021.1.2,59.8348842750952,
228,Trial # 229,layer0-5_O11_to_O7.jpg,layer0-5/layer0-5_O11_to_O7.jpg,OO,layer0-5,,,,,0.0,78.0,78.0,78.0,,,,,899.8856087310705,None,1.0,1.327512183925137,899.8856087310705,None,899.8856087310705,None,899.8856087310705,None,1,2022_Apr_07_1150,Semantic-hierachy,2021.1.2,59.8348842750952,
229,Trial # 230,layer6-8_T2_to_T8.jpg,layer6-8/layer6-8_T2_to_T8.jpg,TT,layer6-8,,,,,0.0,79.0,79.0,79.0,,,,,901.5871993009932,None,3.0,3.829074210952968,901.5871993009932,None,901.5871993009932,None,901.5871993009932,None,1,2022_Apr_07_1150,Semantic-hierachy,2021.1.2,59.8348842750952,
230,Trial # 231,layer9-17_T4_to_T8.jpg,layer9-17/layer9-17_T4_to_T8.jpg,TT,layer9-17,,,,,0.0,80.0,80.0,80.0,,,,,905.9211247439962,None,2.0,2.0967889179009944,905.9211247439962,None,905.9211247439962,None,905.9211247439962,None,1,2022_Apr_07_1150,Semantic-hierachy,2021.1.2,59.8348842750952,
231,Trial # 232,layer9-17_T11_to_T3.jpg,layer9-17/layer9-17_T11_to_T3.jpg,TT,layer9-17,,,,,0.0,81.0,81.0,81.0,,,,,910.3886403751094,None,2.0,1.3627785730641335,910.3886403751094,None,910.3886403751094,None,910.3886403751094,None,1,2022_Apr_07_1150,Semantic-hierachy,2021.1.2,59.8348842750952,
232,Trial # 233,layer0-5_O3_to_T9.jpg,layer0-5/layer0-5_O3_to_T9.jpg,OT,layer0-5,,,,,0.0,82.0,82.0,82.0,,,,,912.0571704041212,None,1.0,1.481674131937325,912.0571704041212,None,912.0571704041212,None,912.0571704041212,None,1,2022_Apr_07_1150,Semantic-hierachy,2021.1.2,59.8348842750952,
233,Trial # 234,layer9-17_T7_to_T8.jpg,layer9-17/layer9-17_T7_to_T8.jpg,TT,layer9-17,,,,,0.0,83.0,83.0,83.0,,,,,914.0065906080416,None,3.0,4.045373447937891,914.0065906080416,None,914.0065906080416,None,914.0065906080416,None,1,2022_Apr_07_1150,Semantic-hierachy,2021.1.2,59.8348842750952,
234,Trial # 235,layer9-17_O3_to_O4.jpg,layer9-17/layer9-17_O3_to_O4.jpg,OO,layer9-17,,,,,0.0,84.0,84.0,84.0,,,,,918.4910100291016,None,2.0,2.7145771589130163,918.4910100291016,None,918.4910100291016,None,918.4910100291016,None,1,2022_Apr_07_1150,Semantic-hierachy,2021.1.2,59.8348842750952,
235,Trial # 236,layer6-8_O8_to_T6.jpg,layer6-8/layer6-8_O8_to_T6.jpg,OT,layer6-8,,,,,0.0,85.0,85.0,85.0,,,,,921.6769170460756,None,3.0,4.93351048999466,921.6769170460756,None,921.6769170460756,None,921.6769170460756,None,1,2022_Apr_07_1150,Semantic-hierachy,2021.1.2,59.8348842750952,
236,Trial # 237,layer9-17_T6_to_T7.jpg,layer9-17/layer9-17_T6_to_T7.jpg,TT,layer9-17,,,,,0.0,86.0,86.0,86.0,,,,,927.4952331250532,None,2.0,1.5777768699917942,927.4952331250532,None,927.4952331250532,None,927.4952331250532,None,1,2022_Apr_07_1150,Semantic-hierachy,2021.1.2,59.8348842750952,
237,Trial # 238,layer0-5_T2_to_T9.jpg,layer0-5/layer0-5_T2_to_T9.jpg,TT,layer0-5,,,,,0.0,87.0,87.0,87.0,,,,,929.3278987850064,None,1.0,1.6788851651363077,929.3278987850064,None,929.3278987850064,None,929.3278987850064,None,1,2022_Apr_07_1150,Semantic-hierachy,2021.1.2,59.8348842750952,
238,Trial # 239,layer0-5_O2_to_O5.jpg,layer0-5/layer0-5_O2_to_O5.jpg,OO,layer0-5,,,,,0.0,88.0,88.0,88.0,,,,,931.362247532932,None,1.0,1.498024330008775,931.362247532932,None,931.362247532932,None,931.362247532932,None,1,2022_Apr_07_1150,Semantic-hierachy,2021.1.2,59.8348842750952,
239,Trial # 240,layer6-8_O1_to_O5.jpg,layer6-8/layer6-8_O1_to_O5.jpg,OO,layer6-8,,,,,0.0,89.0,89.0,89.0,,,,,933.6956684079488,None,4.0,2.9604360489174724,933.6956684079488,None,933.6956684079488,None,933.6956684079488,None,1,2022_Apr_07_1150,Semantic-hierachy,2021.1.2,59.8348842750952,
240,Trial # 241,layer9-17_O3_to_O7.jpg,layer9-17/layer9-17_O3_to_O7.jpg,OO,layer9-17,,,,,0.0,90.0,90.0,90.0,,,,,937.164855435025,None,2.0,5.045070374151692,937.164855435025,None,937.164855435025,None,937.164855435025,None,1,2022_Apr_07_1150,Semantic-hierachy,2021.1.2,59.8348842750952,
241,Trial # 242,layer6-8_O11_to_O8.jpg,layer6-8/layer6-8_O11_to_O8.jpg,OO,layer6-8,,,,,0.0,91.0,91.0,91.0,,,,,942.53198328102,None,3.0,3.56085343612358,942.53198328102,None,942.53198328102,None,942.53198328102,None,1,2022_Apr_07_1150,Semantic-hierachy,2021.1.2,59.8348842750952,
242,Trial # 243,layer9-17_T1_to_T12.jpg,layer9-17/layer9-17_T1_to_T12.jpg,TT,layer9-17,,,,,0.0,92.0,92.0,92.0,,,,,946.4669596229214,None,2.0,1.5094469180330634,946.4669596229214,None,946.4669596229214,None,946.4669596229214,None,1,2022_Apr_07_1150,Semantic-hierachy,2021.1.2,59.8348842750952,
243,Trial # 244,layer9-17_O6_to_O8.jpg,layer9-17/layer9-17_O6_to_O8.jpg,OO,layer9-17,,,,,0.0,93.0,93.0,93.0,,,,,948.2669926399832,None,3.0,5.153583499137312,948.2669926399832,None,948.2669926399832,None,948.2669926399832,None,1,2022_Apr_07_1150,Semantic-hierachy,2021.1.2,59.8348842750952,
244,Trial # 245,layer6-8_O4_to_T11.jpg,layer6-8/layer6-8_O4_to_T11.jpg,OT,layer6-8,,,,,0.0,94.0,94.0,94.0,,,,,953.7520368080586,None,3.0,1.8729580328799784,953.7520368080586,None,953.7520368080586,None,953.7520368080586,None,1,2022_Apr_07_1150,Semantic-hierachy,2021.1.2,59.8348842750952,
245,Trial # 246,layer9-17_T10_to_T3.jpg,layer9-17/layer9-17_T10_to_T3.jpg,TT,layer9-17,,,,,0.0,95.0,95.0,95.0,,,,,955.936988743022,None,2.0,1.8806408389937133,955.936988743022,None,955.936988743022,None,955.936988743022,None,1,2022_Apr_07_1150,Semantic-hierachy,2021.1.2,59.8348842750952,
246,Trial # 247,layer0-5_O10_to_O8.jpg,layer0-5/layer0-5_O10_to_O8.jpg,OO,layer0-5,,,,,0.0,96.0,96.0,96.0,,,,,958.1701805191116,None,1.0,1.662517671007663,958.1701805191116,None,958.1701805191116,None,958.1701805191116,None,1,2022_Apr_07_1150,Semantic-hierachy,2021.1.2,59.8348842750952,
247,Trial # 248,layer6-8_O3_to_T12.jpg,layer6-8/layer6-8_O3_to_T12.jpg,OT,layer6-8,,,,,0.0,97.0,97.0,97.0,,,,,960.304366178112,None,3.0,2.4260158729739487,960.304366178112,None,960.304366178112,None,960.304366178112,None,1,2022_Apr_07_1150,Semantic-hierachy,2021.1.2,59.8348842750952,
248,Trial # 249,layer0-5_O12_to_T9.jpg,layer0-5/layer0-5_O12_to_T9.jpg,OT,layer0-5,,,,,0.0,98.0,98.0,98.0,,,,,963.2383197080344,None,1.0,1.501488749170676,963.2383197080344,None,963.2383197080344,None,963.2383197080344,None,1,2022_Apr_07_1150,Semantic-hierachy,2021.1.2,59.8348842750952,
249,Trial # 250,layer9-17_T1_to_T9.jpg,layer9-17/layer9-17_T1_to_T9.jpg,TT,layer9-17,,,,,0.0,99.0,99.0,99.0,,,,,965.0723363631404,None,3.0,6.772992153186351,965.0723363631404,None,965.0723363631404,None,965.0723363631404,None,1,2022_Apr_07_1150,Semantic-hierachy,2021.1.2,59.8348842750952,
250,Trial # 251,layer9-17_T11_to_T8.jpg,layer9-17/layer9-17_T11_to_T8.jpg,TT,layer9-17,,,,,0.0,100.0,100.0,100.0,,,,,972.5758726410568,None,2.0,1.742961433948949,972.5758726410568,None,972.5758726410568,None,972.5758726410568,None,1,2022_Apr_07_1150,Semantic-hierachy,2021.1.2,59.8348842750952,
251,Trial # 252,layer9-17_T11_to_T5.jpg,layer9-17/layer9-17_T11_to_T5.jpg,TT,layer9-17,,,,,0.0,101.0,101.0,101.0,,,,,975.3422948410736,None,3.0,8.981015712022781,975.3422948410736,None,975.3422948410736,None,975.3422948410736,None,1,2022_Apr_07_1150,Semantic-hierachy,2021.1.2,59.8348842750952,
252,Trial # 253,layer6-8_T10_to_T12.jpg,layer6-8/layer6-8_T10_to_T12.jpg,TT,layer6-8,,,,,0.0,102.0,102.0,102.0,,,,,985.5454622709658,None,4.0,12.95043686684221,985.5454622709658,None,985.5454622709658,None,985.5454622709658,None,1,2022_Apr_07_1150,Semantic-hierachy,2021.1.2,59.8348842750952,
253,Trial # 254,layer9-17_O5_to_T1.jpg,layer9-17/layer9-17_O5_to_T1.jpg,OT,layer9-17,,,,,0.0,103.0,103.0,103.0,,,,,999.3500996669754,None,2.0,2.8661941459868103,999.3500996669754,None,999.3500996669754,None,999.3500996669754,None,1,2022_Apr_07_1150,Semantic-hierachy,2021.1.2,59.8348842750952,
254,Trial # 255,layer6-8_T2_to_T3.jpg,layer6-8/layer6-8_T2_to_T3.jpg,TT,layer6-8,,,,,0.0,104.0,104.0,104.0,,,,,1002.635324971052,None,3.0,3.407019584905356,1002.635324971052,None,1002.635324971052,None,1002.635324971052,None,1,2022_Apr_07_1150,Semantic-hierachy,2021.1.2,59.8348842750952,
255,Trial # 256,layer6-8_O2_to_T6.jpg,layer6-8/layer6-8_O2_to_T6.jpg,OT,layer6-8,,,,,0.0,105.0,105.0,105.0,,,,,1006.5198428900912,None,3.0,1.3830198210198432,1006.5198428900912,None,1006.5198428900912,None,1006.5198428900912,None,1,2022_Apr_07_1150,Semantic-hierachy,2021.1.2,59.8348842750952,
256,Trial # 257,layer6-8_T11_to_T9.jpg,layer6-8/layer6-8_T11_to_T9.jpg,TT,layer6-8,,,,,0.0,106.0,106.0,106.0,,,,,1008.286151152104,None,3.0,1.7609659091103822,1008.286151152104,None,1008.286151152104,None,1008.286151152104,None,1,2022_Apr_07_1150,Semantic-hierachy,2021.1.2,59.8348842750952,
257,Trial # 258,layer6-8_O5_to_T9.jpg,layer6-8/layer6-8_O5_to_T9.jpg,OT,layer6-8,,,,,0.0,107.0,107.0,107.0,,,,,1010.7703853740824,None,3.0,1.0291561831254512,1010.7703853740824,None,1010.7703853740824,None,1010.7703853740824,None,1,2022_Apr_07_1150,Semantic-hierachy,2021.1.2,59.8348842750952,
258,Trial # 259,layer6-8_O9_to_T8.jpg,layer6-8/layer6-8_O9_to_T8.jpg,OT,layer6-8,,,,,0.0,108.0,108.0,108.0,,,,,1012.386896863114,None,3.0,4.102535282028839,1012.386896863114,None,1012.386896863114,None,1012.386896863114,None,1,2022_Apr_07_1150,Semantic-hierachy,2021.1.2,59.8348842750952,
259,Trial # 260,layer6-8_T1_to_T5.jpg,layer6-8/layer6-8_T1_to_T5.jpg,TT,layer6-8,,,,,0.0,109.0,109.0,109.0,,,,,1016.9560295380652,None,4.0,3.121684693032876,1016.9560295380652,None,1016.9560295380652,None,1016.9560295380652,None,1,2022_Apr_07_1150,Semantic-hierachy,2021.1.2,59.8348842750952,
260,Trial # 261,layer0-5_O11_to_T2.jpg,layer0-5/layer0-5_O11_to_T2.jpg,OT,layer0-5,,,,,0.0,110.0,110.0,110.0,,,,,1020.4057659909596,None,1.0,2.6421271529980004,1020.4057659909596,None,1020.4057659909596,None,1020.4057659909596,None,1,2022_Apr_07_1150,Semantic-hierachy,2021.1.2,59.8348842750952,
261,Trial # 262,layer0-5_O7_to_T4.jpg,layer0-5/layer0-5_O7_to_T4.jpg,OT,layer0-5,,,,,0.0,111.0,111.0,111.0,,,,,1023.323714561062,None,1.0,1.2638071209657935,1023.323714561062,None,1023.323714561062,None,1023.323714561062,None,1,2022_Apr_07_1150,Semantic-hierachy,2021.1.2,59.8348842750952,
262,Trial # 263,layer6-8_T12_to_T8.jpg,layer6-8/layer6-8_T12_to_T8.jpg,TT,layer6-8,,,,,0.0,112.0,112.0,112.0,,,,,1024.9072040170431,None,2.0,1.9375336079392584,1024.9072040170431,None,1024.9072040170431,None,1024.9072040170431,None,1,2022_Apr_07_1150,Semantic-hierachy,2021.1.2,59.8348842750952,
263,Trial # 264,layer6-8_O4_to_O9.jpg,layer6-8/layer6-8_O4_to_O9.jpg,OO,layer6-8,,,,,0.0,113.0,113.0,113.0,,,,,1028.2417134169957,None,3.0,2.762609704164788,1028.2417134169957,None,1028.2417134169957,None,1028.2417134169957,None,1,2022_Apr_07_1150,Semantic-hierachy,2021.1.2,59.8348842750952,
264,Trial # 265,layer0-5_T1_to_T5.jpg,layer0-5/layer0-5_T1_to_T5.jpg,TT,layer0-5,,,,,0.0,114.0,114.0,114.0,,,,,1031.4936605070252,None,1.0,4.849042827030644,1031.4936605070252,None,1031.4936605070252,None,1031.4936605070252,None,1,2022_Apr_07_1150,Semantic-hierachy,2021.1.2,59.8348842750952,
265,Trial # 266,layer0-5_O12_to_O7.jpg,layer0-5/layer0-5_O12_to_O7.jpg,OO,layer0-5,,,,,0.0,115.0,115.0,115.0,,,,,1036.578487030929,None,1.0,1.0618001359980551,1036.578487030929,None,1036.578487030929,None,1036.578487030929,None,1,2022_Apr_07_1150,Semantic-hierachy,2021.1.2,59.8348842750952,
266,Trial # 267,layer6-8_T8_to_T9.jpg,layer6-8/layer6-8_T8_to_T9.jpg,TT,layer6-8,,,,,0.0,116.0,116.0,116.0,,,,,1038.6280339930672,None,2.0,10.070655248127878,1038.6280339930672,None,1038.6280339930672,None,1038.6280339930672,None,1,2022_Apr_07_1150,Semantic-hierachy,2021.1.2,59.8348842750952,
267,Trial # 268,layer9-17_O11_to_T10.jpg,layer9-17/layer9-17_O11_to_T10.jpg,OT,layer9-17,,,,,0.0,117.0,117.0,117.0,,,,,1048.9983053009491,None,2.0,1.284020533086732,1048.9983053009491,None,1048.9983053009491,None,1048.9983053009491,None,1,2022_Apr_07_1150,Semantic-hierachy,2021.1.2,59.8348842750952,
268,Trial # 269,layer0-5_O8_to_T9.jpg,layer0-5/layer0-5_O8_to_T9.jpg,OT,layer0-5,,,,,0.0,118.0,118.0,118.0,,,,,1050.5987414459232,None,1.0,1.385023431153968,1050.5987414459232,None,1050.5987414459232,None,1050.5987414459232,None,1,2022_Apr_07_1150,Semantic-hierachy,2021.1.2,59.8348842750952,
269,Trial # 270,layer9-17_O10_to_O11.jpg,layer9-17/layer9-17_O10_to_O11.jpg,OO,layer9-17,,,,,0.0,119.0,119.0,119.0,,,,,1052.2829273110256,None,2.0,2.631056423066184,1052.2829273110256,None,1052.2829273110256,None,1052.2829273110256,None,1,2022_Apr_07_1150,Semantic-hierachy,2021.1.2,59.8348842750952,
270,Trial # 271,layer0-5_T1_to_T9.jpg,layer0-5/layer0-5_T1_to_T9.jpg,TT,layer0-5,,,,,0.0,120.0,120.0,120.0,,,,,1055.9181399359368,None,1.0,3.6307725531514734,1055.9181399359368,None,1055.9181399359368,None,1055.9181399359368,None,1,2022_Apr_07_1150,Semantic-hierachy,2021.1.2,59.8348842750952,
271,Trial # 272,layer6-8_T11_to_T8.jpg,layer6-8/layer6-8_T11_to_T8.jpg,TT,layer6-8,,,,,0.0,121.0,121.0,121.0,,,,,1059.8184167600702,None,4.0,4.185500886989757,1059.8184167600702,None,1059.8184167600702,None,1059.8184167600702,None,1,2022_Apr_07_1150,Semantic-hierachy,2021.1.2,59.8348842750952,
272,Trial # 273,layer9-17_O10_to_O12.jpg,layer9-17/layer9-17_O10_to_O12.jpg,OO,layer9-17,,,,,0.0,122.0,122.0,122.0,,,,,1065.3203011860603,None,2.0,2.4792611699085683,1065.3203011860603,None,1065.3203011860603,None,1065.3203011860603,None,1,2022_Apr_07_1150,Semantic-hierachy,2021.1.2,59.8348842750952,
273,Trial # 274,layer0-5_T12_to_T6.jpg,layer0-5/layer0-5_T12_to_T6.jpg,TT,layer0-5,,,,,0.0,123.0,123.0,123.0,,,,,1068.1040251611266,None,1.0,1.427511946996674,1068.1040251611266,None,1068.1040251611266,None,1068.1040251611266,None,1,2022_Apr_07_1150,Semantic-hierachy,2021.1.2,59.8348842750952,
274,Trial # 275,layer9-17_O11_to_O5.jpg,layer9-17/layer9-17_O11_to_O5.jpg,OO,layer9-17,,,,,0.0,124.0,124.0,124.0,,,,,1069.871250672033,None,2.0,1.978582056006417,1069.871250672033,None,1069.871250672033,None,1069.871250672033,None,1,2022_Apr_07_1150,Semantic-hierachy,2021.1.2,59.8348842750952,
275,Trial # 276,layer9-17_O1_to_O4.jpg,layer9-17/layer9-17_O1_to_O4.jpg,OO,layer9-17,,,,,0.0,125.0,125.0,125.0,,,,,1073.7558083171025,None,2.0,2.1401989879086614,1073.7558083171025,None,1073.7558083171025,None,1073.7558083171025,None,1,2022_Apr_07_1150,Semantic-hierachy,2021.1.2,59.8348842750952,
276,Trial # 277,layer6-8_O11_to_O3.jpg,layer6-8/layer6-8_O11_to_O3.jpg,OO,layer6-8,,,,,0.0,126.0,126.0,126.0,,,,,1076.1910943060648,None,4.0,2.477853476069868,1076.1910943060648,None,1076.1910943060648,None,1076.1910943060648,None,1,2022_Apr_07_1150,Semantic-hierachy,2021.1.2,59.8348842750952,
277,Trial # 278,layer6-8_T10_to_T11.jpg,layer6-8/layer6-8_T10_to_T11.jpg,TT,layer6-8,,,,,0.0,127.0,127.0,127.0,,,,,1079.5243821539916,None,4.0,10.146181070944294,1079.5243821539916,None,1079.5243821539916,None,1079.5243821539916,None,1,2022_Apr_07_1150,Semantic-hierachy,2021.1.2,59.8348842750952,
278,Trial # 279,layer0-5_O7_to_T3.jpg,layer0-5/layer0-5_O7_to_T3.jpg,OT,layer0-5,,,,,0.0,128.0,128.0,128.0,,,,,1090.6937620691024,None,1.0,3.060529619920999,1090.6937620691024,None,1090.6937620691024,None,1090.6937620691024,None,1,2022_Apr_07_1150,Semantic-hierachy,2021.1.2,59.8348842750952,
279,Trial # 280,layer9-17_T1_to_T10.jpg,layer9-17/layer9-17_T1_to_T10.jpg,TT,layer9-17,,,,,0.0,129.0,129.0,129.0,,,,,1094.0621735630557,None,2.0,1.7430112359579653,1094.0621735630557,None,1094.0621735630557,None,1094.0621735630557,None,1,2022_Apr_07_1150,Semantic-hierachy,2021.1.2,59.8348842750952,
280,Trial # 281,layer9-17_O6_to_T7.jpg,layer9-17/layer9-17_O6_to_T7.jpg,OT,layer9-17,,,,,0.0,130.0,130.0,130.0,,,,,1103.2482039721217,None,2.0,1.3596058289986104,1103.2482039721217,None,1103.2482039721217,None,1103.2482039721217,None,1,2022_Apr_07_1150,Semantic-hierachy,2021.1.2,59.8348842750952,
281,Trial # 282,layer0-5_O10_to_O7.jpg,layer0-5/layer0-5_O10_to_O7.jpg,OO,layer0-5,,,,,0.0,131.0,131.0,131.0,,,,,1104.865531140007,None,1.0,1.579272773116827,1104.865531140007,None,1104.865531140007,None,1104.865531140007,None,1,2022_Apr_07_1150,Semantic-hierachy,2021.1.2,59.8348842750952,
282,Trial # 283,layer0-5_O1_to_O11.jpg,layer0-5/layer0-5_O1_to_O11.jpg,OO,layer0-5,,,,,0.0,132.0,132.0,132.0,,,,,1106.733763624914,None,1.0,1.2659739109221846,1106.733763624914,None,1106.733763624914,None,1106.733763624914,None,1,2022_Apr_07_1150,Semantic-hierachy,2021.1.2,59.8348842750952,
283,Trial # 284,layer6-8_O7_to_O8.jpg,layer6-8/layer6-8_O7_to_O8.jpg,OO,layer6-8,,,,,0.0,133.0,133.0,133.0,,,,,1108.4497800951358,None,2.0,1.927132295910269,1108.4497800951358,None,1108.4497800951358,None,1108.4497800951358,None,1,2022_Apr_07_1150,Semantic-hierachy,2021.1.2,59.8348842750952,
284,Trial # 285,layer0-5_T7_to_T8.jpg,layer0-5/layer0-5_T7_to_T8.jpg,TT,layer0-5,,,,,0.0,134.0,134.0,134.0,,,,,1110.6671763961203,None,1.0,1.4280492728576064,1110.6671763961203,None,1110.6671763961203,None,1110.6671763961203,None,1,2022_Apr_07_1150,Semantic-hierachy,2021.1.2,59.8348842750952,
285,Trial # 286,layer9-17_T11_to_T6.jpg,layer9-17/layer9-17_T11_to_T6.jpg,TT,layer9-17,,,,,0.0,135.0,135.0,135.0,,,,,1112.45240482199,None,2.0,2.4665337449405342,1112.45240482199,None,1112.45240482199,None,1112.45240482199,None,1,2022_Apr_07_1150,Semantic-hierachy,2021.1.2,59.8348842750952,
286,Trial # 287,layer0-5_T2_to_T7.jpg,layer0-5/layer0-5_T2_to_T7.jpg,TT,layer0-5,,,,,0.0,136.0,136.0,136.0,,,,,1115.3353528049774,None,1.0,1.2943236189894378,1115.3353528049774,None,1115.3353528049774,None,1115.3353528049774,None,1,2022_Apr_07_1150,Semantic-hierachy,2021.1.2,59.8348842750952,
287,Trial # 288,layer9-17_O10_to_O2.jpg,layer9-17/layer9-17_O10_to_O2.jpg,OO,layer9-17,,,,,0.0,137.0,137.0,137.0,,,,,1116.953967286041,None,2.0,1.515881306026131,1116.953967286041,None,1116.953967286041,None,1116.953967286041,None,1,2022_Apr_07_1150,Semantic-hierachy,2021.1.2,59.8348842750952,
288,Trial # 289,layer0-5_T10_to_T9.jpg,layer0-5/layer0-5_T10_to_T9.jpg,TT,layer0-5,,,,,0.0,138.0,138.0,138.0,,,,,1118.7361700730398,None,1.0,1.5966108050197363,1118.7361700730398,None,1118.7361700730398,None,1118.7361700730398,None,1,2022_Apr_07_1150,Semantic-hierachy,2021.1.2,59.8348842750952,
289,Trial # 290,layer6-8_O11_to_O5.jpg,layer6-8/layer6-8_O11_to_O5.jpg,OO,layer6-8,,,,,0.0,139.0,139.0,139.0,,,,,1120.6531575550323,None,3.0,3.3601580301765352,1120.6531575550323,None,1120.6531575550323,None,1120.6531575550323,None,1,2022_Apr_07_1150,Semantic-hierachy,2021.1.2,59.8348842750952,
290,Trial # 291,layer6-8_O3_to_O7.jpg,layer6-8/layer6-8_O3_to_O7.jpg,OO,layer6-8,,,,,0.0,140.0,140.0,140.0,,,,,1124.304683766095,None,3.0,5.999442977132276,1124.304683766095,None,1124.304683766095,None,1124.304683766095,None,1,2022_Apr_07_1150,Semantic-hierachy,2021.1.2,59.8348842750952,
291,Trial # 292,layer9-17_O12_to_T11.jpg,layer9-17/layer9-17_O12_to_T11.jpg,OT,layer9-17,,,,,0.0,141.0,141.0,141.0,,,,,1131.774680104107,None,2.0,14.866865711053832,1131.774680104107,None,1131.774680104107,None,1131.774680104107,None,1,2022_Apr_07_1150,Semantic-hierachy,2021.1.2,59.8348842750952,
292,Trial # 293,layer9-17_O2_to_O4.jpg,layer9-17/layer9-17_O2_to_O4.jpg,OO,layer9-17,,,,,0.0,142.0,142.0,142.0,,,,,1146.9289629580453,None,4.0,4.462049003923312,1146.9289629580453,None,1146.9289629580453,None,1146.9289629580453,None,1,2022_Apr_07_1150,Semantic-hierachy,2021.1.2,59.8348842750952,
293,Trial # 294,layer6-8_O1_to_T12.jpg,layer6-8/layer6-8_O1_to_T12.jpg,OT,layer6-8,,,,,0.0,143.0,143.0,143.0,,,,,1151.9807434719987,None,3.0,1.7269033738411963,1151.9807434719987,None,1151.9807434719987,None,1151.9807434719987,None,1,2022_Apr_07_1150,Semantic-hierachy,2021.1.2,59.8348842750952,
294,Trial # 295,layer9-17_O11_to_T5.jpg,layer9-17/layer9-17_O11_to_T5.jpg,OT,layer9-17,,,,,0.0,144.0,144.0,144.0,,,,,1153.997420449974,None,3.0,1.598078504903242,1153.997420449974,None,1153.997420449974,None,1153.997420449974,None,1,2022_Apr_07_1150,Semantic-hierachy,2021.1.2,59.8348842750952,
295,Trial # 296,layer0-5_O10_to_O9.jpg,layer0-5/layer0-5_O10_to_O9.jpg,OO,layer0-5,,,,,0.0,145.0,145.0,145.0,,,,,1157.8650353241246,None,1.0,1.511283088941127,1157.8650353241246,None,1157.8650353241246,None,1157.8650353241246,None,1,2022_Apr_07_1150,Semantic-hierachy,2021.1.2,59.8348842750952,
296,Trial # 297,layer6-8_O12_to_T10.jpg,layer6-8/layer6-8_O12_to_T10.jpg,OT,layer6-8,,,,,0.0,146.0,146.0,146.0,,,,,1159.648790955078,None,3.0,1.7795467099640518,1159.648790955078,None,1159.648790955078,None,1159.648790955078,None,1,2022_Apr_07_1150,Semantic-hierachy,2021.1.2,59.8348842750952,
297,Trial # 298,layer6-8_O3_to_T2.jpg,layer6-8/layer6-8_O3_to_T2.jpg,OT,layer6-8,,,,,0.0,147.0,147.0,147.0,,,,,1162.501098096138,None,3.0,1.5121984309516847,1162.501098096138,None,1162.501098096138,None,1162.501098096138,None,1,2022_Apr_07_1150,Semantic-hierachy,2021.1.2,59.8348842750952,
298,Trial # 299,layer9-17_O2_to_T5.jpg,layer9-17/layer9-17_O2_to_T5.jpg,OT,layer9-17,,,,,0.0,148.0,148.0,148.0,,,,,1164.500532793114,None,3.0,2.1344142518937588,1164.500532793114,None,1164.500532793114,None,1164.500532793114,None,1,2022_Apr_07_1150,Semantic-hierachy,2021.1.2,59.8348842750952,
299,Trial # 300,layer0-5_O3_to_T7.jpg,layer0-5/layer0-5_O3_to_T7.jpg,OT,layer0-5,,,,,0.0,149.0,149.0,149.0,,,,,1167.0354030490853,None,1.0,1.54803195502609,1167.0354030490853,None,1167.0354030490853,None,1167.0354030490853,None,1,2022_Apr_07_1150,Semantic-hierachy,2021.1.2,59.8348842750952,
300,Trial # 301,layer9-17_O11_to_O6.jpg,layer9-17/layer9-17_O11_to_O6.jpg,OO,layer9-17,,,,,,,,,0.0,0.0,0.0,0.0,1171.1037407431286,None,3.0,3.464811849873513,1171.1037407431286,None,1171.1037407431286,None,1171.1037407431286,None,1,2022_Apr_07_1150,Semantic-hierachy,2021.1.2,59.8348842750952,
301,Trial # 302,layer0-5_O3_to_O7.jpg,layer0-5/layer0-5_O3_to_O7.jpg,OO,layer0-5,,,,,,,,,0.0,1.0,1.0,1.0,1175.7865674139466,None,1.0,1.3997841640375557,1175.7865674139466,None,1175.7865674139466,None,1175.7865674139466,None,1,2022_Apr_07_1150,Semantic-hierachy,2021.1.2,59.8348842750952,
302,Trial # 303,layer6-8_O11_to_T3.jpg,layer6-8/layer6-8_O11_to_T3.jpg,OT,layer6-8,,,,,,,,,0.0,2.0,2.0,2.0,1177.554450958036,None,3.0,1.6420060058590025,1177.554450958036,None,1177.554450958036,None,1177.554450958036,None,1,2022_Apr_07_1150,Semantic-hierachy,2021.1.2,59.8348842750952,
303,Trial # 304,layer6-8_O2_to_T7.jpg,layer6-8/layer6-8_O2_to_T7.jpg,OT,layer6-8,,,,,,,,,0.0,3.0,3.0,3.0,1179.7051053829491,None,3.0,1.1778914749156684,1179.7051053829491,None,1179.7051053829491,None,1179.7051053829491,None,1,2022_Apr_07_1150,Semantic-hierachy,2021.1.2,59.8348842750952,
304,Trial # 305,layer0-5_T1_to_T7.jpg,layer0-5/layer0-5_T1_to_T7.jpg,TT,layer0-5,,,,,,,,,0.0,4.0,4.0,4.0,1181.6229834221303,None,1.0,3.248119744937867,1181.6229834221303,None,1181.6229834221303,None,1181.6229834221303,None,1,2022_Apr_07_1150,Semantic-hierachy,2021.1.2,59.8348842750952,
305,Trial # 306,layer6-8_O7_to_T11.jpg,layer6-8/layer6-8_O7_to_T11.jpg,OT,layer6-8,,,,,,,,,0.0,5.0,5.0,5.0,1185.640565227019,None,3.0,16.74424535082653,1185.640565227019,None,1185.640565227019,None,1185.640565227019,None,1,2022_Apr_07_1150,Semantic-hierachy,2021.1.2,59.8348842750952,
306,Trial # 307,layer9-17_O5_to_T5.jpg,layer9-17/layer9-17_O5_to_T5.jpg,OT,layer9-17,,,,,,,,,0.0,6.0,6.0,6.0,1202.9457345150877,None,2.0,1.9633686509914696,1202.9457345150877,None,1202.9457345150877,None,1202.9457345150877,None,1,2022_Apr_07_1150,Semantic-hierachy,2021.1.2,59.8348842750952,
307,Trial # 308,layer9-17_T12_to_T5.jpg,layer9-17/layer9-17_T12_to_T5.jpg,TT,layer9-17,,,,,,,,,0.0,7.0,7.0,7.0,1205.2795779020526,None,2.0,1.7914624901022762,1205.2795779020526,None,1205.2795779020526,None,1205.2795779020526,None,1,2022_Apr_07_1150,Semantic-hierachy,2021.1.2,59.8348842750952,
308,Trial # 309,layer6-8_O11_to_O2.jpg,layer6-8/layer6-8_O11_to_O2.jpg,OO,layer6-8,,,,,,,,,0.0,8.0,8.0,8.0,1210.5980265799444,None,3.0,3.5266974510159343,1210.5980265799444,None,1210.5980265799444,None,1210.5980265799444,None,1,2022_Apr_07_1150,Semantic-hierachy,2021.1.2,59.8348842750952,
309,Trial # 310,layer6-8_O10_to_O7.jpg,layer6-8/layer6-8_O10_to_O7.jpg,OO,layer6-8,,,,,,,,,0.0,9.0,9.0,9.0,1214.532464060001,None,3.0,6.359649428864941,1214.532464060001,None,1214.532464060001,None,1214.532464060001,None,1,2022_Apr_07_1150,Semantic-hierachy,2021.1.2,59.8348842750952,
310,Trial # 311,layer9-17_O10_to_T11.jpg,layer9-17/layer9-17_O10_to_T11.jpg,OT,layer9-17,,,,,,,,,0.0,10.0,10.0,10.0,1221.6193278739229,None,3.0,2.776689833961427,1221.6193278739229,None,1221.6193278739229,None,1221.6193278739229,None,1,2022_Apr_07_1150,Semantic-hierachy,2021.1.2,59.8348842750952,
311,Trial # 312,layer6-8_O11_to_O12.jpg,layer6-8/layer6-8_O11_to_O12.jpg,OO,layer6-8,,,,,,,,,0.0,11.0,11.0,11.0,1224.9357197289355,None,3.0,1.2658384910319,1224.9357197289355,None,1224.9357197289355,None,1224.9357197289355,None,1,2022_Apr_07_1150,Semantic-hierachy,2021.1.2,59.8348842750952,
312,Trial # 313,layer9-17_O9_to_T8.jpg,layer9-17/layer9-17_O9_to_T8.jpg,OT,layer9-17,,,,,,,,,0.0,12.0,12.0,12.0,1226.5708528780378,None,4.0,7.966532652964815,1226.5708528780378,None,1226.5708528780378,None,1226.5708528780378,None,1,2022_Apr_07_1150,Semantic-hierachy,2021.1.2,59.8348842750952,
313,Trial # 314,layer0-5_O3_to_T2.jpg,layer0-5/layer0-5_O3_to_T2.jpg,OT,layer0-5,,,,,,,,,0.0,13.0,13.0,13.0,1234.855905815959,None,1.0,1.545512811979279,1234.855905815959,None,1234.855905815959,None,1234.855905815959,None,1,2022_Apr_07_1150,Semantic-hierachy,2021.1.2,59.8348842750952,
314,Trial # 315,layer9-17_T1_to_T11.jpg,layer9-17/layer9-17_T1_to_T11.jpg,TT,layer9-17,,,,,,,,,0.0,14.0,14.0,14.0,1236.7739962420892,None,2.0,1.3822880981024357,1236.7739962420892,None,1236.7739962420892,None,1236.7739962420892,None,1,2022_Apr_07_1150,Semantic-hierachy,2021.1.2,59.8348842750952,
315,Trial # 316,layer6-8_T10_to_T7.jpg,layer6-8/layer6-8_T10_to_T7.jpg,TT,layer6-8,,,,,,,,,0.0,15.0,15.0,15.0,1238.7234469240066,None,3.0,2.7647464950568974,1238.7234469240066,None,1238.7234469240066,None,1238.7234469240066,None,1,2022_Apr_07_1150,Semantic-hierachy,2021.1.2,59.8348842750952,
316,Trial # 317,layer0-5_T6_to_T7.jpg,layer0-5/layer0-5_T6_to_T7.jpg,TT,layer0-5,,,,,,,,,0.0,16.0,16.0,16.0,1241.8590583819896,None,1.0,1.4804036440327764,1241.8590583819896,None,1241.8590583819896,None,1241.8590583819896,None,1,2022_Apr_07_1150,Semantic-hierachy,2021.1.2,59.8348842750952,
317,Trial # 318,layer9-17_O1_to_T3.jpg,layer9-17/layer9-17_O1_to_T3.jpg,OT,layer9-17,,,,,,,,,0.0,17.0,17.0,17.0,1243.6249129150528,None,2.0,1.7293134189676491,1243.6249129150528,None,1243.6249129150528,None,1243.6249129150528,None,1,2022_Apr_07_1150,Semantic-hierachy,2021.1.2,59.8348842750952,
318,Trial # 319,layer0-5_O2_to_T5.jpg,layer0-5/layer0-5_O2_to_T5.jpg,OT,layer0-5,,,,,,,,,0.0,18.0,18.0,18.0,1245.6255818491336,None,1.0,1.6319038879591972,1245.6255818491336,None,1245.6255818491336,None,1245.6255818491336,None,1,2022_Apr_07_1150,Semantic-hierachy,2021.1.2,59.8348842750952,
319,Trial # 320,layer6-8_O7_to_T10.jpg,layer6-8/layer6-8_O7_to_T10.jpg,OT,layer6-8,,,,,,,,,0.0,19.0,19.0,19.0,1247.627130670007,None,3.0,1.7283892589621246,1247.627130670007,None,1247.627130670007,None,1247.627130670007,None,1,2022_Apr_07_1150,Semantic-hierachy,2021.1.2,59.8348842750952,
320,Trial # 321,layer0-5_O5_to_O6.jpg,layer0-5/layer0-5_O5_to_O6.jpg,OO,layer0-5,,,,,,,,,0.0,20.0,20.0,20.0,1250.543334811926,None,1.0,1.4623045260086656,1250.543334811926,None,1250.543334811926,None,1250.543334811926,None,1,2022_Apr_07_1150,Semantic-hierachy,2021.1.2,59.8348842750952,
321,Trial # 322,layer9-17_O5_to_T4.jpg,layer9-17/layer9-17_O5_to_T4.jpg,OT,layer9-17,,,,,,,,,0.0,21.0,21.0,21.0,1252.4622948390895,None,2.0,2.46593734389171,1252.4622948390895,None,1252.4622948390895,None,1252.4622948390895,None,1,2022_Apr_07_1150,Semantic-hierachy,2021.1.2,59.8348842750952,
322,Trial # 323,layer0-5_T12_to_T2.jpg,layer0-5/layer0-5_T12_to_T2.jpg,TT,layer0-5,,,,,,,,,0.0,22.0,22.0,22.0,1255.2784264311194,None,1.0,2.0824603280052543,1255.2784264311194,None,1255.2784264311194,None,1255.2784264311194,None,1,2022_Apr_07_1150,Semantic-hierachy,2021.1.2,59.8348842750952,
323,Trial # 324,layer0-5_O2_to_O4.jpg,layer0-5/layer0-5_O2_to_O4.jpg,OO,layer0-5,,,,,,,,,0.0,23.0,23.0,23.0,1257.7472447031178,None,1.0,1.1556304369587451,1257.7472447031178,None,1257.7472447031178,None,1257.7472447031178,None,1,2022_Apr_07_1150,Semantic-hierachy,2021.1.2,59.8348842750952,
324,Trial # 325,layer6-8_O1_to_O9.jpg,layer6-8/layer6-8_O1_to_O9.jpg,OO,layer6-8,,,,,,,,,0.0,24.0,24.0,24.0,1259.246324029984,None,3.0,1.880785535089672,1259.246324029984,None,1259.246324029984,None,1259.246324029984,None,1,2022_Apr_07_1150,Semantic-hierachy,2021.1.2,59.8348842750952,
325,Trial # 326,layer0-5_T3_to_T5.jpg,layer0-5/layer0-5_T3_to_T5.jpg,TT,layer0-5,,,,,,,,,0.0,25.0,25.0,25.0,1263.5977630789855,None,1.0,2.2877789561171085,1263.5977630789855,None,1263.5977630789855,None,1263.5977630789855,None,1,2022_Apr_07_1150,Semantic-hierachy,2021.1.2,59.8348842750952,
326,Trial # 327,layer6-8_O8_to_T12.jpg,layer6-8/layer6-8_O8_to_T12.jpg,OT,layer6-8,,,,,,,,,0.0,26.0,26.0,26.0,1266.2165088779293,None,3.0,1.9115708640310916,1266.2165088779293,None,1266.2165088779293,None,1266.2165088779293,None,1,2022_Apr_07_1150,Semantic-hierachy,2021.1.2,59.8348842750952,
327,Trial # 328,layer9-17_T11_to_T4.jpg,layer9-17/layer9-17_T11_to_T4.jpg,TT,layer9-17,,,,,,,,,0.0,27.0,27.0,27.0,1270.250011122087,None,2.0,1.9172546579502523,1270.250011122087,None,1270.250011122087,None,1270.250011122087,None,1,2022_Apr_07_1150,Semantic-hierachy,2021.1.2,59.8348842750952,
328,Trial # 329,layer9-17_O6_to_T2.jpg,layer9-17/layer9-17_O6_to_T2.jpg,OT,layer9-17,,,,,,,,,0.0,28.0,28.0,28.0,1272.4519998161122,None,2.0,1.050364197930321,1272.4519998161122,None,1272.4519998161122,None,1272.4519998161122,None,1,2022_Apr_07_1150,Semantic-hierachy,2021.1.2,59.8348842750952,
329,Trial # 330,layer9-17_T10_to_T9.jpg,layer9-17/layer9-17_T10_to_T9.jpg,TT,layer9-17,,,,,,,,,0.0,29.0,29.0,29.0,1274.384433774976,None,2.0,1.2591463909484446,1274.384433774976,None,1274.384433774976,None,1274.384433774976,None,1,2022_Apr_07_1150,Semantic-hierachy,2021.1.2,59.8348842750952,
330,Trial # 331,layer0-5_O2_to_O3.jpg,layer0-5/layer0-5_O2_to_O3.jpg,OO,layer0-5,,,,,,,,,0.0,30.0,30.0,30.0,1276.536534733139,None,1.0,2.6424014470539987,1276.536534733139,None,1276.536534733139,None,1276.536534733139,None,1,2022_Apr_07_1150,Semantic-hierachy,2021.1.2,59.8348842750952,
331,Trial # 332,layer6-8_O1_to_O12.jpg,layer6-8/layer6-8_O1_to_O12.jpg,OO,layer6-8,,,,,,,,,0.0,31.0,31.0,31.0,1279.7862367311027,None,3.0,3.4817897288594395,1279.7862367311027,None,1279.7862367311027,None,1279.7862367311027,None,1,2022_Apr_07_1150,Semantic-hierachy,2021.1.2,59.8348842750952,
332,Trial # 333,layer0-5_O5_to_T12.jpg,layer0-5/layer0-5_O5_to_T12.jpg,OT,layer0-5,,,,,,,,,0.0,32.0,32.0,32.0,1284.271075200988,None,1.0,1.5932528669945896,1284.271075200988,None,1284.271075200988,None,1284.271075200988,None,1,2022_Apr_07_1150,Semantic-hierachy,2021.1.2,59.8348842750952,
333,Trial # 334,layer9-17_O11_to_T6.jpg,layer9-17/layer9-17_O11_to_T6.jpg,OT,layer9-17,,,,,,,,,0.0,33.0,33.0,33.0,1286.439536435064,None,2.0,8.799150688108057,1286.439536435064,None,1286.439536435064,None,1286.439536435064,None,1,2022_Apr_07_1150,Semantic-hierachy,2021.1.2,59.8348842750952,
334,Trial # 335,layer0-5_O4_to_T1.jpg,layer0-5/layer0-5_O4_to_T1.jpg,OT,layer0-5,,,,,,,,,0.0,34.0,34.0,34.0,1295.5578743289225,None,1.0,2.343159595038742,1295.5578743289225,None,1295.5578743289225,None,1295.5578743289225,None,1,2022_Apr_07_1150,Semantic-hierachy,2021.1.2,59.8348842750952,
335,Trial # 336,layer6-8_T1_to_T6.jpg,layer6-8/layer6-8_T1_to_T6.jpg,TT,layer6-8,,,,,,,,,0.0,35.0,35.0,35.0,1298.2252984009683,None,3.0,6.65984788001515,1298.2252984009683,None,1298.2252984009683,None,1298.2252984009683,None,1,2022_Apr_07_1150,Semantic-hierachy,2021.1.2,59.8348842750952,
336,Trial # 337,layer0-5_O12_to_O6.jpg,layer0-5/layer0-5_O12_to_O6.jpg,OO,layer0-5,,,,,,,,,0.0,36.0,36.0,36.0,1308.3785062860698,None,1.0,1.4150788309052589,1308.3785062860698,None,1308.3785062860698,None,1308.3785062860698,None,1,2022_Apr_07_1150,Semantic-hierachy,2021.1.2,59.8348842750952,
337,Trial # 338,layer0-5_O1_to_O10.jpg,layer0-5/layer0-5_O1_to_O10.jpg,OO,layer0-5,,,,,,,,,0.0,37.0,37.0,37.0,1310.0786287679805,None,1.0,1.2184949358925223,1310.0786287679805,None,1310.0786287679805,None,1310.0786287679805,None,1,2022_Apr_07_1150,Semantic-hierachy,2021.1.2,59.8348842750952,
338,Trial # 339,layer0-5_O9_to_T9.jpg,layer0-5/layer0-5_O9_to_T9.jpg,OT,layer0-5,,,,,,,,,0.0,38.0,38.0,38.0,1311.8306382989977,None,1.0,1.11005220701918,1311.8306382989977,None,1311.8306382989977,None,1311.8306382989977,None,1,2022_Apr_07_1150,Semantic-hierachy,2021.1.2,59.8348842750952,
339,Trial # 340,layer6-8_O6_to_T10.jpg,layer6-8/layer6-8_O6_to_T10.jpg,OT,layer6-8,,,,,,,,,0.0,39.0,39.0,39.0,1313.263123448938,None,3.0,2.0137511868961155,1313.263123448938,None,1313.263123448938,None,1313.263123448938,None,1,2022_Apr_07_1150,Semantic-hierachy,2021.1.2,59.8348842750952,
340,Trial # 341,layer9-17_O3_to_T3.jpg,layer9-17/layer9-17_O3_to_T3.jpg,OT,layer9-17,,,,,,,,,0.0,40.0,40.0,40.0,1315.8483938029967,None,2.0,1.5143912269268185,1315.8483938029967,None,1315.8483938029967,None,1315.8483938029967,None,1,2022_Apr_07_1150,Semantic-hierachy,2021.1.2,59.8348842750952,
341,Trial # 342,layer0-5_O8_to_T8.jpg,layer0-5/layer0-5_O8_to_T8.jpg,OT,layer0-5,,,,,,,,,0.0,41.0,41.0,41.0,1317.6310834749602,None,1.0,3.0129058589227498,1317.6310834749602,None,1317.6310834749602,None,1317.6310834749602,None,1,2022_Apr_07_1150,Semantic-hierachy,2021.1.2,59.8348842750952,
342,Trial # 343,layer9-17_O11_to_O3.jpg,layer9-17/layer9-17_O11_to_O3.jpg,OO,layer9-17,,,,,,,,,0.0,42.0,42.0,42.0,1322.2499686949886,None,2.0,1.9611055650748312,1322.2499686949886,None,1322.2499686949886,None,1322.2499686949886,None,1,2022_Apr_07_1150,Semantic-hierachy,2021.1.2,59.8348842750952,
