,Trial_num,image_name,image_path,pair_type,layers,block1.thisRepN,block1.thisTrialN,block1.thisN,block1.thisIndex,block2.thisRepN,block2.thisTrialN,block2.thisN,block2.thisIndex,block3.thisRepN,block3.thisTrialN,block3.thisN,block3.thisIndex,image_8.started,image_8.stopped,selected_semantic.response,selected_semantic.rt,selected_semantic.started,selected_semantic.stopped,Instruction.started,Instruction.stopped,Trial_number.started,Trial_number.stopped,session,date,expName,psychopyVersion,frameRate,Unnamed: 33
0,Trial # 1,layer0-5_O2_to_T1.jpg,layer0-5/layer0-5_O2_to_T1.jpg,OT,layer0-5,0.0,0.0,0.0,0.0,,,,,,,,,48.95430968306027,None,1.0,15.253395872889088,48.95430968306027,None,48.95430968306027,None,48.95430968306027,None,1,2022_Apr_14_1003,Semantic-hierachy,2021.1.2,59.81877519633524,
1,Trial # 2,layer0-5_O11_to_T7.jpg,layer0-5/layer0-5_O11_to_T7.jpg,OT,layer0-5,0.0,1.0,1.0,1.0,,,,,,,,,66.8935604810249,None,1.0,21.96942357206717,66.8935604810249,None,66.8935604810249,None,66.8935604810249,None,1,2022_Apr_14_1003,Semantic-hierachy,2021.1.2,59.81877519633524,
2,Trial # 3,layer6-8_O3_to_O5.jpg,layer6-8/layer6-8_O3_to_O5.jpg,OO,layer6-8,0.0,2.0,2.0,2.0,,,,,,,,,93.5513793178834,None,4.0,7.439969035098329,93.5513793178834,None,93.5513793178834,None,93.5513793178834,None,1,2022_Apr_14_1003,Semantic-hierachy,2021.1.2,59.81877519633524,
3,Trial # 4,layer6-8_O11_to_O4.jpg,layer6-8/layer6-8_O11_to_O4.jpg,OO,layer6-8,0.0,3.0,3.0,3.0,,,,,,,,,103.48766062688082,None,3.0,3.318764485185966,103.48766062688082,None,103.48766062688082,None,103.48766062688082,None,1,2022_Apr_14_1003,Semantic-hierachy,2021.1.2,59.81877519633524,
4,Trial # 5,layer6-8_O8_to_T8.jpg,layer6-8/layer6-8_O8_to_T8.jpg,OT,layer6-8,0.0,4.0,4.0,4.0,,,,,,,,,107.70699439803138,None,4.0,4.791494756005704,107.70699439803138,None,107.70699439803138,None,107.70699439803138,None,1,2022_Apr_14_1003,Semantic-hierachy,2021.1.2,59.81877519633524,
5,Trial # 6,layer0-5_O11_to_O8.jpg,layer0-5/layer0-5_O11_to_O8.jpg,OO,layer0-5,0.0,5.0,5.0,5.0,,,,,,,,,114.84129928797483,None,1.0,3.245361388893798,114.84129928797483,None,114.84129928797483,None,114.84129928797483,None,1,2022_Apr_14_1003,Semantic-hierachy,2021.1.2,59.81877519633524,
6,Trial # 7,layer0-5_T10_to_T11.jpg,layer0-5/layer0-5_T10_to_T11.jpg,TT,layer0-5,0.0,6.0,6.0,6.0,,,,,,,,,119.02596204704604,None,1.0,1.7538739549927411,119.02596204704604,None,119.02596204704604,None,119.02596204704604,None,1,2022_Apr_14_1003,Semantic-hierachy,2021.1.2,59.81877519633524,
7,Trial # 8,layer9-17_O6_to_O9.jpg,layer9-17/layer9-17_O6_to_O9.jpg,OO,layer9-17,0.0,7.0,7.0,7.0,,,,,,,,,121.4613677780144,None,2.0,2.481551269069314,121.4613677780144,None,121.4613677780144,None,121.4613677780144,None,1,2022_Apr_14_1003,Semantic-hierachy,2021.1.2,59.81877519633524,
8,Trial # 9,layer6-8_O12_to_O9.jpg,layer6-8/layer6-8_O12_to_O9.jpg,OO,layer6-8,0.0,8.0,8.0,8.0,,,,,,,,,124.37771285907364,None,4.0,6.266716605052352,124.37771285907364,None,124.37771285907364,None,124.37771285907364,None,1,2022_Apr_14_1003,Semantic-hierachy,2021.1.2,59.81877519633524,
9,Trial # 10,layer0-5_O10_to_T2.jpg,layer0-5/layer0-5_O10_to_T2.jpg,OT,layer0-5,0.0,9.0,9.0,9.0,,,,,,,,,131.1128773749806,None,4.0,4.675815902883187,131.1128773749806,None,131.1128773749806,None,131.1128773749806,None,1,2022_Apr_14_1003,Semantic-hierachy,2021.1.2,59.81877519633524,
10,Trial # 11,layer9-17_T10_to_T2.jpg,layer9-17/layer9-17_T10_to_T2.jpg,TT,layer9-17,0.0,10.0,10.0,10.0,,,,,,,,,136.1308549658861,None,2.0,19.11761830002069,136.1308549658861,None,136.1308549658861,None,136.1308549658861,None,1,2022_Apr_14_1003,Semantic-hierachy,2021.1.2,59.81877519633524,
11,Trial # 12,layer6-8_T6_to_T7.jpg,layer6-8/layer6-8_T6_to_T7.jpg,TT,layer6-8,0.0,11.0,11.0,11.0,,,,,,,,,155.5874280720018,None,3.0,7.824816257925704,155.5874280720018,None,155.5874280720018,None,155.5874280720018,None,1,2022_Apr_14_1003,Semantic-hierachy,2021.1.2,59.81877519633524,
12,Trial # 13,layer9-17_O10_to_T2.jpg,layer9-17/layer9-17_O10_to_T2.jpg,OT,layer9-17,0.0,12.0,12.0,12.0,,,,,,,,,163.73958706692792,None,2.0,2.7403630558401346,163.73958706692792,None,163.73958706692792,None,163.73958706692792,None,1,2022_Apr_14_1003,Semantic-hierachy,2021.1.2,59.81877519633524,
13,Trial # 14,layer6-8_T4_to_T7.jpg,layer6-8/layer6-8_T4_to_T7.jpg,TT,layer6-8,0.0,13.0,13.0,13.0,,,,,,,,,166.79184152092785,None,4.0,3.347428682958707,166.79184152092785,None,166.79184152092785,None,166.79184152092785,None,1,2022_Apr_14_1003,Semantic-hierachy,2021.1.2,59.81877519633524,
14,Trial # 15,layer9-17_O8_to_T2.jpg,layer9-17/layer9-17_O8_to_T2.jpg,OT,layer9-17,0.0,14.0,14.0,14.0,,,,,,,,,170.4755145770032,None,2.0,2.242096396861598,170.4755145770032,None,170.4755145770032,None,170.4755145770032,None,1,2022_Apr_14_1003,Semantic-hierachy,2021.1.2,59.81877519633524,
15,Trial # 16,layer0-5_T6_to_T9.jpg,layer0-5/layer0-5_T6_to_T9.jpg,TT,layer0-5,0.0,15.0,15.0,15.0,,,,,,,,,173.04394487501122,None,1.0,2.8146244829986244,173.04394487501122,None,173.04394487501122,None,173.04394487501122,None,1,2022_Apr_14_1003,Semantic-hierachy,2021.1.2,59.81877519633524,
16,Trial # 17,layer0-5_O11_to_O12.jpg,layer0-5/layer0-5_O11_to_O12.jpg,OO,layer0-5,0.0,16.0,16.0,16.0,,,,,,,,,176.3284450948704,None,1.0,1.6976901178713888,176.3284450948704,None,176.3284450948704,None,176.3284450948704,None,1,2022_Apr_14_1003,Semantic-hierachy,2021.1.2,59.81877519633524,
17,Trial # 18,layer0-5_T11_to_T5.jpg,layer0-5/layer0-5_T11_to_T5.jpg,TT,layer0-5,0.0,17.0,17.0,17.0,,,,,,,,,178.41162092401646,None,1.0,1.8879649909213183,178.41162092401646,None,178.41162092401646,None,178.41162092401646,None,1,2022_Apr_14_1003,Semantic-hierachy,2021.1.2,59.81877519633524,
18,Trial # 19,layer0-5_O6_to_T12.jpg,layer0-5/layer0-5_O6_to_T12.jpg,OT,layer0-5,0.0,18.0,18.0,18.0,,,,,,,,,180.69527127500623,None,1.0,1.7052590530365703,180.69527127500623,None,180.69527127500623,None,180.69527127500623,None,1,2022_Apr_14_1003,Semantic-hierachy,2021.1.2,59.81877519633524,
19,Trial # 20,layer6-8_T6_to_T8.jpg,layer6-8/layer6-8_T6_to_T8.jpg,TT,layer6-8,0.0,19.0,19.0,19.0,,,,,,,,,182.7302995719947,None,3.0,3.138364718062803,182.7302995719947,None,182.7302995719947,None,182.7302995719947,None,1,2022_Apr_14_1003,Semantic-hierachy,2021.1.2,59.81877519633524,
20,Trial # 21,layer9-17_T2_to_T5.jpg,layer9-17/layer9-17_T2_to_T5.jpg,TT,layer9-17,0.0,20.0,20.0,20.0,,,,,,,,,186.19717232696712,None,2.0,1.9899541910272087,186.19717232696712,None,186.19717232696712,None,186.19717232696712,None,1,2022_Apr_14_1003,Semantic-hierachy,2021.1.2,59.81877519633524,
21,Trial # 22,layer6-8_O2_to_O6.jpg,layer6-8/layer6-8_O2_to_O6.jpg,OO,layer6-8,0.0,21.0,21.0,21.0,,,,,,,,,188.51535203889944,None,4.0,2.444060512119904,188.51535203889944,None,188.51535203889944,None,188.51535203889944,None,1,2022_Apr_14_1003,Semantic-hierachy,2021.1.2,59.81877519633524,
22,Trial # 23,layer9-17_O3_to_T12.jpg,layer9-17/layer9-17_O3_to_T12.jpg,OT,layer9-17,0.0,22.0,22.0,22.0,,,,,,,,,191.28201630502008,None,2.0,2.2294480348937213,191.28201630502008,None,191.28201630502008,None,191.28201630502008,None,1,2022_Apr_14_1003,Semantic-hierachy,2021.1.2,59.81877519633524,
23,Trial # 24,layer0-5_O11_to_O3.jpg,layer0-5/layer0-5_O11_to_O3.jpg,OO,layer0-5,0.0,23.0,23.0,23.0,,,,,,,,,193.85026574600488,None,1.0,1.6814751129131764,193.85026574600488,None,193.85026574600488,None,193.85026574600488,None,1,2022_Apr_14_1003,Semantic-hierachy,2021.1.2,59.81877519633524,
24,Trial # 25,layer6-8_O2_to_O9.jpg,layer6-8/layer6-8_O2_to_O9.jpg,OO,layer6-8,0.0,24.0,24.0,24.0,,,,,,,,,195.91710368497297,None,4.0,2.643642187817022,195.91710368497297,None,195.91710368497297,None,195.91710368497297,None,1,2022_Apr_14_1003,Semantic-hierachy,2021.1.2,59.81877519633524,
25,Trial # 26,layer9-17_O10_to_O8.jpg,layer9-17/layer9-17_O10_to_O8.jpg,OO,layer9-17,0.0,25.0,25.0,25.0,,,,,,,,,198.8677524679806,None,2.0,7.612169923027977,198.8677524679806,None,198.8677524679806,None,198.8677524679806,None,1,2022_Apr_14_1003,Semantic-hierachy,2021.1.2,59.81877519633524,
26,Trial # 27,layer9-17_T4_to_T6.jpg,layer9-17/layer9-17_T4_to_T6.jpg,TT,layer9-17,0.0,26.0,26.0,26.0,,,,,,,,,206.9707580609247,None,2.0,2.028487885836512,206.9707580609247,None,206.9707580609247,None,206.9707580609247,None,1,2022_Apr_14_1003,Semantic-hierachy,2021.1.2,59.81877519633524,
27,Trial # 28,layer6-8_O7_to_T8.jpg,layer6-8/layer6-8_O7_to_T8.jpg,OT,layer6-8,0.0,27.0,27.0,27.0,,,,,,,,,209.4208870870061,None,4.0,4.496987672057003,209.4208870870061,None,209.4208870870061,None,209.4208870870061,None,1,2022_Apr_14_1003,Semantic-hierachy,2021.1.2,59.81877519633524,
28,Trial # 29,layer6-8_T4_to_T5.jpg,layer6-8/layer6-8_T4_to_T5.jpg,TT,layer6-8,0.0,28.0,28.0,28.0,,,,,,,,,214.22248587408103,None,2.0,6.126594037050381,214.22248587408103,None,214.22248587408103,None,214.22248587408103,None,1,2022_Apr_14_1003,Semantic-hierachy,2021.1.2,59.81877519633524,
29,Trial # 30,layer6-8_T10_to_T9.jpg,layer6-8/layer6-8_T10_to_T9.jpg,TT,layer6-8,0.0,29.0,29.0,29.0,,,,,,,,,220.60704132495448,None,3.0,6.44873233512044,220.60704132495448,None,220.60704132495448,None,220.60704132495448,None,1,2022_Apr_14_1003,Semantic-hierachy,2021.1.2,59.81877519633524,
30,Trial # 31,layer9-17_O1_to_O8.jpg,layer9-17/layer9-17_O1_to_O8.jpg,OO,layer9-17,0.0,30.0,30.0,30.0,,,,,,,,,228.4268004258629,None,2.0,2.1448998050764203,228.4268004258629,None,228.4268004258629,None,228.4268004258629,None,1,2022_Apr_14_1003,Semantic-hierachy,2021.1.2,59.81877519633524,
31,Trial # 32,layer9-17_O12_to_O7.jpg,layer9-17/layer9-17_O12_to_O7.jpg,OO,layer9-17,0.0,31.0,31.0,31.0,,,,,,,,,231.11089542601255,None,2.0,3.194977791979909,231.11089542601255,None,231.11089542601255,None,231.11089542601255,None,1,2022_Apr_14_1003,Semantic-hierachy,2021.1.2,59.81877519633524,
32,Trial # 33,layer9-17_T10_to_T12.jpg,layer9-17/layer9-17_T10_to_T12.jpg,TT,layer9-17,0.0,32.0,32.0,32.0,,,,,,,,,234.69515313208103,None,2.0,3.7759487538132817,234.69515313208103,None,234.69515313208103,None,234.69515313208103,None,1,2022_Apr_14_1003,Semantic-hierachy,2021.1.2,59.81877519633524,
33,Trial # 34,layer0-5_T2_to_T6.jpg,layer0-5/layer0-5_T2_to_T6.jpg,TT,layer0-5,0.0,33.0,33.0,33.0,,,,,,,,,239.813676557038,None,1.0,3.197338975034654,239.813676557038,None,239.813676557038,None,239.813676557038,None,1,2022_Apr_14_1003,Semantic-hierachy,2021.1.2,59.81877519633524,
34,Trial # 35,layer6-8_T11_to_T2.jpg,layer6-8/layer6-8_T11_to_T2.jpg,TT,layer6-8,0.0,34.0,34.0,34.0,,,,,,,,,243.3982631850522,None,4.0,7.8940439959988,243.3982631850522,None,243.3982631850522,None,243.3982631850522,None,1,2022_Apr_14_1003,Semantic-hierachy,2021.1.2,59.81877519633524,
35,Trial # 36,layer6-8_O4_to_T3.jpg,layer6-8/layer6-8_O4_to_T3.jpg,OT,layer6-8,0.0,35.0,35.0,35.0,,,,,,,,,252.3340100289788,None,3.0,2.352815407095477,252.3340100289788,None,252.3340100289788,None,252.3340100289788,None,1,2022_Apr_14_1003,Semantic-hierachy,2021.1.2,59.81877519633524,
36,Trial # 37,layer6-8_O3_to_T11.jpg,layer6-8/layer6-8_O3_to_T11.jpg,OT,layer6-8,0.0,36.0,36.0,36.0,,,,,,,,,255.01855196198449,None,2.0,2.57868901710026,255.01855196198449,None,255.01855196198449,None,255.01855196198449,None,1,2022_Apr_14_1003,Semantic-hierachy,2021.1.2,59.81877519633524,
37,Trial # 38,layer6-8_T1_to_T2.jpg,layer6-8/layer6-8_T1_to_T2.jpg,TT,layer6-8,0.0,37.0,37.0,37.0,,,,,,,,,257.9700161940418,None,4.0,7.961169464047998,257.9700161940418,None,257.9700161940418,None,257.9700161940418,None,1,2022_Apr_14_1003,Semantic-hierachy,2021.1.2,59.81877519633524,
38,Trial # 39,layer9-17_O2_to_O6.jpg,layer9-17/layer9-17_O2_to_O6.jpg,OO,layer9-17,0.0,38.0,38.0,38.0,,,,,,,,,266.7064869119786,None,2.0,5.091291000833735,266.7064869119786,None,266.7064869119786,None,266.7064869119786,None,1,2022_Apr_14_1003,Semantic-hierachy,2021.1.2,59.81877519633524,
39,Trial # 40,layer9-17_O4_to_T2.jpg,layer9-17/layer9-17_O4_to_T2.jpg,OT,layer9-17,0.0,39.0,39.0,39.0,,,,,,,,,272.3416172720026,None,2.0,2.195427061058581,272.3416172720026,None,272.3416172720026,None,272.3416172720026,None,1,2022_Apr_14_1003,Semantic-hierachy,2021.1.2,59.81877519633524,
40,Trial # 41,layer6-8_O5_to_T3.jpg,layer6-8/layer6-8_O5_to_T3.jpg,OT,layer6-8,0.0,40.0,40.0,40.0,,,,,,,,,275.0243175229989,None,3.0,3.1422392250970006,275.0243175229989,None,275.0243175229989,None,275.0243175229989,None,1,2022_Apr_14_1003,Semantic-hierachy,2021.1.2,59.81877519633524,
41,Trial # 42,layer6-8_O2_to_O3.jpg,layer6-8/layer6-8_O2_to_O3.jpg,OO,layer6-8,0.0,41.0,41.0,41.0,,,,,,,,,278.49278834299184,None,2.0,3.647371354978532,278.49278834299184,None,278.49278834299184,None,278.49278834299184,None,1,2022_Apr_14_1003,Semantic-hierachy,2021.1.2,59.81877519633524,
42,Trial # 43,layer6-8_O1_to_T6.jpg,layer6-8/layer6-8_O1_to_T6.jpg,OT,layer6-8,0.0,42.0,42.0,42.0,,,,,,,,,282.9108250029385,None,2.0,1.3931231510359794,282.9108250029385,None,282.9108250029385,None,282.9108250029385,None,1,2022_Apr_14_1003,Semantic-hierachy,2021.1.2,59.81877519633524,
43,Trial # 44,layer6-8_O2_to_T12.jpg,layer6-8/layer6-8_O2_to_T12.jpg,OT,layer6-8,0.0,43.0,43.0,43.0,,,,,,,,,284.84376632305793,None,3.0,4.545974547974765,284.84376632305793,None,284.84376632305793,None,284.84376632305793,None,1,2022_Apr_14_1003,Semantic-hierachy,2021.1.2,59.81877519633524,
44,Trial # 45,layer9-17_O2_to_O8.jpg,layer9-17/layer9-17_O2_to_O8.jpg,OO,layer9-17,0.0,44.0,44.0,44.0,,,,,,,,,290.0119317029603,None,2.0,2.3772011909168214,290.0119317029603,None,290.0119317029603,None,290.0119317029603,None,1,2022_Apr_14_1003,Semantic-hierachy,2021.1.2,59.81877519633524,
45,Trial # 46,layer9-17_O10_to_O4.jpg,layer9-17/layer9-17_O10_to_O4.jpg,OO,layer9-17,0.0,45.0,45.0,45.0,,,,,,,,,293.6801831109915,None,2.0,2.347037557978183,293.6801831109915,None,293.6801831109915,None,293.6801831109915,None,1,2022_Apr_14_1003,Semantic-hierachy,2021.1.2,59.81877519633524,
46,Trial # 47,layer0-5_O1_to_O4.jpg,layer0-5/layer0-5_O1_to_O4.jpg,OO,layer0-5,0.0,46.0,46.0,46.0,,,,,,,,,296.4155636308715,None,1.0,2.1836114870384336,296.4155636308715,None,296.4155636308715,None,296.4155636308715,None,1,2022_Apr_14_1003,Semantic-hierachy,2021.1.2,59.81877519633524,
47,Trial # 48,layer0-5_T4_to_T5.jpg,layer0-5/layer0-5_T4_to_T5.jpg,TT,layer0-5,0.0,47.0,47.0,47.0,,,,,,,,,298.93187255598605,None,1.0,1.4133382888976485,298.93187255598605,None,298.93187255598605,None,298.93187255598605,None,1,2022_Apr_14_1003,Semantic-hierachy,2021.1.2,59.81877519633524,
48,Trial # 49,layer9-17_T12_to_T8.jpg,layer9-17/layer9-17_T12_to_T8.jpg,TT,layer9-17,0.0,48.0,48.0,48.0,,,,,,,,,300.6830613440834,None,2.0,2.1088652319740504,300.6830613440834,None,300.6830613440834,None,300.6830613440834,None,1,2022_Apr_14_1003,Semantic-hierachy,2021.1.2,59.81877519633524,
49,Trial # 50,layer0-5_T10_to_T5.jpg,layer0-5/layer0-5_T10_to_T5.jpg,TT,layer0-5,0.0,49.0,49.0,49.0,,,,,,,,,303.09967301297,None,1.0,2.7587786838412285,303.09967301297,None,303.09967301297,None,303.09967301297,None,1,2022_Apr_14_1003,Semantic-hierachy,2021.1.2,59.81877519633524,
50,Trial # 51,layer6-8_O10_to_O8.jpg,layer6-8/layer6-8_O10_to_O8.jpg,OO,layer6-8,0.0,50.0,50.0,50.0,,,,,,,,,306.150689851027,None,2.0,2.277385128894821,306.150689851027,None,306.150689851027,None,306.150689851027,None,1,2022_Apr_14_1003,Semantic-hierachy,2021.1.2,59.81877519633524,
51,Trial # 52,layer9-17_O3_to_O5.jpg,layer9-17/layer9-17_O3_to_O5.jpg,OO,layer9-17,0.0,51.0,51.0,51.0,,,,,,,,,310.0859645900782,None,2.0,3.528389235958457,310.0859645900782,None,310.0859645900782,None,310.0859645900782,None,1,2022_Apr_14_1003,Semantic-hierachy,2021.1.2,59.81877519633524,
52,Trial # 53,layer6-8_T1_to_T12.jpg,layer6-8/layer6-8_T1_to_T12.jpg,TT,layer6-8,0.0,52.0,52.0,52.0,,,,,,,,,313.9863452850841,None,3.0,2.523992571979761,313.9863452850841,None,313.9863452850841,None,313.9863452850841,None,1,2022_Apr_14_1003,Semantic-hierachy,2021.1.2,59.81877519633524,
53,Trial # 54,layer0-5_O4_to_O9.jpg,layer0-5/layer0-5_O4_to_O9.jpg,OO,layer0-5,0.0,53.0,53.0,53.0,,,,,,,,,316.95520735997707,None,1.0,2.350738534005359,316.95520735997707,None,316.95520735997707,None,316.95520735997707,None,1,2022_Apr_14_1003,Semantic-hierachy,2021.1.2,59.81877519633524,
54,Trial # 55,layer0-5_O5_to_O9.jpg,layer0-5/layer0-5_O5_to_O9.jpg,OO,layer0-5,0.0,54.0,54.0,54.0,,,,,,,,,319.6059517720714,None,1.0,1.4302537420298904,319.6059517720714,None,319.6059517720714,None,319.6059517720714,None,1,2022_Apr_14_1003,Semantic-hierachy,2021.1.2,59.81877519633524,
55,Trial # 56,layer0-5_O1_to_O2.jpg,layer0-5/layer0-5_O1_to_O2.jpg,OO,layer0-5,0.0,55.0,55.0,55.0,,,,,,,,,321.3730654900428,None,1.0,3.640855052974075,321.3730654900428,None,321.3730654900428,None,321.3730654900428,None,1,2022_Apr_14_1003,Semantic-hierachy,2021.1.2,59.81877519633524,
56,Trial # 57,layer9-17_T12_to_T3.jpg,layer9-17/layer9-17_T12_to_T3.jpg,TT,layer9-17,0.0,56.0,56.0,56.0,,,,,,,,,325.6394432829693,None,2.0,3.355678410967812,325.6394432829693,None,325.6394432829693,None,325.6394432829693,None,1,2022_Apr_14_1003,Semantic-hierachy,2021.1.2,59.81877519633524,
57,Trial # 58,layer0-5_O7_to_O9.jpg,layer0-5/layer0-5_O7_to_O9.jpg,OO,layer0-5,0.0,57.0,57.0,57.0,,,,,,,,,329.2910692950245,None,1.0,2.0985205380711704,329.2910692950245,None,329.2910692950245,None,329.2910692950245,None,1,2022_Apr_14_1003,Semantic-hierachy,2021.1.2,59.81877519633524,
58,Trial # 59,layer0-5_T5_to_T9.jpg,layer0-5/layer0-5_T5_to_T9.jpg,TT,layer0-5,0.0,58.0,58.0,58.0,,,,,,,,,332.0434232999105,None,1.0,1.5308052408508956,332.0434232999105,None,332.0434232999105,None,332.0434232999105,None,1,2022_Apr_14_1003,Semantic-hierachy,2021.1.2,59.81877519633524,
59,Trial # 60,layer9-17_O1_to_O9.jpg,layer9-17/layer9-17_O1_to_O9.jpg,OO,layer9-17,0.0,59.0,59.0,59.0,,,,,,,,,334.17610954889096,None,2.0,2.743782795034349,334.17610954889096,None,334.17610954889096,None,334.17610954889096,None,1,2022_Apr_14_1003,Semantic-hierachy,2021.1.2,59.81877519633524,
60,Trial # 61,layer0-5_O6_to_O7.jpg,layer0-5/layer0-5_O6_to_O7.jpg,OO,layer0-5,0.0,60.0,60.0,60.0,,,,,,,,,337.37786850798875,None,1.0,2.1937021401245147,337.37786850798875,None,337.37786850798875,None,337.37786850798875,None,1,2022_Apr_14_1003,Semantic-hierachy,2021.1.2,59.81877519633524,
61,Trial # 62,layer9-17_T5_to_T6.jpg,layer9-17/layer9-17_T5_to_T6.jpg,TT,layer9-17,0.0,61.0,61.0,61.0,,,,,,,,,340.07810233393684,None,2.0,2.0242547779344022,340.07810233393684,None,340.07810233393684,None,340.07810233393684,None,1,2022_Apr_14_1003,Semantic-hierachy,2021.1.2,59.81877519633524,
62,Trial # 63,layer9-17_T4_to_T9.jpg,layer9-17/layer9-17_T4_to_T9.jpg,TT,layer9-17,0.0,62.0,62.0,62.0,,,,,,,,,342.6122650939505,None,2.0,1.8108869770076128,342.6122650939505,None,342.6122650939505,None,342.6122650939505,None,1,2022_Apr_14_1003,Semantic-hierachy,2021.1.2,59.81877519633524,
63,Trial # 64,layer0-5_O11_to_T1.jpg,layer0-5/layer0-5_O11_to_T1.jpg,OT,layer0-5,0.0,63.0,63.0,63.0,,,,,,,,,344.91264616698027,None,1.0,1.845414198935032,344.91264616698027,None,344.91264616698027,None,344.91264616698027,None,1,2022_Apr_14_1003,Semantic-hierachy,2021.1.2,59.81877519633524,
64,Trial # 65,layer6-8_T5_to_T9.jpg,layer6-8/layer6-8_T5_to_T9.jpg,TT,layer6-8,0.0,64.0,64.0,64.0,,,,,,,,,347.0305669018999,None,2.0,3.559519890928641,347.0305669018999,None,347.0305669018999,None,347.0305669018999,None,1,2022_Apr_14_1003,Semantic-hierachy,2021.1.2,59.81877519633524,
65,Trial # 66,layer0-5_T4_to_T7.jpg,layer0-5/layer0-5_T4_to_T7.jpg,TT,layer0-5,0.0,65.0,65.0,65.0,,,,,,,,,351.04800832807086,None,1.0,1.6825087920296935,351.04800832807086,None,351.04800832807086,None,351.04800832807086,None,1,2022_Apr_14_1003,Semantic-hierachy,2021.1.2,59.81877519633524,
66,Trial # 67,layer0-5_O2_to_O6.jpg,layer0-5/layer0-5_O2_to_O6.jpg,OO,layer0-5,0.0,66.0,66.0,66.0,,,,,,,,,353.016683191061,None,1.0,1.3487733420915902,353.016683191061,None,353.016683191061,None,353.016683191061,None,1,2022_Apr_14_1003,Semantic-hierachy,2021.1.2,59.81877519633524,
67,Trial # 68,layer9-17_O12_to_T3.jpg,layer9-17/layer9-17_O12_to_T3.jpg,OT,layer9-17,0.0,67.0,67.0,67.0,,,,,,,,,354.76561699202284,None,2.0,1.5613665520213544,354.76561699202284,None,354.76561699202284,None,354.76561699202284,None,1,2022_Apr_14_1003,Semantic-hierachy,2021.1.2,59.81877519633524,
68,Trial # 69,layer9-17_O7_to_O9.jpg,layer9-17/layer9-17_O7_to_O9.jpg,OO,layer9-17,0.0,68.0,68.0,68.0,,,,,,,,,356.6336479270831,None,2.0,5.129190495004877,356.6336479270831,None,356.6336479270831,None,356.6336479270831,None,1,2022_Apr_14_1003,Semantic-hierachy,2021.1.2,59.81877519633524,
69,Trial # 70,layer9-17_T1_to_T8.jpg,layer9-17/layer9-17_T1_to_T8.jpg,TT,layer9-17,0.0,69.0,69.0,69.0,,,,,,,,,362.10220322804525,None,2.0,2.610961477039382,362.10220322804525,None,362.10220322804525,None,362.10220322804525,None,1,2022_Apr_14_1003,Semantic-hierachy,2021.1.2,59.81877519633524,
70,Trial # 71,layer0-5_O3_to_T8.jpg,layer0-5/layer0-5_O3_to_T8.jpg,OT,layer0-5,0.0,70.0,70.0,70.0,,,,,,,,,365.0021159339231,None,1.0,1.4441221109591424,365.0021159339231,None,365.0021159339231,None,365.0021159339231,None,1,2022_Apr_14_1003,Semantic-hierachy,2021.1.2,59.81877519633524,
71,Trial # 72,layer9-17_O9_to_T2.jpg,layer9-17/layer9-17_O9_to_T2.jpg,OT,layer9-17,0.0,71.0,71.0,71.0,,,,,,,,,366.73711492400616,None,2.0,3.3427769609261304,366.73711492400616,None,366.73711492400616,None,366.73711492400616,None,1,2022_Apr_14_1003,Semantic-hierachy,2021.1.2,59.81877519633524,
72,Trial # 73,layer9-17_O5_to_O7.jpg,layer9-17/layer9-17_O5_to_O7.jpg,OO,layer9-17,0.0,72.0,72.0,72.0,,,,,,,,,370.4540775748901,None,2.0,1.415910426992923,370.4540775748901,None,370.4540775748901,None,370.4540775748901,None,1,2022_Apr_14_1003,Semantic-hierachy,2021.1.2,59.81877519633524,
73,Trial # 74,layer0-5_T11_to_T9.jpg,layer0-5/layer0-5_T11_to_T9.jpg,TT,layer0-5,0.0,73.0,73.0,73.0,,,,,,,,,372.2048499530647,None,1.0,1.5493780081160369,372.2048499530647,None,372.2048499530647,None,372.2048499530647,None,1,2022_Apr_14_1003,Semantic-hierachy,2021.1.2,59.81877519633524,
74,Trial # 75,layer0-5_O11_to_T12.jpg,layer0-5/layer0-5_O11_to_T12.jpg,OT,layer0-5,0.0,74.0,74.0,74.0,,,,,,,,,374.2557514130604,None,1.0,1.3933956830296663,374.2557514130604,None,374.2557514130604,None,374.2557514130604,None,1,2022_Apr_14_1003,Semantic-hierachy,2021.1.2,59.81877519633524,
75,Trial # 76,layer9-17_T7_to_T9.jpg,layer9-17/layer9-17_T7_to_T9.jpg,TT,layer9-17,0.0,75.0,75.0,75.0,,,,,,,,,376.0225033049937,None,2.0,3.491670717019588,376.0225033049937,None,376.0225033049937,None,376.0225033049937,None,1,2022_Apr_14_1003,Semantic-hierachy,2021.1.2,59.81877519633524,
76,Trial # 77,layer6-8_O6_to_T2.jpg,layer6-8/layer6-8_O6_to_T2.jpg,OT,layer6-8,0.0,76.0,76.0,76.0,,,,,,,,,380.3566719039809,None,4.0,2.792732546804473,380.3566719039809,None,380.3566719039809,None,380.3566719039809,None,1,2022_Apr_14_1003,Semantic-hierachy,2021.1.2,59.81877519633524,
77,Trial # 78,layer9-17_T4_to_T5.jpg,layer9-17/layer9-17_T4_to_T5.jpg,TT,layer9-17,0.0,77.0,77.0,77.0,,,,,,,,,385.4921006460208,None,2.0,2.2448713430203497,385.4921006460208,None,385.4921006460208,None,385.4921006460208,None,1,2022_Apr_14_1003,Semantic-hierachy,2021.1.2,59.81877519633524,
78,Trial # 79,layer0-5_T2_to_T4.jpg,layer0-5/layer0-5_T2_to_T4.jpg,TT,layer0-5,0.0,78.0,78.0,78.0,,,,,,,,,388.1600499220658,None,1.0,2.3756495909765363,388.1600499220658,None,388.1600499220658,None,388.1600499220658,None,1,2022_Apr_14_1003,Semantic-hierachy,2021.1.2,59.81877519633524,
79,Trial # 80,layer0-5_T2_to_T8.jpg,layer0-5/layer0-5_T2_to_T8.jpg,TT,layer0-5,0.0,79.0,79.0,79.0,,,,,,,,,391.05996028287336,None,1.0,1.565201520221308,391.05996028287336,None,391.05996028287336,None,391.05996028287336,None,1,2022_Apr_14_1003,Semantic-hierachy,2021.1.2,59.81877519633524,
80,Trial # 81,layer9-17_T3_to_T9.jpg,layer9-17/layer9-17_T3_to_T9.jpg,TT,layer9-17,0.0,80.0,80.0,80.0,,,,,,,,,392.9445670009591,None,2.0,2.193856413010508,392.9445670009591,None,392.9445670009591,None,392.9445670009591,None,1,2022_Apr_14_1003,Semantic-hierachy,2021.1.2,59.81877519633524,
81,Trial # 82,layer9-17_O2_to_O5.jpg,layer9-17/layer9-17_O2_to_O5.jpg,OO,layer9-17,0.0,81.0,81.0,81.0,,,,,,,,,395.4118962700013,None,2.0,2.0929856470320374,395.4118962700013,None,395.4118962700013,None,395.4118962700013,None,1,2022_Apr_14_1003,Semantic-hierachy,2021.1.2,59.81877519633524,
82,Trial # 83,layer6-8_O6_to_O7.jpg,layer6-8/layer6-8_O6_to_O7.jpg,OO,layer6-8,0.0,82.0,82.0,82.0,,,,,,,,,397.7472103468608,None,4.0,2.360227215103805,397.7472103468608,None,397.7472103468608,None,397.7472103468608,None,1,2022_Apr_14_1003,Semantic-hierachy,2021.1.2,59.81877519633524,
83,Trial # 84,layer9-17_O11_to_T1.jpg,layer9-17/layer9-17_O11_to_T1.jpg,OT,layer9-17,0.0,83.0,83.0,83.0,,,,,,,,,400.3629429570865,None,2.0,1.8089055710006503,400.3629429570865,None,400.3629429570865,None,400.3629429570865,None,1,2022_Apr_14_1003,Semantic-hierachy,2021.1.2,59.81877519633524,
84,Trial # 85,layer6-8_O5_to_T12.jpg,layer6-8/layer6-8_O5_to_T12.jpg,OT,layer6-8,0.0,84.0,84.0,84.0,,,,,,,,,403.23155844490975,None,3.0,2.113768537994474,403.23155844490975,None,403.23155844490975,None,403.23155844490975,None,1,2022_Apr_14_1003,Semantic-hierachy,2021.1.2,59.81877519633524,
85,Trial # 86,layer6-8_O4_to_O7.jpg,layer6-8/layer6-8_O4_to_O7.jpg,OO,layer6-8,0.0,85.0,85.0,85.0,,,,,,,,,405.764691832941,None,2.0,2.351692055817693,405.764691832941,None,405.764691832941,None,405.764691832941,None,1,2022_Apr_14_1003,Semantic-hierachy,2021.1.2,59.81877519633524,
86,Trial # 87,layer6-8_T10_to_T8.jpg,layer6-8/layer6-8_T10_to_T8.jpg,TT,layer6-8,0.0,86.0,86.0,86.0,,,,,,,,,408.46573855308816,None,2.0,2.675405734917149,408.46573855308816,None,408.46573855308816,None,408.46573855308816,None,1,2022_Apr_14_1003,Semantic-hierachy,2021.1.2,59.81877519633524,
87,Trial # 88,layer6-8_O10_to_T3.jpg,layer6-8/layer6-8_O10_to_T3.jpg,OT,layer6-8,0.0,87.0,87.0,87.0,,,,,,,,,411.4012956600636,None,3.0,2.0599893662147224,411.4012956600636,None,411.4012956600636,None,411.4012956600636,None,1,2022_Apr_14_1003,Semantic-hierachy,2021.1.2,59.81877519633524,
88,Trial # 89,layer6-8_O5_to_O9.jpg,layer6-8/layer6-8_O5_to_O9.jpg,OO,layer6-8,0.0,88.0,88.0,88.0,,,,,,,,,413.73477658908814,None,2.0,2.495755846844986,413.73477658908814,None,413.73477658908814,None,413.73477658908814,None,1,2022_Apr_14_1003,Semantic-hierachy,2021.1.2,59.81877519633524,
89,Trial # 90,layer6-8_O10_to_O11.jpg,layer6-8/layer6-8_O10_to_O11.jpg,OO,layer6-8,0.0,89.0,89.0,89.0,,,,,,,,,416.7030459200032,None,3.0,2.678887133020908,416.7030459200032,None,416.7030459200032,None,416.7030459200032,None,1,2022_Apr_14_1003,Semantic-hierachy,2021.1.2,59.81877519633524,
90,Trial # 91,layer0-5_O4_to_T5.jpg,layer0-5/layer0-5_O4_to_T5.jpg,OT,layer0-5,0.0,90.0,90.0,90.0,,,,,,,,,423.78852758090943,None,1.0,2.147400310030207,423.78852758090943,None,423.78852758090943,None,423.78852758090943,None,1,2022_Apr_14_1003,Semantic-hierachy,2021.1.2,59.81877519633524,
91,Trial # 92,layer0-5_T11_to_T12.jpg,layer0-5/layer0-5_T11_to_T12.jpg,TT,layer0-5,0.0,91.0,91.0,91.0,,,,,,,,,426.2048311070539,None,1.0,2.647686723154038,426.2048311070539,None,426.2048311070539,None,426.2048311070539,None,1,2022_Apr_14_1003,Semantic-hierachy,2021.1.2,59.81877519633524,
92,Trial # 93,layer0-5_T10_to_T3.jpg,layer0-5/layer0-5_T10_to_T3.jpg,TT,layer0-5,0.0,92.0,92.0,92.0,,,,,,,,,429.1392385130748,None,1.0,1.5900995519477874,429.1392385130748,None,429.1392385130748,None,429.1392385130748,None,1,2022_Apr_14_1003,Semantic-hierachy,2021.1.2,59.81877519633524,
93,Trial # 94,layer0-5_O2_to_O8.jpg,layer0-5/layer0-5_O2_to_O8.jpg,OO,layer0-5,0.0,93.0,93.0,93.0,,,,,,,,,431.0892123719677,None,1.0,1.2147359480150044,431.0892123719677,None,431.0892123719677,None,431.0892123719677,None,1,2022_Apr_14_1003,Semantic-hierachy,2021.1.2,59.81877519633524,
94,Trial # 95,layer0-5_T3_to_T8.jpg,layer0-5/layer0-5_T3_to_T8.jpg,TT,layer0-5,0.0,94.0,94.0,94.0,,,,,,,,,432.5903685230296,None,1.0,1.1606046571396291,432.5903685230296,None,432.5903685230296,None,432.5903685230296,None,1,2022_Apr_14_1003,Semantic-hierachy,2021.1.2,59.81877519633524,
95,Trial # 96,layer0-5_O7_to_O8.jpg,layer0-5/layer0-5_O7_to_O8.jpg,OO,layer0-5,0.0,95.0,95.0,95.0,,,,,,,,,434.0576031089295,None,1.0,3.449978457065299,434.0576031089295,None,434.0576031089295,None,434.0576031089295,None,1,2022_Apr_14_1003,Semantic-hierachy,2021.1.2,59.81877519633524,
96,Trial # 97,layer6-8_T10_to_T6.jpg,layer6-8/layer6-8_T10_to_T6.jpg,TT,layer6-8,0.0,96.0,96.0,96.0,,,,,,,,,438.975149059901,None,2.0,2.928432832006365,438.975149059901,None,438.975149059901,None,438.975149059901,None,1,2022_Apr_14_1003,Semantic-hierachy,2021.1.2,59.81877519633524,
97,Trial # 98,layer0-5_O1_to_O5.jpg,layer0-5/layer0-5_O1_to_O5.jpg,OO,layer0-5,0.0,97.0,97.0,97.0,,,,,,,,,442.1938750098925,None,1.0,3.407837277045473,442.1938750098925,None,442.1938750098925,None,442.1938750098925,None,1,2022_Apr_14_1003,Semantic-hierachy,2021.1.2,59.81877519633524,
98,Trial # 99,layer6-8_O1_to_O6.jpg,layer6-8/layer6-8_O1_to_O6.jpg,OO,layer6-8,0.0,98.0,98.0,98.0,,,,,,,,,445.9772891320754,None,2.0,3.12456279201433,445.9772891320754,None,445.9772891320754,None,445.9772891320754,None,1,2022_Apr_14_1003,Semantic-hierachy,2021.1.2,59.81877519633524,
99,Trial # 100,layer6-8_O3_to_T1.jpg,layer6-8/layer6-8_O3_to_T1.jpg,OT,layer6-8,0.0,99.0,99.0,99.0,,,,,,,,,449.42836574604735,None,2.0,1.910548890940845,449.42836574604735,None,449.42836574604735,None,449.42836574604735,None,1,2022_Apr_14_1003,Semantic-hierachy,2021.1.2,59.81877519633524,
100,Trial # 101,layer6-8_T1_to_T9.jpg,layer6-8/layer6-8_T1_to_T9.jpg,TT,layer6-8,0.0,100.0,100.0,100.0,,,,,,,,,451.7473071389832,None,4.0,8.614539844216779,451.7473071389832,None,451.7473071389832,None,451.7473071389832,None,1,2022_Apr_14_1003,Semantic-hierachy,2021.1.2,59.81877519633524,
101,Trial # 102,layer9-17_O12_to_O6.jpg,layer9-17/layer9-17_O12_to_O6.jpg,OO,layer9-17,0.0,101.0,101.0,101.0,,,,,,,,,460.9150135659147,None,2.0,1.7194726280868051,460.9150135659147,None,460.9150135659147,None,460.9150135659147,None,1,2022_Apr_14_1003,Semantic-hierachy,2021.1.2,59.81877519633524,
102,Trial # 103,layer0-5_T4_to_T9.jpg,layer0-5/layer0-5_T4_to_T9.jpg,TT,layer0-5,0.0,102.0,102.0,102.0,,,,,,,,,462.90058044390753,None,1.0,1.594738672953099,462.90058044390753,None,462.90058044390753,None,462.90058044390753,None,1,2022_Apr_14_1003,Semantic-hierachy,2021.1.2,59.81877519633524,
103,Trial # 104,layer6-8_O10_to_T1.jpg,layer6-8/layer6-8_O10_to_T1.jpg,OT,layer6-8,0.0,103.0,103.0,103.0,,,,,,,,,464.7497714899946,None,2.0,3.9658363410271695,464.7497714899946,None,464.7497714899946,None,464.7497714899946,None,1,2022_Apr_14_1003,Semantic-hierachy,2021.1.2,59.81877519633524,
104,Trial # 105,layer0-5_O6_to_T2.jpg,layer0-5/layer0-5_O6_to_T2.jpg,OT,layer0-5,0.0,104.0,104.0,104.0,,,,,,,,,469.0352211368736,None,1.0,2.1958507169038057,469.0352211368736,None,469.0352211368736,None,469.0352211368736,None,1,2022_Apr_14_1003,Semantic-hierachy,2021.1.2,59.81877519633524,
105,Trial # 106,layer9-17_T11_to_T2.jpg,layer9-17/layer9-17_T11_to_T2.jpg,TT,layer9-17,0.0,105.0,105.0,105.0,,,,,,,,,471.56891183997504,None,2.0,5.588760609971359,471.56891183997504,None,471.56891183997504,None,471.56891183997504,None,1,2022_Apr_14_1003,Semantic-hierachy,2021.1.2,59.81877519633524,
106,Trial # 107,layer9-17_O12_to_O8.jpg,layer9-17/layer9-17_O12_to_O8.jpg,OO,layer9-17,0.0,106.0,106.0,106.0,,,,,,,,,477.4710161180701,None,2.0,2.5946567310020328,477.4710161180701,None,477.4710161180701,None,477.4710161180701,None,1,2022_Apr_14_1003,Semantic-hierachy,2021.1.2,59.81877519633524,
107,Trial # 108,layer0-5_T12_to_T3.jpg,layer0-5/layer0-5_T12_to_T3.jpg,TT,layer0-5,0.0,107.0,107.0,107.0,,,,,,,,,482.18935467791744,None,1.0,2.1427215291187167,482.18935467791744,None,482.18935467791744,None,482.18935467791744,None,1,2022_Apr_14_1003,Semantic-hierachy,2021.1.2,59.81877519633524,
108,Trial # 109,layer0-5_T1_to_T10.jpg,layer0-5/layer0-5_T1_to_T10.jpg,TT,layer0-5,0.0,108.0,108.0,108.0,,,,,,,,,484.622651910875,None,1.0,1.446724605979398,484.622651910875,None,484.622651910875,None,484.622651910875,None,1,2022_Apr_14_1003,Semantic-hierachy,2021.1.2,59.81877519633524,
109,Trial # 110,layer6-8_O4_to_T5.jpg,layer6-8/layer6-8_O4_to_T5.jpg,OT,layer6-8,0.0,109.0,109.0,109.0,,,,,,,,,486.3062904109247,None,3.0,2.6140498709864914,486.3062904109247,None,486.3062904109247,None,486.3062904109247,None,1,2022_Apr_14_1003,Semantic-hierachy,2021.1.2,59.81877519633524,
110,Trial # 111,layer9-17_O11_to_O7.jpg,layer9-17/layer9-17_O11_to_O7.jpg,OO,layer9-17,0.0,110.0,110.0,110.0,,,,,,,,,489.20714563690126,None,2.0,1.7270714670885354,489.20714563690126,None,489.20714563690126,None,489.20714563690126,None,1,2022_Apr_14_1003,Semantic-hierachy,2021.1.2,59.81877519633524,
111,Trial # 112,layer0-5_O5_to_O8.jpg,layer0-5/layer0-5_O5_to_O8.jpg,OO,layer0-5,0.0,111.0,111.0,111.0,,,,,,,,,491.4928270438686,None,1.0,1.7982357919681815,491.4928270438686,None,491.4928270438686,None,491.4928270438686,None,1,2022_Apr_14_1003,Semantic-hierachy,2021.1.2,59.81877519633524,
112,Trial # 113,layer0-5_O10_to_O4.jpg,layer0-5/layer0-5_O10_to_O4.jpg,OO,layer0-5,0.0,112.0,112.0,112.0,,,,,,,,,493.64216783992015,None,1.0,1.4614251488819718,493.64216783992015,None,493.64216783992015,None,493.64216783992015,None,1,2022_Apr_14_1003,Semantic-hierachy,2021.1.2,59.81877519633524,
113,Trial # 114,layer9-17_O4_to_O8.jpg,layer9-17/layer9-17_O4_to_O8.jpg,OO,layer9-17,0.0,113.0,113.0,113.0,,,,,,,,,495.3597258059308,None,2.0,2.8922591109294444,495.3597258059308,None,495.3597258059308,None,495.3597258059308,None,1,2022_Apr_14_1003,Semantic-hierachy,2021.1.2,59.81877519633524,
114,Trial # 115,layer0-5_O2_to_T8.jpg,layer0-5/layer0-5_O2_to_T8.jpg,OT,layer0-5,0.0,114.0,114.0,114.0,,,,,,,,,498.5941647889558,None,1.0,2.146864525973797,498.5941647889558,None,498.5941647889558,None,498.5941647889558,None,1,2022_Apr_14_1003,Semantic-hierachy,2021.1.2,59.81877519633524,
115,Trial # 116,layer9-17_T2_to_T3.jpg,layer9-17/layer9-17_T2_to_T3.jpg,TT,layer9-17,0.0,115.0,115.0,115.0,,,,,,,,,501.0111327408813,None,2.0,2.009657859103754,501.0111327408813,None,501.0111327408813,None,501.0111327408813,None,1,2022_Apr_14_1003,Semantic-hierachy,2021.1.2,59.81877519633524,
116,Trial # 117,layer6-8_O1_to_T10.jpg,layer6-8/layer6-8_O1_to_T10.jpg,OT,layer6-8,0.0,116.0,116.0,116.0,,,,,,,,,503.3128520590253,None,3.0,2.055896970909089,503.3128520590253,None,503.3128520590253,None,503.3128520590253,None,1,2022_Apr_14_1003,Semantic-hierachy,2021.1.2,59.81877519633524,
117,Trial # 118,layer0-5_T3_to_T7.jpg,layer0-5/layer0-5_T3_to_T7.jpg,TT,layer0-5,0.0,117.0,117.0,117.0,,,,,,,,,505.6127326199785,None,1.0,1.8648209262173625,505.6127326199785,None,505.6127326199785,None,505.6127326199785,None,1,2022_Apr_14_1003,Semantic-hierachy,2021.1.2,59.81877519633524,
118,Trial # 119,layer9-17_O1_to_O12.jpg,layer9-17/layer9-17_O1_to_O12.jpg,OO,layer9-17,0.0,118.0,118.0,118.0,,,,,,,,,507.7813398640137,None,2.0,2.502084061969072,507.7813398640137,None,507.7813398640137,None,507.7813398640137,None,1,2022_Apr_14_1003,Semantic-hierachy,2021.1.2,59.81877519633524,
119,Trial # 120,layer6-8_O12_to_O2.jpg,layer6-8/layer6-8_O12_to_O2.jpg,OO,layer6-8,0.0,119.0,119.0,119.0,,,,,,,,,510.66372114489786,None,2.0,5.379116584081203,510.66372114489786,None,510.66372114489786,None,510.66372114489786,None,1,2022_Apr_14_1003,Semantic-hierachy,2021.1.2,59.81877519633524,
120,Trial # 121,layer9-17_O10_to_O9.jpg,layer9-17/layer9-17_O10_to_O9.jpg,OO,layer9-17,0.0,120.0,120.0,120.0,,,,,,,,,516.3338368989062,None,2.0,1.7802533539943397,516.3338368989062,None,516.3338368989062,None,516.3338368989062,None,1,2022_Apr_14_1003,Semantic-hierachy,2021.1.2,59.81877519633524,
121,Trial # 122,layer6-8_O4_to_T10.jpg,layer6-8/layer6-8_O4_to_T10.jpg,OT,layer6-8,0.0,121.0,121.0,121.0,,,,,,,,,518.3842040430754,None,3.0,1.8291868239175528,518.3842040430754,None,518.3842040430754,None,518.3842040430754,None,1,2022_Apr_14_1003,Semantic-hierachy,2021.1.2,59.81877519633524,
122,Trial # 123,layer6-8_O2_to_T3.jpg,layer6-8/layer6-8_O2_to_T3.jpg,OT,layer6-8,0.0,122.0,122.0,122.0,,,,,,,,,520.5343772440683,None,3.0,1.709790199995041,520.5343772440683,None,520.5343772440683,None,520.5343772440683,None,1,2022_Apr_14_1003,Semantic-hierachy,2021.1.2,59.81877519633524,
123,Trial # 124,layer0-5_O1_to_O7.jpg,layer0-5/layer0-5_O1_to_O7.jpg,OO,layer0-5,0.0,123.0,123.0,123.0,,,,,,,,,522.6009440110065,None,1.0,3.677866048878059,522.6009440110065,None,522.6009440110065,None,522.6009440110065,None,1,2022_Apr_14_1003,Semantic-hierachy,2021.1.2,59.81877519633524,
124,Trial # 125,layer0-5_T8_to_T9.jpg,layer0-5/layer0-5_T8_to_T9.jpg,TT,layer0-5,0.0,124.0,124.0,124.0,,,,,,,,,526.5700664299075,None,1.0,1.2817708689253775,526.5700664299075,None,526.5700664299075,None,526.5700664299075,None,1,2022_Apr_14_1003,Semantic-hierachy,2021.1.2,59.81877519633524,
125,Trial # 126,layer0-5_O12_to_T8.jpg,layer0-5/layer0-5_O12_to_T8.jpg,OT,layer0-5,0.0,125.0,125.0,125.0,,,,,,,,,528.1038939838763,None,1.0,1.0778023379389197,528.1038939838763,None,528.1038939838763,None,528.1038939838763,None,1,2022_Apr_14_1003,Semantic-hierachy,2021.1.2,59.81877519633524,
126,Trial # 127,layer9-17_O4_to_O6.jpg,layer9-17/layer9-17_O4_to_O6.jpg,OO,layer9-17,0.0,126.0,126.0,126.0,,,,,,,,,529.4532278249972,None,2.0,2.3005440970882773,529.4532278249972,None,529.4532278249972,None,529.4532278249972,None,1,2022_Apr_14_1003,Semantic-hierachy,2021.1.2,59.81877519633524,
127,Trial # 128,layer6-8_O12_to_O6.jpg,layer6-8/layer6-8_O12_to_O6.jpg,OO,layer6-8,0.0,127.0,127.0,127.0,,,,,,,,,532.1884769869503,None,3.0,2.8143643441144377,532.1884769869503,None,532.1884769869503,None,532.1884769869503,None,1,2022_Apr_14_1003,Semantic-hierachy,2021.1.2,59.81877519633524,
128,Trial # 129,layer0-5_T4_to_T6.jpg,layer0-5/layer0-5_T4_to_T6.jpg,TT,layer0-5,0.0,128.0,128.0,128.0,,,,,,,,,535.3383370500524,None,1.0,2.199680094141513,535.3383370500524,None,535.3383370500524,None,535.3383370500524,None,1,2022_Apr_14_1003,Semantic-hierachy,2021.1.2,59.81877519633524,
129,Trial # 130,layer9-17_O1_to_O3.jpg,layer9-17/layer9-17_O1_to_O3.jpg,OO,layer9-17,0.0,129.0,129.0,129.0,,,,,,,,,537.7737442119978,None,2.0,1.8496780300047249,537.7737442119978,None,537.7737442119978,None,537.7737442119978,None,1,2022_Apr_14_1003,Semantic-hierachy,2021.1.2,59.81877519633524,
130,Trial # 131,layer9-17_O10_to_O3.jpg,layer9-17/layer9-17_O10_to_O3.jpg,OO,layer9-17,0.0,130.0,130.0,130.0,,,,,,,,,539.9398422110826,None,2.0,2.180220151087269,539.9398422110826,None,539.9398422110826,None,539.9398422110826,None,1,2022_Apr_14_1003,Semantic-hierachy,2021.1.2,59.81877519633524,
131,Trial # 132,layer9-17_O12_to_O3.jpg,layer9-17/layer9-17_O12_to_O3.jpg,OO,layer9-17,0.0,131.0,131.0,131.0,,,,,,,,,542.3583851188887,None,2.0,1.9968141480349004,542.3583851188887,None,542.3583851188887,None,542.3583851188887,None,1,2022_Apr_14_1003,Semantic-hierachy,2021.1.2,59.81877519633524,
132,Trial # 133,layer9-17_O11_to_O4.jpg,layer9-17/layer9-17_O11_to_O4.jpg,OO,layer9-17,0.0,132.0,132.0,132.0,,,,,,,,,544.6580764169339,None,2.0,2.178838700987398,544.6580764169339,None,544.6580764169339,None,544.6580764169339,None,1,2022_Apr_14_1003,Semantic-hierachy,2021.1.2,59.81877519633524,
133,Trial # 134,layer9-17_T4_to_T7.jpg,layer9-17/layer9-17_T4_to_T7.jpg,TT,layer9-17,0.0,133.0,133.0,133.0,,,,,,,,,547.0931132999249,None,2.0,1.0775326120201498,547.0931132999249,None,547.0931132999249,None,547.0931132999249,None,1,2022_Apr_14_1003,Semantic-hierachy,2021.1.2,59.81877519633524,
134,Trial # 135,layer9-17_O1_to_T1.jpg,layer9-17/layer9-17_O1_to_T1.jpg,OT,layer9-17,0.0,134.0,134.0,134.0,,,,,,,,,548.3928049490787,None,2.0,3.627358983969316,548.3928049490787,None,548.3928049490787,None,548.3928049490787,None,1,2022_Apr_14_1003,Semantic-hierachy,2021.1.2,59.81877519633524,
135,Trial # 136,layer6-8_T2_to_T5.jpg,layer6-8/layer6-8_T2_to_T5.jpg,TT,layer6-8,0.0,135.0,135.0,135.0,,,,,,,,,552.3777055209503,None,3.0,6.016570921987295,552.3777055209503,None,552.3777055209503,None,552.3777055209503,None,1,2022_Apr_14_1003,Semantic-hierachy,2021.1.2,59.81877519633524,
136,Trial # 137,layer9-17_T11_to_T7.jpg,layer9-17/layer9-17_T11_to_T7.jpg,TT,layer9-17,0.0,136.0,136.0,136.0,,,,,,,,,558.678742364049,None,2.0,1.8441856580320743,558.678742364049,None,558.678742364049,None,558.678742364049,None,1,2022_Apr_14_1003,Semantic-hierachy,2021.1.2,59.81877519633524,
137,Trial # 138,layer6-8_O3_to_O8.jpg,layer6-8/layer6-8_O3_to_O8.jpg,OO,layer6-8,0.0,137.0,137.0,137.0,,,,,,,,,561.6467747539282,None,3.0,2.2751926011405885,561.6467747539282,None,561.6467747539282,None,561.6467747539282,None,1,2022_Apr_14_1003,Semantic-hierachy,2021.1.2,59.81877519633524,
138,Trial # 139,layer6-8_O1_to_T7.jpg,layer6-8/layer6-8_O1_to_T7.jpg,OT,layer6-8,0.0,138.0,138.0,138.0,,,,,,,,,564.1307700760663,None,3.0,2.0983308549039066,564.1307700760663,None,564.1307700760663,None,564.1307700760663,None,1,2022_Apr_14_1003,Semantic-hierachy,2021.1.2,59.81877519633524,
139,Trial # 140,layer9-17_T1_to_T3.jpg,layer9-17/layer9-17_T1_to_T3.jpg,TT,layer9-17,0.0,139.0,139.0,139.0,,,,,,,,,566.4494439158589,None,2.0,2.7279290300793946,566.4494439158589,None,566.4494439158589,None,566.4494439158589,None,1,2022_Apr_14_1003,Semantic-hierachy,2021.1.2,59.81877519633524,
140,Trial # 141,layer6-8_O10_to_O12.jpg,layer6-8/layer6-8_O10_to_O12.jpg,OO,layer6-8,0.0,140.0,140.0,140.0,,,,,,,,,569.4656045080628,None,2.0,5.714040334103629,569.4656045080628,None,569.4656045080628,None,569.4656045080628,None,1,2022_Apr_14_1003,Semantic-hierachy,2021.1.2,59.81877519633524,
141,Trial # 142,layer6-8_O12_to_T11.jpg,layer6-8/layer6-8_O12_to_T11.jpg,OT,layer6-8,0.0,141.0,141.0,141.0,,,,,,,,,575.4344733899925,None,2.0,2.3674959579948336,575.4344733899925,None,575.4344733899925,None,575.4344733899925,None,1,2022_Apr_14_1003,Semantic-hierachy,2021.1.2,59.81877519633524,
142,Trial # 143,layer0-5_O11_to_O5.jpg,layer0-5/layer0-5_O11_to_O5.jpg,OO,layer0-5,0.0,142.0,142.0,142.0,,,,,,,,,578.0693094320595,None,1.0,1.6379450799431652,578.0693094320595,None,578.0693094320595,None,578.0693094320595,None,1,2022_Apr_14_1003,Semantic-hierachy,2021.1.2,59.81877519633524,
143,Trial # 144,layer6-8_O1_to_O8.jpg,layer6-8/layer6-8_O1_to_O8.jpg,OO,layer6-8,0.0,143.0,143.0,143.0,,,,,,,,,579.9354521690402,None,2.0,1.911110586952418,579.9354521690402,None,579.9354521690402,None,579.9354521690402,None,1,2022_Apr_14_1003,Semantic-hierachy,2021.1.2,59.81877519633524,
144,Trial # 145,layer0-5_T2_to_T5.jpg,layer0-5/layer0-5_T2_to_T5.jpg,TT,layer0-5,0.0,144.0,144.0,144.0,,,,,,,,,582.1210458180867,None,1.0,1.712924804072827,582.1210458180867,None,582.1210458180867,None,582.1210458180867,None,1,2022_Apr_14_1003,Semantic-hierachy,2021.1.2,59.81877519633524,
145,Trial # 146,layer9-17_O8_to_T3.jpg,layer9-17/layer9-17_O8_to_T3.jpg,OT,layer9-17,0.0,145.0,145.0,145.0,,,,,,,,,584.1044314529281,None,2.0,2.008757672039792,584.1044314529281,None,584.1044314529281,None,584.1044314529281,None,1,2022_Apr_14_1003,Semantic-hierachy,2021.1.2,59.81877519633524,
146,Trial # 147,layer9-17_O8_to_T4.jpg,layer9-17/layer9-17_O8_to_T4.jpg,OT,layer9-17,0.0,146.0,146.0,146.0,,,,,,,,,586.3373943069018,None,2.0,2.529420471051708,586.3373943069018,None,586.3373943069018,None,586.3373943069018,None,1,2022_Apr_14_1003,Semantic-hierachy,2021.1.2,59.81877519633524,
147,Trial # 148,layer9-17_O4_to_T9.jpg,layer9-17/layer9-17_O4_to_T9.jpg,OT,layer9-17,0.0,147.0,147.0,147.0,,,,,,,,,589.1052640790585,None,2.0,1.1445837731007489,589.1052640790585,None,589.1052640790585,None,589.1052640790585,None,1,2022_Apr_14_1003,Semantic-hierachy,2021.1.2,59.81877519633524,
148,Trial # 149,layer6-8_O4_to_O8.jpg,layer6-8/layer6-8_O4_to_O8.jpg,OO,layer6-8,0.0,148.0,148.0,148.0,,,,,,,,,590.5220602939371,None,3.0,10.3133921159897,590.5220602939371,None,590.5220602939371,None,590.5220602939371,None,1,2022_Apr_14_1003,Semantic-hierachy,2021.1.2,59.81877519633524,
149,Trial # 150,layer0-5_O12_to_T7.jpg,layer0-5/layer0-5_O12_to_T7.jpg,OT,layer0-5,0.0,149.0,149.0,149.0,,,,,,,,,601.0747953059617,None,1.0,2.0688634600955997,601.0747953059617,None,601.0747953059617,None,601.0747953059617,None,1,2022_Apr_14_1003,Semantic-hierachy,2021.1.2,59.81877519633524,
150,Trial # 151,layer6-8_T1_to_T3.jpg,layer6-8/layer6-8_T1_to_T3.jpg,TT,layer6-8,,,,,0.0,0.0,0.0,0.0,,,,,605.1602552090771,None,3.0,2.471812966978177,605.1602552090771,None,605.1602552090771,None,605.1602552090771,None,1,2022_Apr_14_1003,Semantic-hierachy,2021.1.2,59.81877519633524,
151,Trial # 152,layer0-5_O8_to_O9.jpg,layer0-5/layer0-5_O8_to_O9.jpg,OO,layer0-5,,,,,0.0,1.0,1.0,1.0,,,,,607.9109138860367,None,1.0,1.7788607529364526,607.9109138860367,None,607.9109138860367,None,607.9109138860367,None,1,2022_Apr_14_1003,Semantic-hierachy,2021.1.2,59.81877519633524,
152,Trial # 153,layer9-17_T1_to_T5.jpg,layer9-17/layer9-17_T1_to_T5.jpg,TT,layer9-17,,,,,0.0,2.0,2.0,2.0,,,,,610.011472703889,None,2.0,2.128361002076417,610.011472703889,None,610.011472703889,None,610.011472703889,None,1,2022_Apr_14_1003,Semantic-hierachy,2021.1.2,59.81877519633524,
153,Trial # 154,layer6-8_T7_to_T9.jpg,layer6-8/layer6-8_T7_to_T9.jpg,TT,layer6-8,,,,,0.0,3.0,3.0,3.0,,,,,612.3967499439605,None,2.0,3.095884867943824,612.3967499439605,None,612.3967499439605,None,612.3967499439605,None,1,2022_Apr_14_1003,Semantic-hierachy,2021.1.2,59.81877519633524,
154,Trial # 155,layer9-17_T12_to_T7.jpg,layer9-17/layer9-17_T12_to_T7.jpg,TT,layer9-17,,,,,0.0,4.0,4.0,4.0,,,,,616.5646091550589,None,2.0,2.1342484978958964,616.5646091550589,None,616.5646091550589,None,616.5646091550589,None,1,2022_Apr_14_1003,Semantic-hierachy,2021.1.2,59.81877519633524,
155,Trial # 156,layer0-5_O8_to_T11.jpg,layer0-5/layer0-5_O8_to_T11.jpg,OT,layer0-5,,,,,0.0,5.0,5.0,5.0,,,,,619.0310461390764,None,1.0,1.9482485868502408,619.0310461390764,None,619.0310461390764,None,619.0310461390764,None,1,2022_Apr_14_1003,Semantic-hierachy,2021.1.2,59.81877519633524,
156,Trial # 157,layer0-5_O1_to_O9.jpg,layer0-5/layer0-5_O1_to_O9.jpg,OO,layer0-5,,,,,0.0,6.0,6.0,6.0,,,,,621.2650164479855,None,1.0,1.5487328260205686,621.2650164479855,None,621.2650164479855,None,621.2650164479855,None,1,2022_Apr_14_1003,Semantic-hierachy,2021.1.2,59.81877519633524,
157,Trial # 158,layer0-5_O10_to_O12.jpg,layer0-5/layer0-5_O10_to_O12.jpg,OO,layer0-5,,,,,0.0,7.0,7.0,7.0,,,,,623.0327027530875,None,1.0,1.2674037560354918,623.0327027530875,None,623.0327027530875,None,623.0327027530875,None,1,2022_Apr_14_1003,Semantic-hierachy,2021.1.2,59.81877519633524,
158,Trial # 159,layer6-8_O10_to_T5.jpg,layer6-8/layer6-8_O10_to_T5.jpg,OT,layer6-8,,,,,0.0,8.0,8.0,8.0,,,,,624.5501898420043,None,3.0,2.182166757062077,624.5501898420043,None,624.5501898420043,None,624.5501898420043,None,1,2022_Apr_14_1003,Semantic-hierachy,2021.1.2,59.81877519633524,
159,Trial # 160,layer6-8_O5_to_O6.jpg,layer6-8/layer6-8_O5_to_O6.jpg,OO,layer6-8,,,,,0.0,9.0,9.0,9.0,,,,,627.0007261200808,None,2.0,1.8422420700080693,627.0007261200808,None,627.0007261200808,None,627.0007261200808,None,1,2022_Apr_14_1003,Semantic-hierachy,2021.1.2,59.81877519633524,
160,Trial # 161,layer6-8_O6_to_T11.jpg,layer6-8/layer6-8_O6_to_T11.jpg,OT,layer6-8,,,,,0.0,10.0,10.0,10.0,,,,,629.4519006719347,None,3.0,6.450368525926024,629.4519006719347,None,629.4519006719347,None,629.4519006719347,None,1,2022_Apr_14_1003,Semantic-hierachy,2021.1.2,59.81877519633524,
161,Trial # 162,layer9-17_O12_to_O9.jpg,layer9-17/layer9-17_O12_to_O9.jpg,OO,layer9-17,,,,,0.0,11.0,11.0,11.0,,,,,636.1696011698805,None,2.0,4.0277422841172665,636.1696011698805,None,636.1696011698805,None,636.1696011698805,None,1,2022_Apr_14_1003,Semantic-hierachy,2021.1.2,59.81877519633524,
162,Trial # 163,layer6-8_O12_to_T6.jpg,layer6-8/layer6-8_O12_to_T6.jpg,OT,layer6-8,,,,,0.0,12.0,12.0,12.0,,,,,640.3880054529291,None,4.0,2.611579413060099,640.3880054529291,None,640.3880054529291,None,640.3880054529291,None,1,2022_Apr_14_1003,Semantic-hierachy,2021.1.2,59.81877519633524,
163,Trial # 164,layer0-5_T11_to_T7.jpg,layer0-5/layer0-5_T11_to_T7.jpg,TT,layer0-5,,,,,0.0,13.0,13.0,13.0,,,,,643.2718504949007,None,1.0,2.3449331549927592,643.2718504949007,None,643.2718504949007,None,643.2718504949007,None,1,2022_Apr_14_1003,Semantic-hierachy,2021.1.2,59.81877519633524,
164,Trial # 165,layer9-17_O10_to_T5.jpg,layer9-17/layer9-17_O10_to_T5.jpg,OT,layer9-17,,,,,0.0,14.0,14.0,14.0,,,,,645.872406994924,None,2.0,2.6872059560846537,645.872406994924,None,645.872406994924,None,645.872406994924,None,1,2022_Apr_14_1003,Semantic-hierachy,2021.1.2,59.81877519633524,
165,Trial # 166,layer9-17_T1_to_T6.jpg,layer9-17/layer9-17_T1_to_T6.jpg,TT,layer9-17,,,,,0.0,15.0,15.0,15.0,,,,,648.8413193000015,None,2.0,2.6098841198254377,648.8413193000015,None,648.8413193000015,None,648.8413193000015,None,1,2022_Apr_14_1003,Semantic-hierachy,2021.1.2,59.81877519633524,
166,Trial # 167,layer0-5_T1_to_T3.jpg,layer0-5/layer0-5_T1_to_T3.jpg,TT,layer0-5,,,,,0.0,16.0,16.0,16.0,,,,,651.6912665579002,None,1.0,2.127889276016504,651.6912665579002,None,651.6912665579002,None,651.6912665579002,None,1,2022_Apr_14_1003,Semantic-hierachy,2021.1.2,59.81877519633524,
167,Trial # 168,layer0-5_O2_to_O9.jpg,layer0-5/layer0-5_O2_to_O9.jpg,OO,layer0-5,,,,,0.0,17.0,17.0,17.0,,,,,654.0755560940597,None,1.0,1.314880303107202,654.0755560940597,None,654.0755560940597,None,654.0755560940597,None,1,2022_Apr_14_1003,Semantic-hierachy,2021.1.2,59.81877519633524,
168,Trial # 169,layer9-17_O3_to_T4.jpg,layer9-17/layer9-17_O3_to_T4.jpg,OT,layer9-17,,,,,0.0,18.0,18.0,18.0,,,,,655.6257764629554,None,2.0,1.7280630702152848,655.6257764629554,None,655.6257764629554,None,655.6257764629554,None,1,2022_Apr_14_1003,Semantic-hierachy,2021.1.2,59.81877519633524,
169,Trial # 170,layer6-8_O11_to_O9.jpg,layer6-8/layer6-8_O11_to_O9.jpg,OO,layer6-8,,,,,0.0,19.0,19.0,19.0,,,,,657.5267070319969,None,4.0,3.714121849043295,657.5267070319969,None,657.5267070319969,None,657.5267070319969,None,1,2022_Apr_14_1003,Semantic-hierachy,2021.1.2,59.81877519633524,
170,Trial # 171,layer9-17_O1_to_O7.jpg,layer9-17/layer9-17_O1_to_O7.jpg,OO,layer9-17,,,,,0.0,20.0,20.0,20.0,,,,,661.4612530029844,None,2.0,4.287393172970042,661.4612530029844,None,661.4612530029844,None,661.4612530029844,None,1,2022_Apr_14_1003,Semantic-hierachy,2021.1.2,59.81877519633524,
171,Trial # 172,layer0-5_T12_to_T4.jpg,layer0-5/layer0-5_T12_to_T4.jpg,TT,layer0-5,,,,,0.0,21.0,21.0,21.0,,,,,665.9452398340218,None,1.0,1.7455756419803947,665.9452398340218,None,665.9452398340218,None,665.9452398340218,None,1,2022_Apr_14_1003,Semantic-hierachy,2021.1.2,59.81877519633524,
172,Trial # 173,layer0-5_O4_to_T4.jpg,layer0-5/layer0-5_O4_to_T4.jpg,OT,layer0-5,,,,,0.0,22.0,22.0,22.0,,,,,667.9305664990097,None,2.0,8.968978127930313,667.9305664990097,None,667.9305664990097,None,667.9305664990097,None,1,2022_Apr_14_1003,Semantic-hierachy,2021.1.2,59.81877519633524,
173,Trial # 174,layer6-8_T12_to_T5.jpg,layer6-8/layer6-8_T12_to_T5.jpg,TT,layer6-8,,,,,0.0,23.0,23.0,23.0,,,,,677.8835926719476,None,2.0,4.695464651798829,677.8835926719476,None,677.8835926719476,None,677.8835926719476,None,1,2022_Apr_14_1003,Semantic-hierachy,2021.1.2,59.81877519633524,
174,Trial # 175,layer6-8_O11_to_T1.jpg,layer6-8/layer6-8_O11_to_T1.jpg,OT,layer6-8,,,,,0.0,24.0,24.0,24.0,,,,,682.8674766949844,None,2.0,4.251432482851669,682.8674766949844,None,682.8674766949844,None,682.8674766949844,None,1,2022_Apr_14_1003,Semantic-hierachy,2021.1.2,59.81877519633524,
175,Trial # 176,layer0-5_O7_to_T8.jpg,layer0-5/layer0-5_O7_to_T8.jpg,OT,layer0-5,,,,,0.0,25.0,25.0,25.0,,,,,687.7697329709772,None,1.0,2.377363492967561,687.7697329709772,None,687.7697329709772,None,687.7697329709772,None,1,2022_Apr_14_1003,Semantic-hierachy,2021.1.2,59.81877519633524,
176,Trial # 177,layer0-5_O11_to_T5.jpg,layer0-5/layer0-5_O11_to_T5.jpg,OT,layer0-5,,,,,0.0,26.0,26.0,26.0,,,,,690.4699402530678,None,1.0,1.1977740891743451,690.4699402530678,None,690.4699402530678,None,690.4699402530678,None,1,2022_Apr_14_1003,Semantic-hierachy,2021.1.2,59.81877519633524,
177,Trial # 178,layer9-17_O2_to_T2.jpg,layer9-17/layer9-17_O2_to_T2.jpg,OT,layer9-17,,,,,0.0,27.0,27.0,27.0,,,,,691.9379131379537,None,4.0,3.80864465306513,691.9379131379537,None,691.9379131379537,None,691.9379131379537,None,1,2022_Apr_14_1003,Semantic-hierachy,2021.1.2,59.81877519633524,
178,Trial # 179,layer0-5_O4_to_T9.jpg,layer0-5/layer0-5_O4_to_T9.jpg,OT,layer0-5,,,,,0.0,28.0,28.0,28.0,,,,,696.0380157439504,None,1.0,1.7442279260139912,696.0380157439504,None,696.0380157439504,None,696.0380157439504,None,1,2022_Apr_14_1003,Semantic-hierachy,2021.1.2,59.81877519633524,
179,Trial # 180,layer9-17_T6_to_T8.jpg,layer9-17/layer9-17_T6_to_T8.jpg,TT,layer9-17,,,,,0.0,29.0,29.0,29.0,,,,,698.0394576310646,None,2.0,1.7011116098146886,698.0394576310646,None,698.0394576310646,None,698.0394576310646,None,1,2022_Apr_14_1003,Semantic-hierachy,2021.1.2,59.81877519633524,
180,Trial # 181,layer9-17_O12_to_O5.jpg,layer9-17/layer9-17_O12_to_O5.jpg,OO,layer9-17,,,,,0.0,30.0,30.0,30.0,,,,,700.0226539729629,None,2.0,1.432773502077907,700.0226539729629,None,700.0226539729629,None,700.0226539729629,None,1,2022_Apr_14_1003,Semantic-hierachy,2021.1.2,59.81877519633524,
181,Trial # 182,layer6-8_O1_to_O7.jpg,layer6-8/layer6-8_O1_to_O7.jpg,OO,layer6-8,,,,,0.0,31.0,31.0,31.0,,,,,701.6745198050048,None,4.0,2.268533268943429,701.6745198050048,None,701.6745198050048,None,701.6745198050048,None,1,2022_Apr_14_1003,Semantic-hierachy,2021.1.2,59.81877519633524,
182,Trial # 183,layer6-8_O3_to_T10.jpg,layer6-8/layer6-8_O3_to_T10.jpg,OT,layer6-8,,,,,0.0,32.0,32.0,32.0,,,,,704.2072055959143,None,3.0,2.130354465916753,704.2072055959143,None,704.2072055959143,None,704.2072055959143,None,1,2022_Apr_14_1003,Semantic-hierachy,2021.1.2,59.81877519633524,
183,Trial # 184,layer0-5_O1_to_T11.jpg,layer0-5/layer0-5_O1_to_T11.jpg,OT,layer0-5,,,,,0.0,33.0,33.0,33.0,,,,,706.6926078069955,None,1.0,1.633067985996604,706.6926078069955,None,706.6926078069955,None,706.6926078069955,None,1,2022_Apr_14_1003,Semantic-hierachy,2021.1.2,59.81877519633524,
184,Trial # 185,layer6-8_O8_to_O9.jpg,layer6-8/layer6-8_O8_to_O9.jpg,OO,layer6-8,,,,,0.0,34.0,34.0,34.0,,,,,708.6253137099557,None,3.0,1.948192695854232,708.6253137099557,None,708.6253137099557,None,708.6253137099557,None,1,2022_Apr_14_1003,Semantic-hierachy,2021.1.2,59.81877519633524,
185,Trial # 186,layer9-17_O4_to_O9.jpg,layer9-17/layer9-17_O4_to_O9.jpg,OO,layer9-17,,,,,0.0,35.0,35.0,35.0,,,,,710.8259589548688,None,2.0,4.376472471049056,710.8259589548688,None,710.8259589548688,None,710.8259589548688,None,1,2022_Apr_14_1003,Semantic-hierachy,2021.1.2,59.81877519633524,
186,Trial # 187,layer0-5_O12_to_O5.jpg,layer0-5/layer0-5_O12_to_O5.jpg,OO,layer0-5,,,,,0.0,36.0,36.0,36.0,,,,,715.5109428139403,None,1.0,1.4691785010509193,715.5109428139403,None,715.5109428139403,None,715.5109428139403,None,1,2022_Apr_14_1003,Semantic-hierachy,2021.1.2,59.81877519633524,
187,Trial # 188,layer6-8_T12_to_T4.jpg,layer6-8/layer6-8_T12_to_T4.jpg,TT,layer6-8,,,,,0.0,37.0,37.0,37.0,,,,,717.2293755940627,None,2.0,2.58250448293984,717.2293755940627,None,717.2293755940627,None,717.2293755940627,None,1,2022_Apr_14_1003,Semantic-hierachy,2021.1.2,59.81877519633524,
188,Trial # 189,layer0-5_T6_to_T8.jpg,layer0-5/layer0-5_T6_to_T8.jpg,TT,layer0-5,,,,,0.0,38.0,38.0,38.0,,,,,720.0620670409407,None,1.0,1.7302649298217148,720.0620670409407,None,720.0620670409407,None,720.0620670409407,None,1,2022_Apr_14_1003,Semantic-hierachy,2021.1.2,59.81877519633524,
189,Trial # 190,layer6-8_O11_to_T2.jpg,layer6-8/layer6-8_O11_to_T2.jpg,OT,layer6-8,,,,,0.0,39.0,39.0,39.0,,,,,722.0306903219316,None,4.0,2.440911559853703,722.0306903219316,None,722.0306903219316,None,722.0306903219316,None,1,2022_Apr_14_1003,Semantic-hierachy,2021.1.2,59.81877519633524,
190,Trial # 191,layer6-8_O1_to_O3.jpg,layer6-8/layer6-8_O1_to_O3.jpg,OO,layer6-8,,,,,0.0,40.0,40.0,40.0,,,,,725.0637083880138,None,2.0,3.6603409971576175,725.0637083880138,None,725.0637083880138,None,725.0637083880138,None,1,2022_Apr_14_1003,Semantic-hierachy,2021.1.2,59.81877519633524,
191,Trial # 192,layer0-5_O7_to_T1.jpg,layer0-5/layer0-5_O7_to_T1.jpg,OT,layer0-5,,,,,0.0,41.0,41.0,41.0,,,,,729.0149759058841,None,1.0,1.6036519869230688,729.0149759058841,None,729.0149759058841,None,729.0149759058841,None,1,2022_Apr_14_1003,Semantic-hierachy,2021.1.2,59.81877519633524,
192,Trial # 193,layer6-8_O3_to_T7.jpg,layer6-8/layer6-8_O3_to_T7.jpg,OT,layer6-8,,,,,0.0,42.0,42.0,42.0,,,,,730.8653371739201,None,3.0,1.84232470090501,730.8653371739201,None,730.8653371739201,None,730.8653371739201,None,1,2022_Apr_14_1003,Semantic-hierachy,2021.1.2,59.81877519633524,
193,Trial # 194,layer9-17_T10_to_T6.jpg,layer9-17/layer9-17_T10_to_T6.jpg,TT,layer9-17,,,,,0.0,43.0,43.0,43.0,,,,,732.8997064239811,None,2.0,2.064353391993791,732.8997064239811,None,732.8997064239811,None,732.8997064239811,None,1,2022_Apr_14_1003,Semantic-hierachy,2021.1.2,59.81877519633524,
194,Trial # 195,layer6-8_T2_to_T9.jpg,layer6-8/layer6-8_T2_to_T9.jpg,TT,layer6-8,,,,,0.0,44.0,44.0,44.0,,,,,735.2499009938911,None,2.0,5.727625694125891,735.2499009938911,None,735.2499009938911,None,735.2499009938911,None,1,2022_Apr_14_1003,Semantic-hierachy,2021.1.2,59.81877519633524,
195,Trial # 196,layer0-5_O3_to_T3.jpg,layer0-5/layer0-5_O3_to_T3.jpg,OT,layer0-5,,,,,0.0,45.0,45.0,45.0,,,,,741.2520710539538,None,1.0,1.5953630378935486,741.2520710539538,None,741.2520710539538,None,741.2520710539538,None,1,2022_Apr_14_1003,Semantic-hierachy,2021.1.2,59.81877519633524,
196,Trial # 197,layer9-17_O1_to_O2.jpg,layer9-17/layer9-17_O1_to_O2.jpg,OO,layer9-17,,,,,0.0,46.0,46.0,46.0,,,,,743.0872603319585,None,2.0,4.213685788912699,743.0872603319585,None,743.0872603319585,None,743.0872603319585,None,1,2022_Apr_14_1003,Semantic-hierachy,2021.1.2,59.81877519633524,
197,Trial # 198,layer9-17_T2_to_T9.jpg,layer9-17/layer9-17_T2_to_T9.jpg,TT,layer9-17,,,,,0.0,47.0,47.0,47.0,,,,,748.0555388089269,None,2.0,1.443692235974595,748.0555388089269,None,748.0555388089269,None,748.0555388089269,None,1,2022_Apr_14_1003,Semantic-hierachy,2021.1.2,59.81877519633524,
198,Trial # 199,layer9-17_O6_to_T10.jpg,layer9-17/layer9-17_O6_to_T10.jpg,OT,layer9-17,,,,,0.0,48.0,48.0,48.0,,,,,749.7219828378875,None,2.0,1.6339739160612226,749.7219828378875,None,749.7219828378875,None,749.7219828378875,None,1,2022_Apr_14_1003,Semantic-hierachy,2021.1.2,59.81877519633524,
199,Trial # 200,layer0-5_T12_to_T5.jpg,layer0-5/layer0-5_T12_to_T5.jpg,TT,layer0-5,,,,,0.0,49.0,49.0,49.0,,,,,751.5720111189876,None,1.0,1.963632815051824,751.5720111189876,None,751.5720111189876,None,751.5720111189876,None,1,2022_Apr_14_1003,Semantic-hierachy,2021.1.2,59.81877519633524,
200,Trial # 201,layer0-5_O10_to_T10.jpg,layer0-5/layer0-5_O10_to_T10.jpg,OT,layer0-5,,,,,0.0,50.0,50.0,50.0,,,,,753.8394735408947,None,1.0,1.943300541024655,753.8394735408947,None,753.8394735408947,None,753.8394735408947,None,1,2022_Apr_14_1003,Semantic-hierachy,2021.1.2,59.81877519633524,
201,Trial # 202,layer9-17_T11_to_T12.jpg,layer9-17/layer9-17_T11_to_T12.jpg,TT,layer9-17,,,,,0.0,51.0,51.0,51.0,,,,,755.9729388458654,None,2.0,1.849890419980511,755.9729388458654,None,755.9729388458654,None,755.9729388458654,None,1,2022_Apr_14_1003,Semantic-hierachy,2021.1.2,59.81877519633524,
202,Trial # 203,layer6-8_T3_to_T5.jpg,layer6-8/layer6-8_T3_to_T5.jpg,TT,layer6-8,,,,,0.0,52.0,52.0,52.0,,,,,758.174626148073,None,2.0,1.8250648800749327,758.174626148073,None,758.174626148073,None,758.174626148073,None,1,2022_Apr_14_1003,Semantic-hierachy,2021.1.2,59.81877519633524,
203,Trial # 204,layer0-5_O5_to_T10.jpg,layer0-5/layer0-5_O5_to_T10.jpg,OT,layer0-5,,,,,0.0,53.0,53.0,53.0,,,,,760.2414405199233,None,1.0,3.43227167497389,760.2414405199233,None,760.2414405199233,None,760.2414405199233,None,1,2022_Apr_14_1003,Semantic-hierachy,2021.1.2,59.81877519633524,
204,Trial # 205,layer0-5_O10_to_O5.jpg,layer0-5/layer0-5_O10_to_O5.jpg,OO,layer0-5,,,,,0.0,54.0,54.0,54.0,,,,,763.9757649998646,None,1.0,2.897836468880996,763.9757649998646,None,763.9757649998646,None,763.9757649998646,None,1,2022_Apr_14_1003,Semantic-hierachy,2021.1.2,59.81877519633524,
205,Trial # 206,layer0-5_O5_to_O7.jpg,layer0-5/layer0-5_O5_to_O7.jpg,OO,layer0-5,,,,,0.0,55.0,55.0,55.0,,,,,767.1771275219508,None,1.0,1.2588375061750412,767.1771275219508,None,767.1771275219508,None,767.1771275219508,None,1,2022_Apr_14_1003,Semantic-hierachy,2021.1.2,59.81877519633524,
206,Trial # 207,layer0-5_O3_to_T10.jpg,layer0-5/layer0-5_O3_to_T10.jpg,OT,layer0-5,,,,,0.0,56.0,56.0,56.0,,,,,768.561305891024,None,1.0,3.5989081179723144,768.561305891024,None,768.561305891024,None,768.561305891024,None,1,2022_Apr_14_1003,Semantic-hierachy,2021.1.2,59.81877519633524,
207,Trial # 208,layer0-5_O4_to_O5.jpg,layer0-5/layer0-5_O4_to_O5.jpg,OO,layer0-5,,,,,0.0,57.0,57.0,57.0,,,,,772.42887246795,None,1.0,1.920413984917104,772.42887246795,None,772.42887246795,None,772.42887246795,None,1,2022_Apr_14_1003,Semantic-hierachy,2021.1.2,59.81877519633524,
208,Trial # 209,layer6-8_T12_to_T3.jpg,layer6-8/layer6-8_T12_to_T3.jpg,TT,layer6-8,,,,,0.0,58.0,58.0,58.0,,,,,774.5294824938755,None,2.0,3.2473512068390846,774.5294824938755,None,774.5294824938755,None,774.5294824938755,None,1,2022_Apr_14_1003,Semantic-hierachy,2021.1.2,59.81877519633524,
209,Trial # 210,layer6-8_O7_to_T9.jpg,layer6-8/layer6-8_O7_to_T9.jpg,OT,layer6-8,,,,,0.0,59.0,59.0,59.0,,,,,778.0648891238961,None,3.0,2.325885472120717,778.0648891238961,None,778.0648891238961,None,778.0648891238961,None,1,2022_Apr_14_1003,Semantic-hierachy,2021.1.2,59.81877519633524,
210,Trial # 211,layer6-8_O1_to_O11.jpg,layer6-8/layer6-8_O1_to_O11.jpg,OO,layer6-8,,,,,0.0,60.0,60.0,60.0,,,,,780.6473898529075,None,2.0,2.8979745318647474,780.6473898529075,None,780.6473898529075,None,780.6473898529075,None,1,2022_Apr_14_1003,Semantic-hierachy,2021.1.2,59.81877519633524,
211,Trial # 212,layer6-8_T2_to_T6.jpg,layer6-8/layer6-8_T2_to_T6.jpg,TT,layer6-8,,,,,0.0,61.0,61.0,61.0,,,,,783.7832691490185,None,2.0,2.4965076530352235,783.7832691490185,None,783.7832691490185,None,783.7832691490185,None,1,2022_Apr_14_1003,Semantic-hierachy,2021.1.2,59.81877519633524,
212,Trial # 213,layer6-8_O10_to_O6.jpg,layer6-8/layer6-8_O10_to_O6.jpg,OO,layer6-8,,,,,0.0,62.0,62.0,62.0,,,,,786.5675008660182,None,2.0,1.4699347589630634,786.5675008660182,None,786.5675008660182,None,786.5675008660182,None,1,2022_Apr_14_1003,Semantic-hierachy,2021.1.2,59.81877519633524,
213,Trial # 214,layer9-17_T5_to_T8.jpg,layer9-17/layer9-17_T5_to_T8.jpg,TT,layer9-17,,,,,0.0,63.0,63.0,63.0,,,,,788.1834604770411,None,2.0,3.3136508991010487,788.1834604770411,None,788.1834604770411,None,788.1834604770411,None,1,2022_Apr_14_1003,Semantic-hierachy,2021.1.2,59.81877519633524,
214,Trial # 215,layer9-17_O3_to_T10.jpg,layer9-17/layer9-17_O3_to_T10.jpg,OT,layer9-17,,,,,0.0,64.0,64.0,64.0,,,,,791.8021198939532,None,2.0,1.6172753619030118,791.8021198939532,None,791.8021198939532,None,791.8021198939532,None,1,2022_Apr_14_1003,Semantic-hierachy,2021.1.2,59.81877519633524,
215,Trial # 216,layer6-8_O12_to_O3.jpg,layer6-8/layer6-8_O12_to_O3.jpg,OO,layer6-8,,,,,0.0,65.0,65.0,65.0,,,,,794.0022136340849,None,2.0,2.5477244469802827,794.0022136340849,None,794.0022136340849,None,794.0022136340849,None,1,2022_Apr_14_1003,Semantic-hierachy,2021.1.2,59.81877519633524,
216,Trial # 217,layer0-5_T10_to_T2.jpg,layer0-5/layer0-5_T10_to_T2.jpg,TT,layer0-5,,,,,0.0,66.0,66.0,66.0,,,,,796.8704282979015,None,1.0,7.581801414955407,796.8704282979015,None,796.8704282979015,None,796.8704282979015,None,1,2022_Apr_14_1003,Semantic-hierachy,2021.1.2,59.81877519633524,
217,Trial # 218,layer9-17_O10_to_O6.jpg,layer9-17/layer9-17_O10_to_O6.jpg,OO,layer9-17,,,,,0.0,67.0,67.0,67.0,,,,,804.7718517470639,None,2.0,5.031426941975951,804.7718517470639,None,804.7718517470639,None,804.7718517470639,None,1,2022_Apr_14_1003,Semantic-hierachy,2021.1.2,59.81877519633524,
218,Trial # 219,layer6-8_O6_to_O9.jpg,layer6-8/layer6-8_O6_to_O9.jpg,OO,layer6-8,,,,,0.0,68.0,68.0,68.0,,,,,810.6239647010807,None,3.0,1.891954807098955,810.6239647010807,None,810.6239647010807,None,810.6239647010807,None,1,2022_Apr_14_1003,Semantic-hierachy,2021.1.2,59.81877519633524,
219,Trial # 220,layer0-5_O7_to_T2.jpg,layer0-5/layer0-5_O7_to_T2.jpg,OT,layer0-5,,,,,0.0,69.0,69.0,69.0,,,,,812.7921672889497,None,1.0,2.043181814951822,812.7921672889497,None,812.7921672889497,None,812.7921672889497,None,1,2022_Apr_14_1003,Semantic-hierachy,2021.1.2,59.81877519633524,
220,Trial # 221,layer9-17_T12_to_T2.jpg,layer9-17/layer9-17_T12_to_T2.jpg,TT,layer9-17,,,,,0.0,70.0,70.0,70.0,,,,,815.0916030618828,None,2.0,2.7918103898409754,815.0916030618828,None,815.0916030618828,None,815.0916030618828,None,1,2022_Apr_14_1003,Semantic-hierachy,2021.1.2,59.81877519633524,
221,Trial # 222,layer9-17_O8_to_T11.jpg,layer9-17/layer9-17_O8_to_T11.jpg,OT,layer9-17,,,,,0.0,71.0,71.0,71.0,,,,,818.1605999530293,None,2.0,2.9443176279310137,818.1605999530293,None,818.1605999530293,None,818.1605999530293,None,1,2022_Apr_14_1003,Semantic-hierachy,2021.1.2,59.81877519633524,
222,Trial # 223,layer6-8_O3_to_T9.jpg,layer6-8/layer6-8_O3_to_T9.jpg,OT,layer6-8,,,,,0.0,72.0,72.0,72.0,,,,,821.2936983038671,None,3.0,1.99874580395408,821.2936983038671,None,821.2936983038671,None,821.2936983038671,None,1,2022_Apr_14_1003,Semantic-hierachy,2021.1.2,59.81877519633524,
223,Trial # 224,layer0-5_O6_to_O9.jpg,layer0-5/layer0-5_O6_to_O9.jpg,OO,layer0-5,,,,,0.0,73.0,73.0,73.0,,,,,823.5277408729307,None,1.0,1.7651034309528768,823.5277408729307,None,823.5277408729307,None,823.5277408729307,None,1,2022_Apr_14_1003,Semantic-hierachy,2021.1.2,59.81877519633524,
224,Trial # 225,layer0-5_O12_to_T1.jpg,layer0-5/layer0-5_O12_to_T1.jpg,OT,layer0-5,,,,,0.0,74.0,74.0,74.0,,,,,825.5282764208969,None,1.0,1.8107563720550388,825.5282764208969,None,825.5282764208969,None,825.5282764208969,None,1,2022_Apr_14_1003,Semantic-hierachy,2021.1.2,59.81877519633524,
225,Trial # 226,layer9-17_O2_to_T8.jpg,layer9-17/layer9-17_O2_to_T8.jpg,OT,layer9-17,,,,,0.0,75.0,75.0,75.0,,,,,827.5128750510048,None,2.0,1.692749778041616,827.5128750510048,None,827.5128750510048,None,827.5128750510048,None,1,2022_Apr_14_1003,Semantic-hierachy,2021.1.2,59.81877519633524,
226,Trial # 227,layer0-5_T4_to_T8.jpg,layer0-5/layer0-5_T4_to_T8.jpg,TT,layer0-5,,,,,0.0,76.0,76.0,76.0,,,,,829.41287534195,None,1.0,1.8413701958488675,829.41287534195,None,829.41287534195,None,829.41287534195,None,1,2022_Apr_14_1003,Semantic-hierachy,2021.1.2,59.81877519633524,
227,Trial # 228,layer9-17_O2_to_T1.jpg,layer9-17/layer9-17_O2_to_T1.jpg,OT,layer9-17,,,,,0.0,77.0,77.0,77.0,,,,,831.4471687439363,None,2.0,1.7595790999475869,831.4471687439363,None,831.4471687439363,None,831.4471687439363,None,1,2022_Apr_14_1003,Semantic-hierachy,2021.1.2,59.81877519633524,
228,Trial # 229,layer0-5_O11_to_O7.jpg,layer0-5/layer0-5_O11_to_O7.jpg,OO,layer0-5,,,,,0.0,78.0,78.0,78.0,,,,,833.5640563019551,None,1.0,1.5412262419704348,833.5640563019551,None,833.5640563019551,None,833.5640563019551,None,1,2022_Apr_14_1003,Semantic-hierachy,2021.1.2,59.81877519633524,
229,Trial # 230,layer6-8_T2_to_T8.jpg,layer6-8/layer6-8_T2_to_T8.jpg,TT,layer6-8,,,,,0.0,79.0,79.0,79.0,,,,,835.3478722379077,None,2.0,3.690983403008431,835.3478722379077,None,835.3478722379077,None,835.3478722379077,None,1,2022_Apr_14_1003,Semantic-hierachy,2021.1.2,59.81877519633524,
230,Trial # 231,layer9-17_T4_to_T8.jpg,layer9-17/layer9-17_T4_to_T8.jpg,TT,layer9-17,,,,,0.0,80.0,80.0,80.0,,,,,839.3163149100728,None,2.0,1.5043382600415498,839.3163149100728,None,839.3163149100728,None,839.3163149100728,None,1,2022_Apr_14_1003,Semantic-hierachy,2021.1.2,59.81877519633524,
231,Trial # 232,layer9-17_T11_to_T3.jpg,layer9-17/layer9-17_T11_to_T3.jpg,TT,layer9-17,,,,,0.0,81.0,81.0,81.0,,,,,841.0164126108866,None,2.0,1.8499535371083768,841.0164126108866,None,841.0164126108866,None,841.0164126108866,None,1,2022_Apr_14_1003,Semantic-hierachy,2021.1.2,59.81877519633524,
232,Trial # 233,layer0-5_O3_to_T9.jpg,layer0-5/layer0-5_O3_to_T9.jpg,OT,layer0-5,,,,,0.0,82.0,82.0,82.0,,,,,843.1681122728623,None,1.0,2.262019960908219,843.1681122728623,None,843.1681122728623,None,843.1681122728623,None,1,2022_Apr_14_1003,Semantic-hierachy,2021.1.2,59.81877519633524,
233,Trial # 234,layer9-17_T7_to_T8.jpg,layer9-17/layer9-17_T7_to_T8.jpg,TT,layer9-17,,,,,0.0,83.0,83.0,83.0,,,,,845.6850863520522,None,2.0,2.897802468854934,845.6850863520522,None,845.6850863520522,None,845.6850863520522,None,1,2022_Apr_14_1003,Semantic-hierachy,2021.1.2,59.81877519633524,
234,Trial # 235,layer9-17_O3_to_O4.jpg,layer9-17/layer9-17_O3_to_O4.jpg,OO,layer9-17,,,,,0.0,84.0,84.0,84.0,,,,,848.7857491329778,None,2.0,1.3443268749397248,848.7857491329778,None,848.7857491329778,None,848.7857491329778,None,1,2022_Apr_14_1003,Semantic-hierachy,2021.1.2,59.81877519633524,
235,Trial # 236,layer6-8_O8_to_T6.jpg,layer6-8/layer6-8_O8_to_T6.jpg,OT,layer6-8,,,,,0.0,85.0,85.0,85.0,,,,,850.3194646099582,None,3.0,1.6934303981252017,850.3194646099582,None,850.3194646099582,None,850.3194646099582,None,1,2022_Apr_14_1003,Semantic-hierachy,2021.1.2,59.81877519633524,
236,Trial # 237,layer9-17_T6_to_T7.jpg,layer9-17/layer9-17_T6_to_T7.jpg,TT,layer9-17,,,,,0.0,86.0,86.0,86.0,,,,,852.2210702600423,None,2.0,1.8317516990937293,852.2210702600423,None,852.2210702600423,None,852.2210702600423,None,1,2022_Apr_14_1003,Semantic-hierachy,2021.1.2,59.81877519633524,
237,Trial # 238,layer0-5_T2_to_T9.jpg,layer0-5/layer0-5_T2_to_T9.jpg,TT,layer0-5,,,,,0.0,87.0,87.0,87.0,,,,,854.2878876570612,None,1.0,1.8978592189960184,854.2878876570612,None,854.2878876570612,None,854.2878876570612,None,1,2022_Apr_14_1003,Semantic-hierachy,2021.1.2,59.81877519633524,
238,Trial # 239,layer0-5_O2_to_O5.jpg,layer0-5/layer0-5_O2_to_O5.jpg,OO,layer0-5,,,,,0.0,88.0,88.0,88.0,,,,,856.3879332910292,None,1.0,2.2283047281671315,856.3879332910292,None,856.3879332910292,None,856.3879332910292,None,1,2022_Apr_14_1003,Semantic-hierachy,2021.1.2,59.81877519633524,
239,Trial # 240,layer6-8_O1_to_O5.jpg,layer6-8/layer6-8_O1_to_O5.jpg,OO,layer6-8,,,,,0.0,89.0,89.0,89.0,,,,,858.823058493901,None,2.0,4.740607991814613,858.823058493901,None,858.823058493901,None,858.823058493901,None,1,2022_Apr_14_1003,Semantic-hierachy,2021.1.2,59.81877519633524,
240,Trial # 241,layer9-17_O3_to_O7.jpg,layer9-17/layer9-17_O3_to_O7.jpg,OO,layer9-17,,,,,0.0,90.0,90.0,90.0,,,,,863.7731540729292,None,2.0,1.8790519679896531,863.7731540729292,None,863.7731540729292,None,863.7731540729292,None,1,2022_Apr_14_1003,Semantic-hierachy,2021.1.2,59.81877519633524,
241,Trial # 242,layer6-8_O11_to_O8.jpg,layer6-8/layer6-8_O11_to_O8.jpg,OO,layer6-8,,,,,0.0,91.0,91.0,91.0,,,,,865.9239458360244,None,2.0,2.288636615034193,865.9239458360244,None,865.9239458360244,None,865.9239458360244,None,1,2022_Apr_14_1003,Semantic-hierachy,2021.1.2,59.81877519633524,
242,Trial # 243,layer9-17_T1_to_T12.jpg,layer9-17/layer9-17_T1_to_T12.jpg,TT,layer9-17,,,,,0.0,92.0,92.0,92.0,,,,,868.3916501710191,None,2.0,1.1138743290212003,868.3916501710191,None,868.3916501710191,None,868.3916501710191,None,1,2022_Apr_14_1003,Semantic-hierachy,2021.1.2,59.81877519633524,
243,Trial # 244,layer9-17_O6_to_O8.jpg,layer9-17/layer9-17_O6_to_O8.jpg,OO,layer9-17,,,,,0.0,93.0,93.0,93.0,,,,,869.7085514969658,None,2.0,2.82300377311185,869.7085514969658,None,869.7085514969658,None,869.7085514969658,None,1,2022_Apr_14_1003,Semantic-hierachy,2021.1.2,59.81877519633524,
244,Trial # 245,layer6-8_O4_to_T11.jpg,layer6-8/layer6-8_O4_to_T11.jpg,OT,layer6-8,,,,,0.0,94.0,94.0,94.0,,,,,872.8274795280304,None,3.0,2.3039176750462502,872.8274795280304,None,872.8274795280304,None,872.8274795280304,None,1,2022_Apr_14_1003,Semantic-hierachy,2021.1.2,59.81877519633524,
245,Trial # 246,layer9-17_T10_to_T3.jpg,layer9-17/layer9-17_T10_to_T3.jpg,TT,layer9-17,,,,,0.0,95.0,95.0,95.0,,,,,875.393634845037,None,2.0,1.867555442033336,875.393634845037,None,875.393634845037,None,875.393634845037,None,1,2022_Apr_14_1003,Semantic-hierachy,2021.1.2,59.81877519633524,
246,Trial # 247,layer0-5_O10_to_O8.jpg,layer0-5/layer0-5_O10_to_O8.jpg,OO,layer0-5,,,,,0.0,96.0,96.0,96.0,,,,,877.4622190550435,None,1.0,1.7796090301126242,877.4622190550435,None,877.4622190550435,None,877.4622190550435,None,1,2022_Apr_14_1003,Semantic-hierachy,2021.1.2,59.81877519633524,
247,Trial # 248,layer6-8_O3_to_T12.jpg,layer6-8/layer6-8_O3_to_T12.jpg,OT,layer6-8,,,,,0.0,97.0,97.0,97.0,,,,,879.4615648388863,None,2.0,1.862745061982423,879.4615648388863,None,879.4615648388863,None,879.4615648388863,None,1,2022_Apr_14_1003,Semantic-hierachy,2021.1.2,59.81877519633524,
248,Trial # 249,layer0-5_O12_to_T9.jpg,layer0-5/layer0-5_O12_to_T9.jpg,OT,layer0-5,,,,,0.0,98.0,98.0,98.0,,,,,881.5132576730102,None,1.0,3.444548651110381,881.5132576730102,None,881.5132576730102,None,881.5132576730102,None,1,2022_Apr_14_1003,Semantic-hierachy,2021.1.2,59.81877519633524,
249,Trial # 250,layer9-17_T1_to_T9.jpg,layer9-17/layer9-17_T1_to_T9.jpg,TT,layer9-17,,,,,0.0,99.0,99.0,99.0,,,,,885.2470620260574,None,2.0,2.574225221062079,885.2470620260574,None,885.2470620260574,None,885.2470620260574,None,1,2022_Apr_14_1003,Semantic-hierachy,2021.1.2,59.81877519633524,
250,Trial # 251,layer9-17_T11_to_T8.jpg,layer9-17/layer9-17_T11_to_T8.jpg,TT,layer9-17,,,,,0.0,100.0,100.0,100.0,,,,,887.9819867978804,None,2.0,1.6440552710555494,887.9819867978804,None,887.9819867978804,None,887.9819867978804,None,1,2022_Apr_14_1003,Semantic-hierachy,2021.1.2,59.81877519633524,
251,Trial # 252,layer9-17_T11_to_T5.jpg,layer9-17/layer9-17_T11_to_T5.jpg,TT,layer9-17,,,,,0.0,101.0,101.0,101.0,,,,,889.7815730969887,None,2.0,2.616035807179287,889.7815730969887,None,889.7815730969887,None,889.7815730969887,None,1,2022_Apr_14_1003,Semantic-hierachy,2021.1.2,59.81877519633524,
252,Trial # 253,layer6-8_T10_to_T12.jpg,layer6-8/layer6-8_T10_to_T12.jpg,TT,layer6-8,,,,,0.0,102.0,102.0,102.0,,,,,892.5503363590688,None,1.0,4.115430418867618,892.5503363590688,None,892.5503363590688,None,892.5503363590688,None,1,2022_Apr_14_1003,Semantic-hierachy,2021.1.2,59.81877519633524,
253,Trial # 254,layer9-17_O5_to_T1.jpg,layer9-17/layer9-17_O5_to_T1.jpg,OT,layer9-17,,,,,0.0,103.0,103.0,103.0,,,,,896.9849114229437,None,2.0,1.699995470000431,896.9849114229437,None,896.9849114229437,None,896.9849114229437,None,1,2022_Apr_14_1003,Semantic-hierachy,2021.1.2,59.81877519633524,
254,Trial # 255,layer6-8_T2_to_T3.jpg,layer6-8/layer6-8_T2_to_T3.jpg,TT,layer6-8,,,,,0.0,104.0,104.0,104.0,,,,,898.8517199479975,None,1.0,3.0480136901605874,898.8517199479975,None,898.8517199479975,None,898.8517199479975,None,1,2022_Apr_14_1003,Semantic-hierachy,2021.1.2,59.81877519633524,
255,Trial # 256,layer6-8_O2_to_T6.jpg,layer6-8/layer6-8_O2_to_T6.jpg,OT,layer6-8,,,,,0.0,105.0,105.0,105.0,,,,,902.2688019399066,None,3.0,1.8971121399663389,902.2688019399066,None,902.2688019399066,None,902.2688019399066,None,1,2022_Apr_14_1003,Semantic-hierachy,2021.1.2,59.81877519633524,
256,Trial # 257,layer6-8_T11_to_T9.jpg,layer6-8/layer6-8_T11_to_T9.jpg,TT,layer6-8,,,,,0.0,106.0,106.0,106.0,,,,,904.3198026479222,None,2.0,2.344970762031153,904.3198026479222,None,904.3198026479222,None,904.3198026479222,None,1,2022_Apr_14_1003,Semantic-hierachy,2021.1.2,59.81877519633524,
257,Trial # 258,layer6-8_O5_to_T9.jpg,layer6-8/layer6-8_O5_to_T9.jpg,OT,layer6-8,,,,,0.0,107.0,107.0,107.0,,,,,906.954783780966,None,2.0,2.3048986168578267,906.954783780966,None,906.954783780966,None,906.954783780966,None,1,2022_Apr_14_1003,Semantic-hierachy,2021.1.2,59.81877519633524,
258,Trial # 259,layer6-8_O9_to_T8.jpg,layer6-8/layer6-8_O9_to_T8.jpg,OT,layer6-8,,,,,0.0,108.0,108.0,108.0,,,,,909.5210715299472,None,3.0,1.8425983630586416,909.5210715299472,None,909.5210715299472,None,909.5210715299472,None,1,2022_Apr_14_1003,Semantic-hierachy,2021.1.2,59.81877519633524,
259,Trial # 260,layer6-8_T1_to_T5.jpg,layer6-8/layer6-8_T1_to_T5.jpg,TT,layer6-8,,,,,0.0,109.0,109.0,109.0,,,,,911.6561737188604,None,2.0,1.6743070690426975,911.6561737188604,None,911.6561737188604,None,911.6561737188604,None,1,2022_Apr_14_1003,Semantic-hierachy,2021.1.2,59.81877519633524,
260,Trial # 261,layer0-5_O11_to_T2.jpg,layer0-5/layer0-5_O11_to_T2.jpg,OT,layer0-5,,,,,0.0,110.0,110.0,110.0,,,,,913.5388885459396,None,1.0,1.626322383992374,913.5388885459396,None,913.5388885459396,None,913.5388885459396,None,1,2022_Apr_14_1003,Semantic-hierachy,2021.1.2,59.81877519633524,
261,Trial # 262,layer0-5_O7_to_T4.jpg,layer0-5/layer0-5_O7_to_T4.jpg,OT,layer0-5,,,,,0.0,111.0,111.0,111.0,,,,,915.322738912888,None,1.0,1.6124119041487577,915.322738912888,None,915.322738912888,None,915.322738912888,None,1,2022_Apr_14_1003,Semantic-hierachy,2021.1.2,59.81877519633524,
262,Trial # 263,layer6-8_T12_to_T8.jpg,layer6-8/layer6-8_T12_to_T8.jpg,TT,layer6-8,,,,,0.0,112.0,112.0,112.0,,,,,917.1409559010062,None,2.0,1.539158868137747,917.1409559010062,None,917.1409559010062,None,917.1409559010062,None,1,2022_Apr_14_1003,Semantic-hierachy,2021.1.2,59.81877519633524,
263,Trial # 264,layer6-8_O4_to_O9.jpg,layer6-8/layer6-8_O4_to_O9.jpg,OO,layer6-8,,,,,0.0,113.0,113.0,113.0,,,,,918.9245683678892,None,2.0,3.6110082641243935,918.9245683678892,None,918.9245683678892,None,918.9245683678892,None,1,2022_Apr_14_1003,Semantic-hierachy,2021.1.2,59.81877519633524,
264,Trial # 265,layer0-5_T1_to_T5.jpg,layer0-5/layer0-5_T1_to_T5.jpg,TT,layer0-5,,,,,0.0,114.0,114.0,114.0,,,,,923.276171470061,None,1.0,2.149979382986203,923.276171470061,None,923.276171470061,None,923.276171470061,None,1,2022_Apr_14_1003,Semantic-hierachy,2021.1.2,59.81877519633524,
265,Trial # 266,layer0-5_O12_to_O7.jpg,layer0-5/layer0-5_O12_to_O7.jpg,OO,layer0-5,,,,,0.0,115.0,115.0,115.0,,,,,925.6592620760202,None,1.0,1.610832538921386,925.6592620760202,None,925.6592620760202,None,925.6592620760202,None,1,2022_Apr_14_1003,Semantic-hierachy,2021.1.2,59.81877519633524,
266,Trial # 267,layer6-8_T8_to_T9.jpg,layer6-8/layer6-8_T8_to_T9.jpg,TT,layer6-8,,,,,0.0,116.0,116.0,116.0,,,,,927.4609679318964,None,2.0,2.1152126910164952,927.4609679318964,None,927.4609679318964,None,927.4609679318964,None,1,2022_Apr_14_1003,Semantic-hierachy,2021.1.2,59.81877519633524,
267,Trial # 268,layer9-17_O11_to_T10.jpg,layer9-17/layer9-17_O11_to_T10.jpg,OT,layer9-17,,,,,0.0,117.0,117.0,117.0,,,,,929.7434697248972,None,2.0,1.8764079331886023,929.7434697248972,None,929.7434697248972,None,929.7434697248972,None,1,2022_Apr_14_1003,Semantic-hierachy,2021.1.2,59.81877519633524,
268,Trial # 269,layer0-5_O8_to_T9.jpg,layer0-5/layer0-5_O8_to_T9.jpg,OT,layer0-5,,,,,0.0,118.0,118.0,118.0,,,,,931.7791751718614,None,1.0,1.6167839970439672,931.7791751718614,None,931.7791751718614,None,931.7791751718614,None,1,2022_Apr_14_1003,Semantic-hierachy,2021.1.2,59.81877519633524,
269,Trial # 270,layer9-17_O10_to_O11.jpg,layer9-17/layer9-17_O10_to_O11.jpg,OO,layer9-17,,,,,0.0,119.0,119.0,119.0,,,,,933.545245423913,None,2.0,2.511997534893453,933.545245423913,None,933.545245423913,None,933.545245423913,None,1,2022_Apr_14_1003,Semantic-hierachy,2021.1.2,59.81877519633524,
270,Trial # 271,layer0-5_T1_to_T9.jpg,layer0-5/layer0-5_T1_to_T9.jpg,TT,layer0-5,,,,,0.0,120.0,120.0,120.0,,,,,936.2452091688756,None,1.0,1.9633111788425597,936.2452091688756,None,936.2452091688756,None,936.2452091688756,None,1,2022_Apr_14_1003,Semantic-hierachy,2021.1.2,59.81877519633524,
271,Trial # 272,layer6-8_T11_to_T8.jpg,layer6-8/layer6-8_T11_to_T8.jpg,TT,layer6-8,,,,,0.0,121.0,121.0,121.0,,,,,938.4138716610614,None,4.0,3.882855522911996,938.4138716610614,None,938.4138716610614,None,938.4138716610614,None,1,2022_Apr_14_1003,Semantic-hierachy,2021.1.2,59.81877519633524,
272,Trial # 273,layer9-17_O10_to_O12.jpg,layer9-17/layer9-17_O10_to_O12.jpg,OO,layer9-17,,,,,0.0,122.0,122.0,122.0,,,,,942.4654144200032,None,2.0,2.460765569005161,942.4654144200032,None,942.4654144200032,None,942.4654144200032,None,1,2022_Apr_14_1003,Semantic-hierachy,2021.1.2,59.81877519633524,
273,Trial # 274,layer0-5_T12_to_T6.jpg,layer0-5/layer0-5_T12_to_T6.jpg,TT,layer0-5,,,,,0.0,123.0,123.0,123.0,,,,,945.0828442480416,None,1.0,1.9092560650315136,945.0828442480416,None,945.0828442480416,None,945.0828442480416,None,1,2022_Apr_14_1003,Semantic-hierachy,2021.1.2,59.81877519633524,
274,Trial # 275,layer9-17_O11_to_O5.jpg,layer9-17/layer9-17_O11_to_O5.jpg,OO,layer9-17,,,,,0.0,124.0,124.0,124.0,,,,,947.1662122190464,None,2.0,4.659643981838599,947.1662122190464,None,947.1662122190464,None,947.1662122190464,None,1,2022_Apr_14_1003,Semantic-hierachy,2021.1.2,59.81877519633524,
275,Trial # 276,layer9-17_O1_to_O4.jpg,layer9-17/layer9-17_O1_to_O4.jpg,OO,layer9-17,,,,,0.0,125.0,125.0,125.0,,,,,952.0186536819674,None,2.0,4.231193822110072,952.0186536819674,None,952.0186536819674,None,952.0186536819674,None,1,2022_Apr_14_1003,Semantic-hierachy,2021.1.2,59.81877519633524,
276,Trial # 277,layer6-8_O11_to_O3.jpg,layer6-8/layer6-8_O11_to_O3.jpg,OO,layer6-8,,,,,0.0,126.0,126.0,126.0,,,,,956.4520621860866,None,4.0,3.417069087969139,956.4520621860866,None,956.4520621860866,None,956.4520621860866,None,1,2022_Apr_14_1003,Semantic-hierachy,2021.1.2,59.81877519633524,
277,Trial # 278,layer6-8_T10_to_T11.jpg,layer6-8/layer6-8_T10_to_T11.jpg,TT,layer6-8,,,,,0.0,127.0,127.0,127.0,,,,,960.0535075049849,None,2.0,2.5765809242147952,960.0535075049849,None,960.0535075049849,None,960.0535075049849,None,1,2022_Apr_14_1003,Semantic-hierachy,2021.1.2,59.81877519633524,
278,Trial # 279,layer0-5_O7_to_T3.jpg,layer0-5/layer0-5_O7_to_T3.jpg,OT,layer0-5,,,,,0.0,128.0,128.0,128.0,,,,,962.771495536901,None,1.0,1.6606007302179933,962.771495536901,None,962.771495536901,None,962.771495536901,None,1,2022_Apr_14_1003,Semantic-hierachy,2021.1.2,59.81877519633524,
279,Trial # 280,layer9-17_T1_to_T10.jpg,layer9-17/layer9-17_T1_to_T10.jpg,TT,layer9-17,,,,,0.0,129.0,129.0,129.0,,,,,964.6555775098968,None,2.0,2.6323959580622613,964.6555775098968,None,964.6555775098968,None,964.6555775098968,None,1,2022_Apr_14_1003,Semantic-hierachy,2021.1.2,59.81877519633524,
280,Trial # 281,layer9-17_O6_to_T7.jpg,layer9-17/layer9-17_O6_to_T7.jpg,OT,layer9-17,,,,,0.0,130.0,130.0,130.0,,,,,967.4732257919386,None,2.0,1.193033816060051,967.4732257919386,None,967.4732257919386,None,967.4732257919386,None,1,2022_Apr_14_1003,Semantic-hierachy,2021.1.2,59.81877519633524,
281,Trial # 282,layer0-5_O10_to_O7.jpg,layer0-5/layer0-5_O10_to_O7.jpg,OO,layer0-5,,,,,0.0,131.0,131.0,131.0,,,,,968.872421103064,None,1.0,1.50807411596179,968.872421103064,None,968.872421103064,None,968.872421103064,None,1,2022_Apr_14_1003,Semantic-hierachy,2021.1.2,59.81877519633524,
282,Trial # 283,layer0-5_O1_to_O11.jpg,layer0-5/layer0-5_O1_to_O11.jpg,OO,layer0-5,,,,,0.0,132.0,132.0,132.0,,,,,970.5571043698584,None,1.0,1.1442500019911677,970.5571043698584,None,970.5571043698584,None,970.5571043698584,None,1,2022_Apr_14_1003,Semantic-hierachy,2021.1.2,59.81877519633524,
283,Trial # 284,layer6-8_O7_to_O8.jpg,layer6-8/layer6-8_O7_to_O8.jpg,OO,layer6-8,,,,,0.0,133.0,133.0,133.0,,,,,971.8584644398652,None,2.0,1.9496313040144744,971.8584644398652,None,971.8584644398652,None,971.8584644398652,None,1,2022_Apr_14_1003,Semantic-hierachy,2021.1.2,59.81877519633524,
284,Trial # 285,layer0-5_T7_to_T8.jpg,layer0-5/layer0-5_T7_to_T8.jpg,TT,layer0-5,,,,,0.0,134.0,134.0,134.0,,,,,974.0245291460304,None,1.0,1.714847699040547,974.0245291460304,None,974.0245291460304,None,974.0245291460304,None,1,2022_Apr_14_1003,Semantic-hierachy,2021.1.2,59.81877519633524,
285,Trial # 286,layer9-17_T11_to_T6.jpg,layer9-17/layer9-17_T11_to_T6.jpg,TT,layer9-17,,,,,0.0,135.0,135.0,135.0,,,,,975.9079143879936,None,2.0,1.8465737199876455,975.9079143879936,None,975.9079143879936,None,975.9079143879936,None,1,2022_Apr_14_1003,Semantic-hierachy,2021.1.2,59.81877519633524,
286,Trial # 287,layer0-5_T2_to_T7.jpg,layer0-5/layer0-5_T2_to_T7.jpg,TT,layer0-5,,,,,0.0,136.0,136.0,136.0,,,,,977.9601815990172,None,1.0,1.7136881169863043,977.9601815990172,None,977.9601815990172,None,977.9601815990172,None,1,2022_Apr_14_1003,Semantic-hierachy,2021.1.2,59.81877519633524,
287,Trial # 288,layer9-17_O10_to_O2.jpg,layer9-17/layer9-17_O10_to_O2.jpg,OO,layer9-17,,,,,0.0,137.0,137.0,137.0,,,,,979.8593413939234,None,2.0,1.554743902059272,979.8593413939234,None,979.8593413939234,None,979.8593413939234,None,1,2022_Apr_14_1003,Semantic-hierachy,2021.1.2,59.81877519633524,
288,Trial # 289,layer0-5_T10_to_T9.jpg,layer0-5/layer0-5_T10_to_T9.jpg,TT,layer0-5,,,,,0.0,138.0,138.0,138.0,,,,,981.6939947479405,None,1.0,1.658816719893366,981.6939947479405,None,981.6939947479405,None,981.6939947479405,None,1,2022_Apr_14_1003,Semantic-hierachy,2021.1.2,59.81877519633524,
289,Trial # 290,layer6-8_O11_to_O5.jpg,layer6-8/layer6-8_O11_to_O5.jpg,OO,layer6-8,,,,,0.0,139.0,139.0,139.0,,,,,983.5607923869976,None,3.0,1.880866982974112,983.5607923869976,None,983.5607923869976,None,983.5607923869976,None,1,2022_Apr_14_1003,Semantic-hierachy,2021.1.2,59.81877519633524,
290,Trial # 291,layer6-8_O3_to_O7.jpg,layer6-8/layer6-8_O3_to_O7.jpg,OO,layer6-8,,,,,0.0,140.0,140.0,140.0,,,,,985.6109187800904,None,2.0,1.4135725819505751,985.6109187800904,None,985.6109187800904,None,985.6109187800904,None,1,2022_Apr_14_1003,Semantic-hierachy,2021.1.2,59.81877519633524,
291,Trial # 292,layer9-17_O12_to_T11.jpg,layer9-17/layer9-17_O12_to_T11.jpg,OT,layer9-17,,,,,0.0,141.0,141.0,141.0,,,,,987.1964506560472,None,2.0,1.9266587139572948,987.1964506560472,None,987.1964506560472,None,987.1964506560472,None,1,2022_Apr_14_1003,Semantic-hierachy,2021.1.2,59.81877519633524,
292,Trial # 293,layer9-17_O2_to_O4.jpg,layer9-17/layer9-17_O2_to_O4.jpg,OO,layer9-17,,,,,0.0,142.0,142.0,142.0,,,,,989.3289115030784,None,4.0,4.66312773199752,989.3289115030784,None,989.3289115030784,None,989.3289115030784,None,1,2022_Apr_14_1003,Semantic-hierachy,2021.1.2,59.81877519633524,
293,Trial # 294,layer6-8_O1_to_T12.jpg,layer6-8/layer6-8_O1_to_T12.jpg,OT,layer6-8,,,,,0.0,143.0,143.0,143.0,,,,,994.1971186150332,None,3.0,1.8971042579505597,994.1971186150332,None,994.1971186150332,None,994.1971186150332,None,1,2022_Apr_14_1003,Semantic-hierachy,2021.1.2,59.81877519633524,
294,Trial # 295,layer9-17_O11_to_T5.jpg,layer9-17/layer9-17_O11_to_T5.jpg,OT,layer9-17,,,,,0.0,144.0,144.0,144.0,,,,,996.2639952539466,None,2.0,3.486543243052438,996.2639952539466,None,996.2639952539466,None,996.2639952539466,None,1,2022_Apr_14_1003,Semantic-hierachy,2021.1.2,59.81877519633524,
295,Trial # 296,layer0-5_O10_to_O9.jpg,layer0-5/layer0-5_O10_to_O9.jpg,OO,layer0-5,,,,,0.0,145.0,145.0,145.0,,,,,999.9487137768884,None,1.0,1.8315261008683592,999.9487137768884,None,999.9487137768884,None,999.9487137768884,None,1,2022_Apr_14_1003,Semantic-hierachy,2021.1.2,59.81877519633524,
296,Trial # 297,layer6-8_O12_to_T10.jpg,layer6-8/layer6-8_O12_to_T10.jpg,OT,layer6-8,,,,,0.0,146.0,146.0,146.0,,,,,1002.0167760238984,None,2.0,3.3068621400743723,1002.0167760238984,None,1002.0167760238984,None,1002.0167760238984,None,1,2022_Apr_14_1003,Semantic-hierachy,2021.1.2,59.81877519633524,
297,Trial # 298,layer6-8_O3_to_T2.jpg,layer6-8/layer6-8_O3_to_T2.jpg,OT,layer6-8,,,,,0.0,147.0,147.0,147.0,,,,,1005.4505228209308,None,2.0,5.016604005126283,1005.4505228209308,None,1005.4505228209308,None,1005.4505228209308,None,1,2022_Apr_14_1003,Semantic-hierachy,2021.1.2,59.81877519633524,
298,Trial # 299,layer9-17_O2_to_T5.jpg,layer9-17/layer9-17_O2_to_T5.jpg,OT,layer9-17,,,,,0.0,148.0,148.0,148.0,,,,,1010.6189565949608,None,2.0,7.432851367164403,1010.6189565949608,None,1010.6189565949608,None,1010.6189565949608,None,1,2022_Apr_14_1003,Semantic-hierachy,2021.1.2,59.81877519633524,
299,Trial # 300,layer0-5_O3_to_T7.jpg,layer0-5/layer0-5_O3_to_T7.jpg,OT,layer0-5,,,,,0.0,149.0,149.0,149.0,,,,,1018.3387032048776,None,1.0,1.4766989869531244,1018.3387032048776,None,1018.3387032048776,None,1018.3387032048776,None,1,2022_Apr_14_1003,Semantic-hierachy,2021.1.2,59.81877519633524,
300,Trial # 301,layer9-17_O11_to_O6.jpg,layer9-17/layer9-17_O11_to_O6.jpg,OO,layer9-17,,,,,,,,,0.0,0.0,0.0,0.0,1033.0605628879275,None,2.0,3.0654758950695395,1033.0605628879275,None,1033.0605628879275,None,1033.0605628879275,None,1,2022_Apr_14_1003,Semantic-hierachy,2021.1.2,59.81877519633524,
301,Trial # 302,layer0-5_O3_to_O7.jpg,layer0-5/layer0-5_O3_to_O7.jpg,OO,layer0-5,,,,,,,,,0.0,1.0,1.0,1.0,1036.4438056428917,None,1.0,1.6280494339298457,1036.4438056428917,None,1036.4438056428917,None,1036.4438056428917,None,1,2022_Apr_14_1003,Semantic-hierachy,2021.1.2,59.81877519633524,
302,Trial # 303,layer6-8_O11_to_T3.jpg,layer6-8/layer6-8_O11_to_T3.jpg,OT,layer6-8,,,,,,,,,0.0,2.0,2.0,2.0,1038.2621622199658,None,3.0,1.7761024669744074,1038.2621622199658,None,1038.2621622199658,None,1038.2621622199658,None,1,2022_Apr_14_1003,Semantic-hierachy,2021.1.2,59.81877519633524,
303,Trial # 304,layer6-8_O2_to_T7.jpg,layer6-8/layer6-8_O2_to_T7.jpg,OT,layer6-8,,,,,,,,,0.0,3.0,3.0,3.0,1040.261596171884,None,3.0,1.1806568880565464,1040.261596171884,None,1040.261596171884,None,1040.261596171884,None,1,2022_Apr_14_1003,Semantic-hierachy,2021.1.2,59.81877519633524,
304,Trial # 305,layer0-5_T1_to_T7.jpg,layer0-5/layer0-5_T1_to_T7.jpg,TT,layer0-5,,,,,,,,,0.0,4.0,4.0,4.0,1041.6453882688656,None,1.0,1.7795846411027014,1041.6453882688656,None,1041.6453882688656,None,1041.6453882688656,None,1,2022_Apr_14_1003,Semantic-hierachy,2021.1.2,59.81877519633524,
305,Trial # 306,layer6-8_O7_to_T11.jpg,layer6-8/layer6-8_O7_to_T11.jpg,OT,layer6-8,,,,,,,,,0.0,5.0,5.0,5.0,1043.613412095001,None,3.0,1.942824349971488,1043.613412095001,None,1043.613412095001,None,1043.613412095001,None,1,2022_Apr_14_1003,Semantic-hierachy,2021.1.2,59.81877519633524,
306,Trial # 307,layer9-17_O5_to_T5.jpg,layer9-17/layer9-17_O5_to_T5.jpg,OT,layer9-17,,,,,,,,,0.0,6.0,6.0,6.0,1045.712871866068,None,2.0,1.7801553579047322,1045.712871866068,None,1045.712871866068,None,1045.712871866068,None,1,2022_Apr_14_1003,Semantic-hierachy,2021.1.2,59.81877519633524,
307,Trial # 308,layer9-17_T12_to_T5.jpg,layer9-17/layer9-17_T12_to_T5.jpg,TT,layer9-17,,,,,,,,,0.0,7.0,7.0,7.0,1047.681442624889,None,2.0,1.4082950800657272,1047.681442624889,None,1047.681442624889,None,1047.681442624889,None,1,2022_Apr_14_1003,Semantic-hierachy,2021.1.2,59.81877519633524,
308,Trial # 309,layer6-8_O11_to_O2.jpg,layer6-8/layer6-8_O11_to_O2.jpg,OO,layer6-8,,,,,,,,,0.0,8.0,8.0,8.0,1049.247560237069,None,2.0,1.5303699888754636,1049.247560237069,None,1049.247560237069,None,1049.247560237069,None,1,2022_Apr_14_1003,Semantic-hierachy,2021.1.2,59.81877519633524,
309,Trial # 310,layer6-8_O10_to_O7.jpg,layer6-8/layer6-8_O10_to_O7.jpg,OO,layer6-8,,,,,,,,,0.0,9.0,9.0,9.0,1051.1648024390452,None,2.0,1.5871188438031822,1051.1648024390452,None,1051.1648024390452,None,1051.1648024390452,None,1,2022_Apr_14_1003,Semantic-hierachy,2021.1.2,59.81877519633524,
310,Trial # 311,layer9-17_O10_to_T11.jpg,layer9-17/layer9-17_O10_to_T11.jpg,OT,layer9-17,,,,,,,,,0.0,10.0,10.0,10.0,1053.0157124649268,None,2.0,2.225500103086233,1053.0157124649268,None,1053.0157124649268,None,1053.0157124649268,None,1,2022_Apr_14_1003,Semantic-hierachy,2021.1.2,59.81877519633524,
311,Trial # 312,layer6-8_O11_to_O12.jpg,layer6-8/layer6-8_O11_to_O12.jpg,OO,layer6-8,,,,,,,,,0.0,11.0,11.0,11.0,1055.4328637099825,None,2.0,1.2329639710951596,1055.4328637099825,None,1055.4328637099825,None,1055.4328637099825,None,1,2022_Apr_14_1003,Semantic-hierachy,2021.1.2,59.81877519633524,
312,Trial # 313,layer9-17_O9_to_T8.jpg,layer9-17/layer9-17_O9_to_T8.jpg,OT,layer9-17,,,,,,,,,0.0,12.0,12.0,12.0,1056.8341952280607,None,2.0,2.9890673321206123,1056.8341952280607,None,1056.8341952280607,None,1056.8341952280607,None,1,2022_Apr_14_1003,Semantic-hierachy,2021.1.2,59.81877519633524,
313,Trial # 314,layer0-5_O3_to_T2.jpg,layer0-5/layer0-5_O3_to_T2.jpg,OT,layer0-5,,,,,,,,,0.0,13.0,13.0,13.0,1059.9838099149056,None,1.0,1.5873591741546988,1059.9838099149056,None,1059.9838099149056,None,1059.9838099149056,None,1,2022_Apr_14_1003,Semantic-hierachy,2021.1.2,59.81877519633524,
314,Trial # 315,layer9-17_T1_to_T11.jpg,layer9-17/layer9-17_T1_to_T11.jpg,TT,layer9-17,,,,,,,,,0.0,14.0,14.0,14.0,1061.7193673260044,None,2.0,1.399592864094302,1061.7193673260044,None,1061.7193673260044,None,1061.7193673260044,None,1,2022_Apr_14_1003,Semantic-hierachy,2021.1.2,59.81877519633524,
315,Trial # 316,layer6-8_T10_to_T7.jpg,layer6-8/layer6-8_T10_to_T7.jpg,TT,layer6-8,,,,,,,,,0.0,15.0,15.0,15.0,1063.4184873539489,None,2.0,2.3780388350132853,1063.4184873539489,None,1063.4184873539489,None,1063.4184873539489,None,1,2022_Apr_14_1003,Semantic-hierachy,2021.1.2,59.81877519633524,
316,Trial # 317,layer0-5_T6_to_T7.jpg,layer0-5/layer0-5_T6_to_T7.jpg,TT,layer0-5,,,,,,,,,0.0,16.0,16.0,16.0,1065.953323411988,None,1.0,1.663927281042561,1065.953323411988,None,1065.953323411988,None,1065.953323411988,None,1,2022_Apr_14_1003,Semantic-hierachy,2021.1.2,59.81877519633524,
317,Trial # 318,layer9-17_O1_to_T3.jpg,layer9-17/layer9-17_O1_to_T3.jpg,OT,layer9-17,,,,,,,,,0.0,17.0,17.0,17.0,1067.787399617955,None,2.0,1.56300921109505,1067.787399617955,None,1067.787399617955,None,1067.787399617955,None,1,2022_Apr_14_1003,Semantic-hierachy,2021.1.2,59.81877519633524,
318,Trial # 319,layer0-5_O2_to_T5.jpg,layer0-5/layer0-5_O2_to_T5.jpg,OT,layer0-5,,,,,,,,,0.0,18.0,18.0,18.0,1069.6041231940037,None,1.0,1.9562046569772065,1069.6041231940037,None,1069.6041231940037,None,1069.6041231940037,None,1,2022_Apr_14_1003,Semantic-hierachy,2021.1.2,59.81877519633524,
319,Trial # 320,layer6-8_O7_to_T10.jpg,layer6-8/layer6-8_O7_to_T10.jpg,OT,layer6-8,,,,,,,,,0.0,19.0,19.0,19.0,1071.6891375230623,None,3.0,2.630671259947121,1071.6891375230623,None,1071.6891375230623,None,1071.6891375230623,None,1,2022_Apr_14_1003,Semantic-hierachy,2021.1.2,59.81877519633524,
320,Trial # 321,layer0-5_O5_to_O6.jpg,layer0-5/layer0-5_O5_to_O6.jpg,OO,layer0-5,,,,,,,,,0.0,20.0,20.0,20.0,1075.2553291160148,None,1.0,2.6113551720045507,1075.2553291160148,None,1075.2553291160148,None,1075.2553291160148,None,1,2022_Apr_14_1003,Semantic-hierachy,2021.1.2,59.81877519633524,
321,Trial # 322,layer9-17_O5_to_T4.jpg,layer9-17/layer9-17_O5_to_T4.jpg,OT,layer9-17,,,,,,,,,0.0,21.0,21.0,21.0,1078.090823680861,None,2.0,1.6996709508821368,1078.090823680861,None,1078.090823680861,None,1078.090823680861,None,1,2022_Apr_14_1003,Semantic-hierachy,2021.1.2,59.81877519633524,
322,Trial # 323,layer0-5_T12_to_T2.jpg,layer0-5/layer0-5_T12_to_T2.jpg,TT,layer0-5,,,,,,,,,0.0,22.0,22.0,22.0,1079.9237175330054,None,1.0,1.4971062180120498,1079.9237175330054,None,1079.9237175330054,None,1079.9237175330054,None,1,2022_Apr_14_1003,Semantic-hierachy,2021.1.2,59.81877519633524,
323,Trial # 324,layer0-5_O2_to_O4.jpg,layer0-5/layer0-5_O2_to_O4.jpg,OO,layer0-5,,,,,,,,,0.0,23.0,23.0,23.0,1081.5911894938909,None,1.0,1.2841064149979502,1081.5911894938909,None,1081.5911894938909,None,1081.5911894938909,None,1,2022_Apr_14_1003,Semantic-hierachy,2021.1.2,59.81877519633524,
324,Trial # 325,layer6-8_O1_to_O9.jpg,layer6-8/layer6-8_O1_to_O9.jpg,OO,layer6-8,,,,,,,,,0.0,24.0,24.0,24.0,1083.0254610080738,None,2.0,4.5804897039197385,1083.0254610080738,None,1083.0254610080738,None,1083.0254610080738,None,1,2022_Apr_14_1003,Semantic-hierachy,2021.1.2,59.81877519633524,
325,Trial # 326,layer0-5_T3_to_T5.jpg,layer0-5/layer0-5_T3_to_T5.jpg,TT,layer0-5,,,,,,,,,0.0,25.0,25.0,25.0,1087.8094784850257,None,1.0,1.646861777175218,1087.8094784850257,None,1087.8094784850257,None,1087.8094784850257,None,1,2022_Apr_14_1003,Semantic-hierachy,2021.1.2,59.81877519633524,
326,Trial # 327,layer6-8_O8_to_T12.jpg,layer6-8/layer6-8_O8_to_T12.jpg,OT,layer6-8,,,,,,,,,0.0,26.0,26.0,26.0,1089.677450385876,None,2.0,1.4303402330260724,1089.677450385876,None,1089.677450385876,None,1089.677450385876,None,1,2022_Apr_14_1003,Semantic-hierachy,2021.1.2,59.81877519633524,
327,Trial # 328,layer9-17_T11_to_T4.jpg,layer9-17/layer9-17_T11_to_T4.jpg,TT,layer9-17,,,,,,,,,0.0,27.0,27.0,27.0,1091.2772562198809,None,2.0,1.4022693049628288,1091.2772562198809,None,1091.2772562198809,None,1091.2772562198809,None,1,2022_Apr_14_1003,Semantic-hierachy,2021.1.2,59.81877519633524,
328,Trial # 329,layer9-17_O6_to_T2.jpg,layer9-17/layer9-17_O6_to_T2.jpg,OT,layer9-17,,,,,,,,,0.0,28.0,28.0,28.0,1092.8788719470613,None,2.0,1.6771898539736867,1092.8788719470613,None,1092.8788719470613,None,1092.8788719470613,None,1,2022_Apr_14_1003,Semantic-hierachy,2021.1.2,59.81877519633524,
329,Trial # 330,layer9-17_T10_to_T9.jpg,layer9-17/layer9-17_T10_to_T9.jpg,TT,layer9-17,,,,,,,,,0.0,29.0,29.0,29.0,1094.6947973479982,None,2.0,1.8754095470067116,1094.6947973479982,None,1094.6947973479982,None,1094.6947973479982,None,1,2022_Apr_14_1003,Semantic-hierachy,2021.1.2,59.81877519633524,
330,Trial # 331,layer0-5_O2_to_O3.jpg,layer0-5/layer0-5_O2_to_O3.jpg,OO,layer0-5,,,,,,,,,0.0,30.0,30.0,30.0,1096.863392106956,None,1.0,1.9358285039197651,1096.863392106956,None,1096.863392106956,None,1096.863392106956,None,1,2022_Apr_14_1003,Semantic-hierachy,2021.1.2,59.81877519633524,
331,Trial # 332,layer6-8_O1_to_O12.jpg,layer6-8/layer6-8_O1_to_O12.jpg,OO,layer6-8,,,,,,,,,0.0,31.0,31.0,31.0,1099.0463693530764,None,3.0,1.6818778540473431,1099.0463693530764,None,1099.0463693530764,None,1099.0463693530764,None,1,2022_Apr_14_1003,Semantic-hierachy,2021.1.2,59.81877519633524,
332,Trial # 333,layer0-5_O5_to_T12.jpg,layer0-5/layer0-5_O5_to_T12.jpg,OT,layer0-5,,,,,,,,,0.0,32.0,32.0,32.0,1100.9129266450182,None,1.0,1.8430655160918832,1100.9129266450182,None,1100.9129266450182,None,1100.9129266450182,None,1,2022_Apr_14_1003,Semantic-hierachy,2021.1.2,59.81877519633524,
333,Trial # 334,layer9-17_O11_to_T6.jpg,layer9-17/layer9-17_O11_to_T6.jpg,OT,layer9-17,,,,,,,,,0.0,33.0,33.0,33.0,1102.9486581878737,None,2.0,1.6315411059185865,1102.9486581878737,None,1102.9486581878737,None,1102.9486581878737,None,1,2022_Apr_14_1003,Semantic-hierachy,2021.1.2,59.81877519633524,
334,Trial # 335,layer0-5_O4_to_T1.jpg,layer0-5/layer0-5_O4_to_T1.jpg,OT,layer0-5,,,,,,,,,0.0,34.0,34.0,34.0,1104.7475088229403,None,1.0,1.343671360053122,1104.7475088229403,None,1104.7475088229403,None,1104.7475088229403,None,1,2022_Apr_14_1003,Semantic-hierachy,2021.1.2,59.81877519633524,
335,Trial # 336,layer6-8_T1_to_T6.jpg,layer6-8/layer6-8_T1_to_T6.jpg,TT,layer6-8,,,,,,,,,0.0,35.0,35.0,35.0,1106.2481997918803,None,2.0,1.7007956439629195,1106.2481997918803,None,1106.2481997918803,None,1106.2481997918803,None,1,2022_Apr_14_1003,Semantic-hierachy,2021.1.2,59.81877519633524,
336,Trial # 337,layer0-5_O12_to_O6.jpg,layer0-5/layer0-5_O12_to_O6.jpg,OO,layer0-5,,,,,,,,,0.0,36.0,36.0,36.0,1108.1502006300725,None,1.0,1.8475932460278277,1108.1502006300725,None,1108.1502006300725,None,1108.1502006300725,None,1,2022_Apr_14_1003,Semantic-hierachy,2021.1.2,59.81877519633524,
337,Trial # 338,layer0-5_O1_to_O10.jpg,layer0-5/layer0-5_O1_to_O10.jpg,OO,layer0-5,,,,,,,,,0.0,37.0,37.0,37.0,1110.1828872619662,None,1.0,1.2157358331605792,1110.1828872619662,None,1110.1828872619662,None,1110.1828872619662,None,1,2022_Apr_14_1003,Semantic-hierachy,2021.1.2,59.81877519633524,
338,Trial # 339,layer0-5_O9_to_T9.jpg,layer0-5/layer0-5_O9_to_T9.jpg,OT,layer0-5,,,,,,,,,0.0,38.0,38.0,38.0,1111.6005428959616,None,1.0,1.9975381488911808,1111.6005428959616,None,1111.6005428959616,None,1111.6005428959616,None,1,2022_Apr_14_1003,Semantic-hierachy,2021.1.2,59.81877519633524,
339,Trial # 340,layer6-8_O6_to_T10.jpg,layer6-8/layer6-8_O6_to_T10.jpg,OT,layer6-8,,,,,,,,,0.0,39.0,39.0,39.0,1113.751795461867,None,3.0,2.263064933940768,1113.751795461867,None,1113.751795461867,None,1113.751795461867,None,1,2022_Apr_14_1003,Semantic-hierachy,2021.1.2,59.81877519633524,
340,Trial # 341,layer9-17_O3_to_T3.jpg,layer9-17/layer9-17_O3_to_T3.jpg,OT,layer9-17,,,,,,,,,0.0,40.0,40.0,40.0,1116.185169946868,None,2.0,1.7791313061024994,1116.185169946868,None,1116.185169946868,None,1116.185169946868,None,1,2022_Apr_14_1003,Semantic-hierachy,2021.1.2,59.81877519633524,
341,Trial # 342,layer0-5_O8_to_T8.jpg,layer0-5/layer0-5_O8_to_T8.jpg,OT,layer0-5,,,,,,,,,0.0,41.0,41.0,41.0,1118.1200434910131,None,1.0,5.479584581917152,1118.1200434910131,None,1118.1200434910131,None,1118.1200434910131,None,1,2022_Apr_14_1003,Semantic-hierachy,2021.1.2,59.81877519633524,
