,Trial_num,image_name,image_path,pair_type,layers,block1.thisRepN,block1.thisTrialN,block1.thisN,block1.thisIndex,block2.thisRepN,block2.thisTrialN,block2.thisN,block2.thisIndex,block3.thisRepN,block3.thisTrialN,block3.thisN,block3.thisIndex,image_8.started,image_8.stopped,selected_semantic.response,selected_semantic.rt,selected_semantic.started,selected_semantic.stopped,Instruction.started,Instruction.stopped,Trial_number.started,Trial_number.stopped,session,date,expName,psychopyVersion,frameRate,Unnamed: 33
0,Trial # 1,layer0-5_O2_to_T1.jpg,layer0-5/layer0-5_O2_to_T1.jpg,OT,layer0-5,0.0,0.0,0.0,0.0,,,,,,,,,396.2262227390893,None,1.0,196.6608629571274,396.2262227390893,None,396.2262227390893,None,396.2262227390893,None,1,2022_Jul_08_0904,Semantic-hierachy,2021.1.2,60.03061363771692,
1,Trial # 2,layer0-5_O11_to_T7.jpg,layer0-5/layer0-5_O11_to_T7.jpg,OT,layer0-5,0.0,1.0,1.0,1.0,,,,,,,,,596.9039002829231,None,1.0,8.62526495498605,596.9039002829231,None,596.9039002829231,None,596.9039002829231,None,1,2022_Jul_08_0904,Semantic-hierachy,2021.1.2,60.03061363771692,
2,Trial # 3,layer6-8_O3_to_O5.jpg,layer6-8/layer6-8_O3_to_O5.jpg,OO,layer6-8,0.0,2.0,2.0,2.0,,,,,,,,,607.3571083110292,None,4.0,60.09417457203381,607.3571083110292,None,607.3571083110292,None,607.3571083110292,None,1,2022_Jul_08_0904,Semantic-hierachy,2021.1.2,60.03061363771692,
3,Trial # 4,layer6-8_O11_to_O4.jpg,layer6-8/layer6-8_O11_to_O4.jpg,OO,layer6-8,0.0,3.0,3.0,3.0,,,,,,,,,668.7928427609149,None,3.0,9.850847383961082,668.7928427609149,None,668.7928427609149,None,668.7928427609149,None,1,2022_Jul_08_0904,Semantic-hierachy,2021.1.2,60.03061363771692,
4,Trial # 5,layer6-8_O8_to_T8.jpg,layer6-8/layer6-8_O8_to_T8.jpg,OT,layer6-8,0.0,4.0,4.0,4.0,,,,,,,,,690.5675637789536,None,4.0,7.11998233711347,690.5675637789536,None,690.5675637789536,None,690.5675637789536,None,1,2022_Jul_08_0904,Semantic-hierachy,2021.1.2,60.03061363771692,
5,Trial # 6,layer0-5_O11_to_O8.jpg,layer0-5/layer0-5_O11_to_O8.jpg,OO,layer0-5,0.0,5.0,5.0,5.0,,,,,,,,,707.854913716903,None,1.0,37.00186981190927,707.854913716903,None,707.854913716903,None,707.854913716903,None,1,2022_Jul_08_0904,Semantic-hierachy,2021.1.2,60.03061363771692,
6,Trial # 7,layer0-5_T10_to_T11.jpg,layer0-5/layer0-5_T10_to_T11.jpg,TT,layer0-5,0.0,6.0,6.0,6.0,,,,,,,,,752.4854394861031,None,1.0,2.790325988084078,752.4854394861031,None,752.4854394861031,None,752.4854394861031,None,1,2022_Jul_08_0904,Semantic-hierachy,2021.1.2,60.03061363771692,
7,Trial # 8,layer9-17_O6_to_O9.jpg,layer9-17/layer9-17_O6_to_O9.jpg,OO,layer9-17,0.0,7.0,7.0,7.0,,,,,,,,,758.5370966859628,None,2.0,2.606710514985025,758.5370966859628,None,758.5370966859628,None,758.5370966859628,None,1,2022_Jul_08_0904,Semantic-hierachy,2021.1.2,60.03061363771692,
8,Trial # 9,layer6-8_O12_to_O9.jpg,layer6-8/layer6-8_O12_to_O9.jpg,OO,layer6-8,0.0,8.0,8.0,8.0,,,,,,,,,762.6386172040366,None,3.0,10.121363583020866,762.6386172040366,None,762.6386172040366,None,762.6386172040366,None,1,2022_Jul_08_0904,Semantic-hierachy,2021.1.2,60.03061363771692,
9,Trial # 10,layer0-5_O10_to_T2.jpg,layer0-5/layer0-5_O10_to_T2.jpg,OT,layer0-5,0.0,9.0,9.0,9.0,,,,,,,,,838.8116613179445,None,4.0,11.406515864189714,838.8116613179445,None,838.8116613179445,None,838.8116613179445,None,1,2022_Jul_08_0904,Semantic-hierachy,2021.1.2,60.03061363771692,
10,Trial # 11,layer9-17_T10_to_T2.jpg,layer9-17/layer9-17_T10_to_T2.jpg,TT,layer9-17,0.0,10.0,10.0,10.0,,,,,,,,,862.4529860708863,None,4.0,67.00289760786109,862.4529860708863,None,862.4529860708863,None,862.4529860708863,None,1,2022_Jul_08_0904,Semantic-hierachy,2021.1.2,60.03061363771692,
11,Trial # 12,layer6-8_T6_to_T7.jpg,layer6-8/layer6-8_T6_to_T7.jpg,TT,layer6-8,0.0,11.0,11.0,11.0,,,,,,,,,937.4595120858868,None,4.0,98.88625153293832,937.4595120858868,None,937.4595120858868,None,937.4595120858868,None,1,2022_Jul_08_0904,Semantic-hierachy,2021.1.2,60.03061363771692,
12,Trial # 13,layer9-17_O10_to_T2.jpg,layer9-17/layer9-17_O10_to_T2.jpg,OT,layer9-17,0.0,12.0,12.0,12.0,,,,,,,,,1040.392473205924,None,2.0,2.7879608450457454,1040.392473205924,None,1040.392473205924,None,1040.392473205924,None,1,2022_Jul_08_0904,Semantic-hierachy,2021.1.2,60.03061363771692,
13,Trial # 14,layer6-8_T4_to_T7.jpg,layer6-8/layer6-8_T4_to_T7.jpg,TT,layer6-8,0.0,13.0,13.0,13.0,,,,,,,,,1046.1774381808937,None,4.0,92.48775400384328,1046.1774381808937,None,1046.1774381808937,None,1046.1774381808937,None,1,2022_Jul_08_0904,Semantic-hierachy,2021.1.2,60.03061363771692,
14,Trial # 15,layer9-17_O8_to_T2.jpg,layer9-17/layer9-17_O8_to_T2.jpg,OT,layer9-17,0.0,14.0,14.0,14.0,,,,,,,,,1145.041530997958,None,2.0,3.3910008729435503,1145.041530997958,None,1145.041530997958,None,1145.041530997958,None,1,2022_Jul_08_0904,Semantic-hierachy,2021.1.2,60.03061363771692,
15,Trial # 16,layer0-5_T6_to_T9.jpg,layer0-5/layer0-5_T6_to_T9.jpg,TT,layer0-5,0.0,15.0,15.0,15.0,,,,,,,,,1149.6417369518897,None,1.0,3.630258513847366,1149.6417369518897,None,1149.6417369518897,None,1149.6417369518897,None,1,2022_Jul_08_0904,Semantic-hierachy,2021.1.2,60.03061363771692,
16,Trial # 17,layer0-5_O11_to_O12.jpg,layer0-5/layer0-5_O11_to_O12.jpg,OO,layer0-5,0.0,16.0,16.0,16.0,,,,,,,,,1154.99460783205,None,1.0,1.8625504551455376,1154.99460783205,None,1154.99460783205,None,1154.99460783205,None,1,2022_Jul_08_0904,Semantic-hierachy,2021.1.2,60.03061363771692,
17,Trial # 18,layer0-5_T11_to_T5.jpg,layer0-5/layer0-5_T11_to_T5.jpg,TT,layer0-5,0.0,17.0,17.0,17.0,,,,,,,,,1160.1460710030517,None,1.0,1.556986119132489,1160.1460710030517,None,1160.1460710030517,None,1160.1460710030517,None,1,2022_Jul_08_0904,Semantic-hierachy,2021.1.2,60.03061363771692,
18,Trial # 19,layer0-5_O6_to_T12.jpg,layer0-5/layer0-5_O6_to_T12.jpg,OT,layer0-5,0.0,18.0,18.0,18.0,,,,,,,,,1162.6789553209674,None,1.0,1.4210431498941034,1162.6789553209674,None,1162.6789553209674,None,1162.6789553209674,None,1,2022_Jul_08_0904,Semantic-hierachy,2021.1.2,60.03061363771692,
19,Trial # 20,layer6-8_T6_to_T8.jpg,layer6-8/layer6-8_T6_to_T8.jpg,TT,layer6-8,0.0,19.0,19.0,19.0,,,,,,,,,1164.9979181480594,None,4.0,9.646525075193496,1164.9979181480594,None,1164.9979181480594,None,1164.9979181480594,None,1,2022_Jul_08_0904,Semantic-hierachy,2021.1.2,60.03061363771692,
20,Trial # 21,layer9-17_T2_to_T5.jpg,layer9-17/layer9-17_T2_to_T5.jpg,TT,layer9-17,0.0,20.0,20.0,20.0,,,,,,,,,1177.1502572169993,None,2.0,2.809260578127578,1177.1502572169993,None,1177.1502572169993,None,1177.1502572169993,None,1,2022_Jul_08_0904,Semantic-hierachy,2021.1.2,60.03061363771692,
21,Trial # 22,layer6-8_O2_to_O6.jpg,layer6-8/layer6-8_O2_to_O6.jpg,OO,layer6-8,0.0,21.0,21.0,21.0,,,,,,,,,1180.9025182779878,None,2.0,80.09552559582517,1180.9025182779878,None,1180.9025182779878,None,1180.9025182779878,None,1,2022_Jul_08_0904,Semantic-hierachy,2021.1.2,60.03061363771692,
22,Trial # 23,layer9-17_O3_to_T12.jpg,layer9-17/layer9-17_O3_to_T12.jpg,OT,layer9-17,0.0,22.0,22.0,22.0,,,,,,,,,1266.5788787489291,None,2.0,2.1800868869759142,1266.5788787489291,None,1266.5788787489291,None,1266.5788787489291,None,1,2022_Jul_08_0904,Semantic-hierachy,2021.1.2,60.03061363771692,
23,Trial # 24,layer0-5_O11_to_O3.jpg,layer0-5/layer0-5_O11_to_O3.jpg,OO,layer0-5,0.0,23.0,23.0,23.0,,,,,,,,,1269.8285622589756,None,1.0,2.731576832011342,1269.8285622589756,None,1269.8285622589756,None,1269.8285622589756,None,1,2022_Jul_08_0904,Semantic-hierachy,2021.1.2,60.03061363771692,
24,Trial # 25,layer6-8_O2_to_O9.jpg,layer6-8/layer6-8_O2_to_O9.jpg,OO,layer6-8,0.0,24.0,24.0,24.0,,,,,,,,,1273.7134670910891,None,4.0,39.00082423607819,1273.7134670910891,None,1273.7134670910891,None,1273.7134670910891,None,1,2022_Jul_08_0904,Semantic-hierachy,2021.1.2,60.03061363771692,
25,Trial # 26,layer9-17_O10_to_O8.jpg,layer9-17/layer9-17_O10_to_O8.jpg,OO,layer9-17,0.0,25.0,25.0,25.0,,,,,,,,,1319.8777130478993,None,3.0,32.11793492385186,1319.8777130478993,None,1319.8777130478993,None,1319.8777130478993,None,1,2022_Jul_08_0904,Semantic-hierachy,2021.1.2,60.03061363771692,
26,Trial # 27,layer9-17_T4_to_T6.jpg,layer9-17/layer9-17_T4_to_T6.jpg,TT,layer9-17,0.0,26.0,26.0,26.0,,,,,,,,,1360.9083941129502,None,2.0,3.258589843986556,1360.9083941129502,None,1360.9083941129502,None,1360.9083941129502,None,1,2022_Jul_08_0904,Semantic-hierachy,2021.1.2,60.03061363771692,
27,Trial # 28,layer6-8_O7_to_T8.jpg,layer6-8/layer6-8_O7_to_T8.jpg,OT,layer6-8,0.0,27.0,27.0,27.0,,,,,,,,,1366.6434852909297,None,2.0,4.144119865028188,1366.6434852909297,None,1366.6434852909297,None,1366.6434852909297,None,1,2022_Jul_08_0904,Semantic-hierachy,2021.1.2,60.03061363771692,
28,Trial # 29,layer6-8_T4_to_T5.jpg,layer6-8/layer6-8_T4_to_T5.jpg,TT,layer6-8,0.0,28.0,28.0,28.0,,,,,,,,,1372.9441603370942,None,3.0,57.991810688981786,1372.9441603370942,None,1372.9441603370942,None,1372.9441603370942,None,1,2022_Jul_08_0904,Semantic-hierachy,2021.1.2,60.03061363771692,
29,Trial # 30,layer6-8_T10_to_T9.jpg,layer6-8/layer6-8_T10_to_T9.jpg,TT,layer6-8,0.0,29.0,29.0,29.0,,,,,,,,,1464.672401413089,None,4.0,99.84639657312071,1464.672401413089,None,1464.672401413089,None,1464.672401413089,None,1,2022_Jul_08_0904,Semantic-hierachy,2021.1.2,60.03061363771692,
30,Trial # 31,layer9-17_O1_to_O8.jpg,layer9-17/layer9-17_O1_to_O8.jpg,OO,layer9-17,0.0,30.0,30.0,30.0,,,,,,,,,1566.5718318659349,None,2.0,3.686399830970913,1566.5718318659349,None,1566.5718318659349,None,1566.5718318659349,None,1,2022_Jul_08_0904,Semantic-hierachy,2021.1.2,60.03061363771692,
31,Trial # 32,layer9-17_O12_to_O7.jpg,layer9-17/layer9-17_O12_to_O7.jpg,OO,layer9-17,0.0,31.0,31.0,31.0,,,,,,,,,1571.6070944459643,None,2.0,5.98668592213653,1571.6070944459643,None,1571.6070944459643,None,1571.6070944459643,None,1,2022_Jul_08_0904,Semantic-hierachy,2021.1.2,60.03061363771692,
32,Trial # 33,layer9-17_T10_to_T12.jpg,layer9-17/layer9-17_T10_to_T12.jpg,TT,layer9-17,0.0,32.0,32.0,32.0,,,,,,,,,1598.1470373410266,None,2.0,15.85861175484024,1598.1470373410266,None,1598.1470373410266,None,1598.1470373410266,None,1,2022_Jul_08_0904,Semantic-hierachy,2021.1.2,60.03061363771692,
33,Trial # 34,layer0-5_T2_to_T6.jpg,layer0-5/layer0-5_T2_to_T6.jpg,TT,layer0-5,0.0,33.0,33.0,33.0,,,,,,,,,1623.705391752068,None,1.0,5.893034036969766,1623.705391752068,None,1623.705391752068,None,1623.705391752068,None,1,2022_Jul_08_0904,Semantic-hierachy,2021.1.2,60.03061363771692,
34,Trial # 35,layer6-8_T11_to_T2.jpg,layer6-8/layer6-8_T11_to_T2.jpg,TT,layer6-8,0.0,34.0,34.0,34.0,,,,,,,,,1641.011669890955,None,4.0,41.5817793039605,1641.011669890955,None,1641.011669890955,None,1641.011669890955,None,1,2022_Jul_08_0904,Semantic-hierachy,2021.1.2,60.03061363771692,
35,Trial # 36,layer6-8_O4_to_T3.jpg,layer6-8/layer6-8_O4_to_T3.jpg,OT,layer6-8,0.0,35.0,35.0,35.0,,,,,,,,,1686.6923001979012,None,3.0,3.240846158005297,1686.6923001979012,None,1686.6923001979012,None,1686.6923001979012,None,1,2022_Jul_08_0904,Semantic-hierachy,2021.1.2,60.03061363771692,
36,Trial # 37,layer6-8_O3_to_T11.jpg,layer6-8/layer6-8_O3_to_T11.jpg,OT,layer6-8,0.0,36.0,36.0,36.0,,,,,,,,,1691.2104209959507,None,2.0,2.691643028985709,1691.2104209959507,None,1691.2104209959507,None,1691.2104209959507,None,1,2022_Jul_08_0904,Semantic-hierachy,2021.1.2,60.03061363771692,
37,Trial # 38,layer6-8_T1_to_T2.jpg,layer6-8/layer6-8_T1_to_T2.jpg,TT,layer6-8,0.0,37.0,37.0,37.0,,,,,,,,,1695.3784266118892,None,3.0,5.291677884059027,1695.3784266118892,None,1695.3784266118892,None,1695.3784266118892,None,1,2022_Jul_08_0904,Semantic-hierachy,2021.1.2,60.03061363771692,
38,Trial # 39,layer9-17_O2_to_O6.jpg,layer9-17/layer9-17_O2_to_O6.jpg,OO,layer9-17,0.0,38.0,38.0,38.0,,,,,,,,,1717.6174352930393,None,4.0,111.76687704306096,1717.6174352930393,None,1717.6174352930393,None,1717.6174352930393,None,1,2022_Jul_08_0904,Semantic-hierachy,2021.1.2,60.03061363771692,
39,Trial # 40,layer9-17_O4_to_T2.jpg,layer9-17/layer9-17_O4_to_T2.jpg,OT,layer9-17,0.0,39.0,39.0,39.0,,,,,,,,,1837.6890063809697,None,2.0,3.0254708700813358,1837.6890063809697,None,1837.6890063809697,None,1837.6890063809697,None,1,2022_Jul_08_0904,Semantic-hierachy,2021.1.2,60.03061363771692,
40,Trial # 41,layer6-8_O5_to_T3.jpg,layer6-8/layer6-8_O5_to_T3.jpg,OT,layer6-8,0.0,40.0,40.0,40.0,,,,,,,,,1842.5059192029291,None,3.0,2.408727773930877,1842.5059192029291,None,1842.5059192029291,None,1842.5059192029291,None,1,2022_Jul_08_0904,Semantic-hierachy,2021.1.2,60.03061363771692,
41,Trial # 42,layer6-8_O2_to_O3.jpg,layer6-8/layer6-8_O2_to_O3.jpg,OO,layer6-8,0.0,41.0,41.0,41.0,,,,,,,,,1846.091854439117,None,4.0,8.757513283984736,1846.091854439117,None,1846.091854439117,None,1846.091854439117,None,1,2022_Jul_08_0904,Semantic-hierachy,2021.1.2,60.03061363771692,
42,Trial # 43,layer6-8_O1_to_T6.jpg,layer6-8/layer6-8_O1_to_T6.jpg,OT,layer6-8,0.0,42.0,42.0,42.0,,,,,,,,,1866.5147606891117,None,3.0,1.93780188402161,1866.5147606891117,None,1866.5147606891117,None,1866.5147606891117,None,1,2022_Jul_08_0904,Semantic-hierachy,2021.1.2,60.03061363771692,
43,Trial # 44,layer6-8_O2_to_T12.jpg,layer6-8/layer6-8_O2_to_T12.jpg,OT,layer6-8,0.0,43.0,43.0,43.0,,,,,,,,,1871.8158516990952,None,3.0,1.8748657880350947,1871.8158516990952,None,1871.8158516990952,None,1871.8158516990952,None,1,2022_Jul_08_0904,Semantic-hierachy,2021.1.2,60.03061363771692,
44,Trial # 45,layer9-17_O2_to_O8.jpg,layer9-17/layer9-17_O2_to_O8.jpg,OO,layer9-17,0.0,44.0,44.0,44.0,,,,,,,,,1876.584388141986,None,2.0,17.094232572009787,1876.584388141986,None,1876.584388141986,None,1876.584388141986,None,1,2022_Jul_08_0904,Semantic-hierachy,2021.1.2,60.03061363771692,
45,Trial # 46,layer9-17_O10_to_O4.jpg,layer9-17/layer9-17_O10_to_O4.jpg,OO,layer9-17,0.0,45.0,45.0,45.0,,,,,,,,,1904.692453146912,None,2.0,3.953476418973878,1904.692453146912,None,1904.692453146912,None,1904.692453146912,None,1,2022_Jul_08_0904,Semantic-hierachy,2021.1.2,60.03061363771692,
46,Trial # 47,layer0-5_O1_to_O4.jpg,layer0-5/layer0-5_O1_to_O4.jpg,OO,layer0-5,0.0,46.0,46.0,46.0,,,,,,,,,1910.076946140034,None,1.0,2.046315008075908,1910.076946140034,None,1910.076946140034,None,1910.076946140034,None,1,2022_Jul_08_0904,Semantic-hierachy,2021.1.2,60.03061363771692,
47,Trial # 48,layer0-5_T4_to_T5.jpg,layer0-5/layer0-5_T4_to_T5.jpg,TT,layer0-5,0.0,47.0,47.0,47.0,,,,,,,,,1913.0110277209897,None,1.0,2.101870544953272,1913.0110277209897,None,1913.0110277209897,None,1913.0110277209897,None,1,2022_Jul_08_0904,Semantic-hierachy,2021.1.2,60.03061363771692,
48,Trial # 49,layer9-17_T12_to_T8.jpg,layer9-17/layer9-17_T12_to_T8.jpg,TT,layer9-17,0.0,48.0,48.0,48.0,,,,,,,,,1916.4965654520784,None,2.0,2.0089896169956774,1916.4965654520784,None,1916.4965654520784,None,1916.4965654520784,None,1,2022_Jul_08_0904,Semantic-hierachy,2021.1.2,60.03061363771692,
49,Trial # 50,layer0-5_T10_to_T5.jpg,layer0-5/layer0-5_T10_to_T5.jpg,TT,layer0-5,0.0,49.0,49.0,49.0,,,,,,,,,1919.563170501031,None,1.0,1.892891151132062,1919.563170501031,None,1919.563170501031,None,1919.563170501031,None,1,2022_Jul_08_0904,Semantic-hierachy,2021.1.2,60.03061363771692,
50,Trial # 51,layer6-8_O10_to_O8.jpg,layer6-8/layer6-8_O10_to_O8.jpg,OO,layer6-8,0.0,50.0,50.0,50.0,,,,,,,,,1922.3649895309936,None,4.0,6.245061200112104,1922.3649895309936,None,1922.3649895309936,None,1922.3649895309936,None,1,2022_Jul_08_0904,Semantic-hierachy,2021.1.2,60.03061363771692,
51,Trial # 52,layer9-17_O3_to_O5.jpg,layer9-17/layer9-17_O3_to_O5.jpg,OO,layer9-17,0.0,51.0,51.0,51.0,,,,,,,,,1956.559608991025,None,2.0,1.981190417893231,1956.559608991025,None,1956.559608991025,None,1956.559608991025,None,1,2022_Jul_08_0904,Semantic-hierachy,2021.1.2,60.03061363771692,
52,Trial # 53,layer6-8_T1_to_T12.jpg,layer6-8/layer6-8_T1_to_T12.jpg,TT,layer6-8,0.0,52.0,52.0,52.0,,,,,,,,,1959.558988289908,None,3.0,4.145147864008322,1959.558988289908,None,1959.558988289908,None,1959.558988289908,None,1,2022_Jul_08_0904,Semantic-hierachy,2021.1.2,60.03061363771692,
53,Trial # 54,layer0-5_O4_to_O9.jpg,layer0-5/layer0-5_O4_to_O9.jpg,OO,layer0-5,0.0,53.0,53.0,53.0,,,,,,,,,1969.8621893839445,None,1.0,2.4788470750208944,1969.8621893839445,None,1969.8621893839445,None,1969.8621893839445,None,1,2022_Jul_08_0904,Semantic-hierachy,2021.1.2,60.03061363771692,
54,Trial # 55,layer0-5_O5_to_O9.jpg,layer0-5/layer0-5_O5_to_O9.jpg,OO,layer0-5,0.0,54.0,54.0,54.0,,,,,,,,,1975.2650040539447,None,1.0,1.7915097230579704,1975.2650040539447,None,1975.2650040539447,None,1975.2650040539447,None,1,2022_Jul_08_0904,Semantic-hierachy,2021.1.2,60.03061363771692,
55,Trial # 56,layer0-5_O1_to_O2.jpg,layer0-5/layer0-5_O1_to_O2.jpg,OO,layer0-5,0.0,55.0,55.0,55.0,,,,,,,,,1978.3480057979468,None,1.0,2.489253127016127,1978.3480057979468,None,1978.3480057979468,None,1978.3480057979468,None,1,2022_Jul_08_0904,Semantic-hierachy,2021.1.2,60.03061363771692,
56,Trial # 57,layer9-17_T12_to_T3.jpg,layer9-17/layer9-17_T12_to_T3.jpg,TT,layer9-17,0.0,56.0,56.0,56.0,,,,,,,,,1981.8834276460111,None,2.0,2.909873012918979,1981.8834276460111,None,1981.8834276460111,None,1981.8834276460111,None,1,2022_Jul_08_0904,Semantic-hierachy,2021.1.2,60.03061363771692,
57,Trial # 58,layer0-5_O7_to_O9.jpg,layer0-5/layer0-5_O7_to_O9.jpg,OO,layer0-5,0.0,57.0,57.0,57.0,,,,,,,,,1985.918163693976,None,1.0,1.7558220839127898,1985.918163693976,None,1985.918163693976,None,1985.918163693976,None,1,2022_Jul_08_0904,Semantic-hierachy,2021.1.2,60.03061363771692,
58,Trial # 59,layer0-5_T5_to_T9.jpg,layer0-5/layer0-5_T5_to_T9.jpg,TT,layer0-5,0.0,58.0,58.0,58.0,,,,,,,,,1988.4678230879365,None,1.0,1.40734496479854,1988.4678230879365,None,1988.4678230879365,None,1988.4678230879365,None,1,2022_Jul_08_0904,Semantic-hierachy,2021.1.2,60.03061363771692,
59,Trial # 60,layer9-17_O1_to_O9.jpg,layer9-17/layer9-17_O1_to_O9.jpg,OO,layer9-17,0.0,59.0,59.0,59.0,,,,,,,,,1991.0527372390495,None,3.0,60.94096057699062,1991.0527372390495,None,1991.0527372390495,None,1991.0527372390495,None,1,2022_Jul_08_0904,Semantic-hierachy,2021.1.2,60.03061363771692,
60,Trial # 61,layer0-5_O6_to_O7.jpg,layer0-5/layer0-5_O6_to_O7.jpg,OO,layer0-5,0.0,60.0,60.0,60.0,,,,,,,,,2062.3241391500924,None,1.0,2.8072830359451477,2062.3241391500924,None,2062.3241391500924,None,2062.3241391500924,None,1,2022_Jul_08_0904,Semantic-hierachy,2021.1.2,60.03061363771692,
61,Trial # 62,layer9-17_T5_to_T6.jpg,layer9-17/layer9-17_T5_to_T6.jpg,TT,layer9-17,0.0,61.0,61.0,61.0,,,,,,,,,2065.8931391849183,None,2.0,2.2724426079075783,2065.8931391849183,None,2065.8931391849183,None,2065.8931391849183,None,1,2022_Jul_08_0904,Semantic-hierachy,2021.1.2,60.03061363771692,
62,Trial # 63,layer9-17_T4_to_T9.jpg,layer9-17/layer9-17_T4_to_T9.jpg,TT,layer9-17,0.0,62.0,62.0,62.0,,,,,,,,,2069.326362801949,None,2.0,1.1148918480612338,2069.326362801949,None,2069.326362801949,None,2069.326362801949,None,1,2022_Jul_08_0904,Semantic-hierachy,2021.1.2,60.03061363771692,
63,Trial # 64,layer0-5_O11_to_T1.jpg,layer0-5/layer0-5_O11_to_T1.jpg,OT,layer0-5,0.0,63.0,63.0,63.0,,,,,,,,,2071.244706253987,None,1.0,1.464455955894664,2071.244706253987,None,2071.244706253987,None,2071.244706253987,None,1,2022_Jul_08_0904,Semantic-hierachy,2021.1.2,60.03061363771692,
64,Trial # 65,layer6-8_T5_to_T9.jpg,layer6-8/layer6-8_T5_to_T9.jpg,TT,layer6-8,0.0,64.0,64.0,64.0,,,,,,,,,2073.561304602073,None,3.0,91.34143234719522,2073.561304602073,None,2073.561304602073,None,2073.561304602073,None,1,2022_Jul_08_0904,Semantic-hierachy,2021.1.2,60.03061363771692,
65,Trial # 66,layer0-5_T4_to_T7.jpg,layer0-5/layer0-5_T4_to_T7.jpg,TT,layer0-5,0.0,65.0,65.0,65.0,,,,,,,,,2176.4938053980004,None,1.0,2.314624577993527,2176.4938053980004,None,2176.4938053980004,None,2176.4938053980004,None,1,2022_Jul_08_0904,Semantic-hierachy,2021.1.2,60.03061363771692,
66,Trial # 67,layer0-5_O2_to_O6.jpg,layer0-5/layer0-5_O2_to_O6.jpg,OO,layer0-5,0.0,66.0,66.0,66.0,,,,,,,,,2179.610263830982,None,1.0,1.1065760899800807,2179.610263830982,None,2179.610263830982,None,2179.610263830982,None,1,2022_Jul_08_0904,Semantic-hierachy,2021.1.2,60.03061363771692,
67,Trial # 68,layer9-17_O12_to_T3.jpg,layer9-17/layer9-17_O12_to_T3.jpg,OT,layer9-17,0.0,67.0,67.0,67.0,,,,,,,,,2181.4943307191133,None,2.0,1.8615215220488608,2181.4943307191133,None,2181.4943307191133,None,2181.4943307191133,None,1,2022_Jul_08_0904,Semantic-hierachy,2021.1.2,60.03061363771692,
68,Trial # 69,layer9-17_O7_to_O9.jpg,layer9-17/layer9-17_O7_to_O9.jpg,OO,layer9-17,0.0,68.0,68.0,68.0,,,,,,,,,2184.2617152850144,None,3.0,3.201043462846428,2184.2617152850144,None,2184.2617152850144,None,2184.2617152850144,None,1,2022_Jul_08_0904,Semantic-hierachy,2021.1.2,60.03061363771692,
69,Trial # 70,layer9-17_T1_to_T8.jpg,layer9-17/layer9-17_T1_to_T8.jpg,TT,layer9-17,0.0,69.0,69.0,69.0,,,,,,,,,2290.2780782680493,None,4.0,9.75647443300113,2290.2780782680493,None,2290.2780782680493,None,2290.2780782680493,None,1,2022_Jul_08_0904,Semantic-hierachy,2021.1.2,60.03061363771692,
70,Trial # 71,layer0-5_O3_to_T8.jpg,layer0-5/layer0-5_O3_to_T8.jpg,OT,layer0-5,0.0,70.0,70.0,70.0,,,,,,,,,2301.3824274600483,None,1.0,1.9714177390560508,2301.3824274600483,None,2301.3824274600483,None,2301.3824274600483,None,1,2022_Jul_08_0904,Semantic-hierachy,2021.1.2,60.03061363771692,
71,Trial # 72,layer9-17_O9_to_T2.jpg,layer9-17/layer9-17_O9_to_T2.jpg,OT,layer9-17,0.0,71.0,71.0,71.0,,,,,,,,,2304.516017905902,None,3.0,4.136871282011271,2304.516017905902,None,2304.516017905902,None,2304.516017905902,None,1,2022_Jul_08_0904,Semantic-hierachy,2021.1.2,60.03061363771692,
72,Trial # 73,layer9-17_O5_to_O7.jpg,layer9-17/layer9-17_O5_to_O7.jpg,OO,layer9-17,0.0,72.0,72.0,72.0,,,,,,,,,2312.634800523985,None,2.0,1.7602436188608408,2312.634800523985,None,2312.634800523985,None,2312.634800523985,None,1,2022_Jul_08_0904,Semantic-hierachy,2021.1.2,60.03061363771692,
73,Trial # 74,layer0-5_T11_to_T9.jpg,layer0-5/layer0-5_T11_to_T9.jpg,TT,layer0-5,0.0,73.0,73.0,73.0,,,,,,,,,2315.4366466959477,None,1.0,2.194786774925888,2315.4366466959477,None,2315.4366466959477,None,2315.4366466959477,None,1,2022_Jul_08_0904,Semantic-hierachy,2021.1.2,60.03061363771692,
74,Trial # 75,layer0-5_O11_to_T12.jpg,layer0-5/layer0-5_O11_to_T12.jpg,OT,layer0-5,0.0,74.0,74.0,74.0,,,,,,,,,2319.3534640721045,None,1.0,2.201893090968952,2319.3534640721045,None,2319.3534640721045,None,2319.3534640721045,None,1,2022_Jul_08_0904,Semantic-hierachy,2021.1.2,60.03061363771692,
75,Trial # 76,layer9-17_T7_to_T9.jpg,layer9-17/layer9-17_T7_to_T9.jpg,TT,layer9-17,0.0,75.0,75.0,75.0,,,,,,,,,2322.8220491209067,None,3.0,72.22521310206503,2322.8220491209067,None,2322.8220491209067,None,2322.8220491209067,None,1,2022_Jul_08_0904,Semantic-hierachy,2021.1.2,60.03061363771692,
76,Trial # 77,layer6-8_O6_to_T2.jpg,layer6-8/layer6-8_O6_to_T2.jpg,OT,layer6-8,0.0,76.0,76.0,76.0,,,,,,,,,2402.395767902024,None,3.0,16.600789092015475,2402.395767902024,None,2402.395767902024,None,2402.395767902024,None,1,2022_Jul_08_0904,Semantic-hierachy,2021.1.2,60.03061363771692,
77,Trial # 78,layer9-17_T4_to_T5.jpg,layer9-17/layer9-17_T4_to_T5.jpg,TT,layer9-17,0.0,77.0,77.0,77.0,,,,,,,,,2466.867140057031,None,2.0,5.406061000889167,2466.867140057031,None,2466.867140057031,None,2466.867140057031,None,1,2022_Jul_08_0904,Semantic-hierachy,2021.1.2,60.03061363771692,
78,Trial # 79,layer0-5_T2_to_T4.jpg,layer0-5/layer0-5_T2_to_T4.jpg,TT,layer0-5,0.0,78.0,78.0,78.0,,,,,,,,,2476.386678766925,None,1.0,2.7548328570555896,2476.386678766925,None,2476.386678766925,None,2476.386678766925,None,1,2022_Jul_08_0904,Semantic-hierachy,2021.1.2,60.03061363771692,
79,Trial # 80,layer0-5_T2_to_T8.jpg,layer0-5/layer0-5_T2_to_T8.jpg,TT,layer0-5,0.0,79.0,79.0,79.0,,,,,,,,,2480.5377890618984,None,1.0,1.310686876066029,2480.5377890618984,None,2480.5377890618984,None,2480.5377890618984,None,1,2022_Jul_08_0904,Semantic-hierachy,2021.1.2,60.03061363771692,
80,Trial # 81,layer9-17_T3_to_T9.jpg,layer9-17/layer9-17_T3_to_T9.jpg,TT,layer9-17,0.0,80.0,80.0,80.0,,,,,,,,,2482.7205809999723,None,2.0,3.2717771530151367,2482.7205809999723,None,2482.7205809999723,None,2482.7205809999723,None,1,2022_Jul_08_0904,Semantic-hierachy,2021.1.2,60.03061363771692,
81,Trial # 82,layer9-17_O2_to_O5.jpg,layer9-17/layer9-17_O2_to_O5.jpg,OO,layer9-17,0.0,81.0,81.0,81.0,,,,,,,,,2487.206520091044,None,2.0,2.5459453009534627,2487.206520091044,None,2487.206520091044,None,2487.206520091044,None,1,2022_Jul_08_0904,Semantic-hierachy,2021.1.2,60.03061363771692,
82,Trial # 83,layer6-8_O6_to_O7.jpg,layer6-8/layer6-8_O6_to_O7.jpg,OO,layer6-8,0.0,82.0,82.0,82.0,,,,,,,,,2490.8073162769438,None,3.0,12.73192103090696,2490.8073162769438,None,2490.8073162769438,None,2490.8073162769438,None,1,2022_Jul_08_0904,Semantic-hierachy,2021.1.2,60.03061363771692,
83,Trial # 84,layer9-17_O11_to_T1.jpg,layer9-17/layer9-17_O11_to_T1.jpg,OT,layer9-17,0.0,83.0,83.0,83.0,,,,,,,,,2615.412824738072,None,2.0,2.4528885139152408,2615.412824738072,None,2615.412824738072,None,2615.412824738072,None,1,2022_Jul_08_0904,Semantic-hierachy,2021.1.2,60.03061363771692,
84,Trial # 85,layer6-8_O5_to_T12.jpg,layer6-8/layer6-8_O5_to_T12.jpg,OT,layer6-8,0.0,84.0,84.0,84.0,,,,,,,,,2618.879540397087,None,3.0,1.958072324981913,2618.879540397087,None,2618.879540397087,None,2618.879540397087,None,1,2022_Jul_08_0904,Semantic-hierachy,2021.1.2,60.03061363771692,
85,Trial # 86,layer6-8_O4_to_O7.jpg,layer6-8/layer6-8_O4_to_O7.jpg,OO,layer6-8,0.0,85.0,85.0,85.0,,,,,,,,,2622.296955676982,None,4.0,15.232020038878543,2622.296955676982,None,2622.296955676982,None,2622.296955676982,None,1,2022_Jul_08_0904,Semantic-hierachy,2021.1.2,60.03061363771692,
86,Trial # 87,layer6-8_T10_to_T8.jpg,layer6-8/layer6-8_T10_to_T8.jpg,TT,layer6-8,0.0,86.0,86.0,86.0,,,,,,,,,2662.093973489013,None,2.0,5.270864990074188,2662.093973489013,None,2662.093973489013,None,2662.093973489013,None,1,2022_Jul_08_0904,Semantic-hierachy,2021.1.2,60.03061363771692,
87,Trial # 88,layer6-8_O10_to_T3.jpg,layer6-8/layer6-8_O10_to_T3.jpg,OT,layer6-8,0.0,87.0,87.0,87.0,,,,,,,,,2674.4137716509867,None,3.0,3.002216927008704,2674.4137716509867,None,2674.4137716509867,None,2674.4137716509867,None,1,2022_Jul_08_0904,Semantic-hierachy,2021.1.2,60.03061363771692,
88,Trial # 89,layer6-8_O5_to_O9.jpg,layer6-8/layer6-8_O5_to_O9.jpg,OO,layer6-8,0.0,88.0,88.0,88.0,,,,,,,,,2680.6998077179305,None,3.0,91.32411479507572,2680.6998077179305,None,2680.6998077179305,None,2680.6998077179305,None,1,2022_Jul_08_0904,Semantic-hierachy,2021.1.2,60.03061363771692,
89,Trial # 90,layer6-8_O10_to_O11.jpg,layer6-8/layer6-8_O10_to_O11.jpg,OO,layer6-8,0.0,89.0,89.0,89.0,,,,,,,,,2774.561000831891,None,3.0,9.913462121039627,2774.561000831891,None,2774.561000831891,None,2774.561000831891,None,1,2022_Jul_08_0904,Semantic-hierachy,2021.1.2,60.03061363771692,
90,Trial # 91,layer0-5_O4_to_T5.jpg,layer0-5/layer0-5_O4_to_T5.jpg,OT,layer0-5,0.0,90.0,90.0,90.0,,,,,,,,,2786.1324300209526,None,1.0,2.6476487130858004,2786.1324300209526,None,2786.1324300209526,None,2786.1324300209526,None,1,2022_Jul_08_0904,Semantic-hierachy,2021.1.2,60.03061363771692,
91,Trial # 92,layer0-5_T11_to_T12.jpg,layer0-5/layer0-5_T11_to_T12.jpg,TT,layer0-5,0.0,91.0,91.0,91.0,,,,,,,,,2789.798869098071,None,1.0,1.391410374082625,2789.798869098071,None,2789.798869098071,None,2789.798869098071,None,1,2022_Jul_08_0904,Semantic-hierachy,2021.1.2,60.03061363771692,
92,Trial # 93,layer0-5_T10_to_T3.jpg,layer0-5/layer0-5_T10_to_T3.jpg,TT,layer0-5,0.0,92.0,92.0,92.0,,,,,,,,,2791.967528621899,None,1.0,3.476320993155241,2791.967528621899,None,2791.967528621899,None,2791.967528621899,None,1,2022_Jul_08_0904,Semantic-hierachy,2021.1.2,60.03061363771692,
93,Trial # 94,layer0-5_O2_to_O8.jpg,layer0-5/layer0-5_O2_to_O8.jpg,OO,layer0-5,0.0,93.0,93.0,93.0,,,,,,,,,2796.467872411944,None,1.0,1.568280816078186,2796.467872411944,None,2796.467872411944,None,2796.467872411944,None,1,2022_Jul_08_0904,Semantic-hierachy,2021.1.2,60.03061363771692,
94,Trial # 95,layer0-5_T3_to_T8.jpg,layer0-5/layer0-5_T3_to_T8.jpg,TT,layer0-5,0.0,94.0,94.0,94.0,,,,,,,,,2799.001645822078,None,1.0,1.7400448450352997,2799.001645822078,None,2799.001645822078,None,2799.001645822078,None,1,2022_Jul_08_0904,Semantic-hierachy,2021.1.2,60.03061363771692,
95,Trial # 96,layer0-5_O7_to_O8.jpg,layer0-5/layer0-5_O7_to_O8.jpg,OO,layer0-5,0.0,95.0,95.0,95.0,,,,,,,,,2802.60337894992,None,1.0,2.993693934986368,2802.60337894992,None,2802.60337894992,None,2802.60337894992,None,1,2022_Jul_08_0904,Semantic-hierachy,2021.1.2,60.03061363771692,
96,Trial # 97,layer6-8_T10_to_T6.jpg,layer6-8/layer6-8_T10_to_T6.jpg,TT,layer6-8,0.0,96.0,96.0,96.0,,,,,,,,,2810.305351891089,None,2.0,2.170969679951668,2810.305351891089,None,2810.305351891089,None,2810.305351891089,None,1,2022_Jul_08_0904,Semantic-hierachy,2021.1.2,60.03061363771692,
97,Trial # 98,layer0-5_O1_to_O5.jpg,layer0-5/layer0-5_O1_to_O5.jpg,OO,layer0-5,0.0,97.0,97.0,97.0,,,,,,,,,2819.024577904027,None,1.0,1.6038709229324013,2819.024577904027,None,2819.024577904027,None,2819.024577904027,None,1,2022_Jul_08_0904,Semantic-hierachy,2021.1.2,60.03061363771692,
98,Trial # 99,layer6-8_O1_to_O6.jpg,layer6-8/layer6-8_O1_to_O6.jpg,OO,layer6-8,0.0,98.0,98.0,98.0,,,,,,,,,2821.609822836006,None,3.0,84.18729549297132,2821.609822836006,None,2821.609822836006,None,2821.609822836006,None,1,2022_Jul_08_0904,Semantic-hierachy,2021.1.2,60.03061363771692,
99,Trial # 100,layer6-8_O3_to_T1.jpg,layer6-8/layer6-8_O3_to_T1.jpg,OT,layer6-8,0.0,99.0,99.0,99.0,,,,,,,,,2972.3552508219145,None,3.0,4.423467526910827,2972.3552508219145,None,2972.3552508219145,None,2972.3552508219145,None,1,2022_Jul_08_0904,Semantic-hierachy,2021.1.2,60.03061363771692,
100,Trial # 101,layer6-8_T1_to_T9.jpg,layer6-8/layer6-8_T1_to_T9.jpg,TT,layer6-8,0.0,100.0,100.0,100.0,,,,,,,,,2984.175880972063,None,3.0,86.93348490493372,2984.175880972063,None,2984.175880972063,None,2984.175880972063,None,1,2022_Jul_08_0904,Semantic-hierachy,2021.1.2,60.03061363771692,
101,Trial # 102,layer9-17_O12_to_O6.jpg,layer9-17/layer9-17_O12_to_O6.jpg,OO,layer9-17,0.0,101.0,101.0,101.0,,,,,,,,,3082.4724161589984,None,2.0,2.309914294164628,3082.4724161589984,None,3082.4724161589984,None,3082.4724161589984,None,1,2022_Jul_08_0904,Semantic-hierachy,2021.1.2,60.03061363771692,
102,Trial # 103,layer0-5_T4_to_T9.jpg,layer0-5/layer0-5_T4_to_T9.jpg,TT,layer0-5,0.0,102.0,102.0,102.0,,,,,,,,,3086.29062594194,None,1.0,1.6097519109025598,3086.29062594194,None,3086.29062594194,None,3086.29062594194,None,1,2022_Jul_08_0904,Semantic-hierachy,2021.1.2,60.03061363771692,
103,Trial # 104,layer6-8_O10_to_T1.jpg,layer6-8/layer6-8_O10_to_T1.jpg,OT,layer6-8,0.0,103.0,103.0,103.0,,,,,,,,,3088.8910851438995,None,3.0,2.380778271937743,3088.8910851438995,None,3088.8910851438995,None,3088.8910851438995,None,1,2022_Jul_08_0904,Semantic-hierachy,2021.1.2,60.03061363771692,
104,Trial # 105,layer0-5_O6_to_T2.jpg,layer0-5/layer0-5_O6_to_T2.jpg,OT,layer0-5,0.0,104.0,104.0,104.0,,,,,,,,,3095.0434535320383,None,1.0,1.7136920341290534,3095.0434535320383,None,3095.0434535320383,None,3095.0434535320383,None,1,2022_Jul_08_0904,Semantic-hierachy,2021.1.2,60.03061363771692,
105,Trial # 106,layer9-17_T11_to_T2.jpg,layer9-17/layer9-17_T11_to_T2.jpg,TT,layer9-17,0.0,105.0,105.0,105.0,,,,,,,,,3097.827350890031,None,2.0,3.0547885769046843,3097.827350890031,None,3097.827350890031,None,3097.827350890031,None,1,2022_Jul_08_0904,Semantic-hierachy,2021.1.2,60.03061363771692,
106,Trial # 107,layer9-17_O12_to_O8.jpg,layer9-17/layer9-17_O12_to_O8.jpg,OO,layer9-17,0.0,106.0,106.0,106.0,,,,,,,,,3101.8134535229765,None,2.0,1.269523066934198,3101.8134535229765,None,3101.8134535229765,None,3101.8134535229765,None,1,2022_Jul_08_0904,Semantic-hierachy,2021.1.2,60.03061363771692,
107,Trial # 108,layer0-5_T12_to_T3.jpg,layer0-5/layer0-5_T12_to_T3.jpg,TT,layer0-5,0.0,107.0,107.0,107.0,,,,,,,,,3104.0958932449576,None,1.0,2.525699976133182,3104.0958932449576,None,3104.0958932449576,None,3104.0958932449576,None,1,2022_Jul_08_0904,Semantic-hierachy,2021.1.2,60.03061363771692,
108,Trial # 109,layer0-5_T1_to_T10.jpg,layer0-5/layer0-5_T1_to_T10.jpg,TT,layer0-5,0.0,108.0,108.0,108.0,,,,,,,,,3107.830443920102,None,1.0,1.0862920340150597,3107.830443920102,None,3107.830443920102,None,3107.830443920102,None,1,2022_Jul_08_0904,Semantic-hierachy,2021.1.2,60.03061363771692,
109,Trial # 110,layer6-8_O4_to_T5.jpg,layer6-8/layer6-8_O4_to_T5.jpg,OT,layer6-8,0.0,109.0,109.0,109.0,,,,,,,,,3109.8142227660865,None,3.0,2.5818579241167754,3109.8142227660865,None,3109.8142227660865,None,3109.8142227660865,None,1,2022_Jul_08_0904,Semantic-hierachy,2021.1.2,60.03061363771692,
110,Trial # 111,layer9-17_O11_to_O7.jpg,layer9-17/layer9-17_O11_to_O7.jpg,OO,layer9-17,0.0,110.0,110.0,110.0,,,,,,,,,3116.517722816905,None,2.0,2.0219597350806,3116.517722816905,None,3116.517722816905,None,3116.517722816905,None,1,2022_Jul_08_0904,Semantic-hierachy,2021.1.2,60.03061363771692,
111,Trial # 112,layer0-5_O5_to_O8.jpg,layer0-5/layer0-5_O5_to_O8.jpg,OO,layer0-5,0.0,111.0,111.0,111.0,,,,,,,,,3120.918207491049,None,1.0,1.6151655330322685,3120.918207491049,None,3120.918207491049,None,3120.918207491049,None,1,2022_Jul_08_0904,Semantic-hierachy,2021.1.2,60.03061363771692,
112,Trial # 113,layer0-5_O10_to_O4.jpg,layer0-5/layer0-5_O10_to_O4.jpg,OO,layer0-5,0.0,112.0,112.0,112.0,,,,,,,,,3123.3519807308912,None,1.0,1.2251786061096936,3123.3519807308912,None,3123.3519807308912,None,3123.3519807308912,None,1,2022_Jul_08_0904,Semantic-hierachy,2021.1.2,60.03061363771692,
113,Trial # 114,layer9-17_O4_to_O8.jpg,layer9-17/layer9-17_O4_to_O8.jpg,OO,layer9-17,0.0,113.0,113.0,113.0,,,,,,,,,3125.5700379149057,None,2.0,3.2093644621782005,3125.5700379149057,None,3125.5700379149057,None,3125.5700379149057,None,1,2022_Jul_08_0904,Semantic-hierachy,2021.1.2,60.03061363771692,
114,Trial # 115,layer0-5_O2_to_T8.jpg,layer0-5/layer0-5_O2_to_T8.jpg,OT,layer0-5,0.0,114.0,114.0,114.0,,,,,,,,,3130.3540829990525,None,1.0,1.6562595937866718,3130.3540829990525,None,3130.3540829990525,None,3130.3540829990525,None,1,2022_Jul_08_0904,Semantic-hierachy,2021.1.2,60.03061363771692,
115,Trial # 116,layer9-17_T2_to_T3.jpg,layer9-17/layer9-17_T2_to_T3.jpg,TT,layer9-17,0.0,115.0,115.0,115.0,,,,,,,,,3132.871785778086,None,2.0,1.8830209530424329,3132.871785778086,None,3132.871785778086,None,3132.871785778086,None,1,2022_Jul_08_0904,Semantic-hierachy,2021.1.2,60.03061363771692,
116,Trial # 117,layer6-8_O1_to_T10.jpg,layer6-8/layer6-8_O1_to_T10.jpg,OT,layer6-8,0.0,116.0,116.0,116.0,,,,,,,,,3135.989500657888,None,3.0,2.4570606409106404,3135.989500657888,None,3135.989500657888,None,3135.989500657888,None,1,2022_Jul_08_0904,Semantic-hierachy,2021.1.2,60.03061363771692,
117,Trial # 118,layer0-5_T3_to_T7.jpg,layer0-5/layer0-5_T3_to_T7.jpg,TT,layer0-5,0.0,117.0,117.0,117.0,,,,,,,,,3139.256830783095,None,1.0,2.304038421018049,3139.256830783095,None,3139.256830783095,None,3139.256830783095,None,1,2022_Jul_08_0904,Semantic-hierachy,2021.1.2,60.03061363771692,
118,Trial # 119,layer9-17_O1_to_O12.jpg,layer9-17/layer9-17_O1_to_O12.jpg,OO,layer9-17,0.0,118.0,118.0,118.0,,,,,,,,,3142.424689481966,None,2.0,1.9299669149331748,3142.424689481966,None,3142.424689481966,None,3142.424689481966,None,1,2022_Jul_08_0904,Semantic-hierachy,2021.1.2,60.03061363771692,
119,Trial # 120,layer6-8_O12_to_O2.jpg,layer6-8/layer6-8_O12_to_O2.jpg,OO,layer6-8,0.0,119.0,119.0,119.0,,,,,,,,,3145.2920052460395,None,4.0,72.31774163595401,3145.2920052460395,None,3145.2920052460395,None,3145.2920052460395,None,1,2022_Jul_08_0904,Semantic-hierachy,2021.1.2,60.03061363771692,
120,Trial # 121,layer9-17_O10_to_O9.jpg,layer9-17/layer9-17_O10_to_O9.jpg,OO,layer9-17,0.0,120.0,120.0,120.0,,,,,,,,,3219.7979841709603,None,2.0,2.305005612084642,3219.7979841709603,None,3219.7979841709603,None,3219.7979841709603,None,1,2022_Jul_08_0904,Semantic-hierachy,2021.1.2,60.03061363771692,
121,Trial # 122,layer6-8_O4_to_T10.jpg,layer6-8/layer6-8_O4_to_T10.jpg,OT,layer6-8,0.0,121.0,121.0,121.0,,,,,,,,,3222.93324119295,None,3.0,2.254472749074921,3222.93324119295,None,3222.93324119295,None,3222.93324119295,None,1,2022_Jul_08_0904,Semantic-hierachy,2021.1.2,60.03061363771692,
122,Trial # 123,layer6-8_O2_to_T3.jpg,layer6-8/layer6-8_O2_to_T3.jpg,OT,layer6-8,0.0,122.0,122.0,122.0,,,,,,,,,3228.067396606086,None,3.0,1.308461403939873,3228.067396606086,None,3228.067396606086,None,3228.067396606086,None,1,2022_Jul_08_0904,Semantic-hierachy,2021.1.2,60.03061363771692,
123,Trial # 124,layer0-5_O1_to_O7.jpg,layer0-5/layer0-5_O1_to_O7.jpg,OO,layer0-5,0.0,123.0,123.0,123.0,,,,,,,,,3230.6195806169417,None,1.0,1.546181898098439,3230.6195806169417,None,3230.6195806169417,None,3230.6195806169417,None,1,2022_Jul_08_0904,Semantic-hierachy,2021.1.2,60.03061363771692,
124,Trial # 125,layer0-5_T8_to_T9.jpg,layer0-5/layer0-5_T8_to_T9.jpg,TT,layer0-5,0.0,124.0,124.0,124.0,,,,,,,,,3232.968968098052,None,1.0,1.4471340109594166,3232.968968098052,None,3232.968968098052,None,3232.968968098052,None,1,2022_Jul_08_0904,Semantic-hierachy,2021.1.2,60.03061363771692,
125,Trial # 126,layer0-5_O12_to_T8.jpg,layer0-5/layer0-5_O12_to_T8.jpg,OT,layer0-5,0.0,125.0,125.0,125.0,,,,,,,,,3235.3533359880093,None,1.0,1.2273182179778814,3235.3533359880093,None,3235.3533359880093,None,3235.3533359880093,None,1,2022_Jul_08_0904,Semantic-hierachy,2021.1.2,60.03061363771692,
126,Trial # 127,layer9-17_O4_to_O6.jpg,layer9-17/layer9-17_O4_to_O6.jpg,OO,layer9-17,0.0,126.0,126.0,126.0,,,,,,,,,3237.5203608539887,None,2.0,2.008635503007099,3237.5203608539887,None,3237.5203608539887,None,3237.5203608539887,None,1,2022_Jul_08_0904,Semantic-hierachy,2021.1.2,60.03061363771692,
127,Trial # 128,layer6-8_O12_to_O6.jpg,layer6-8/layer6-8_O12_to_O6.jpg,OO,layer6-8,0.0,127.0,127.0,127.0,,,,,,,,,3241.1061499749776,None,3.0,4.004207446938381,3241.1061499749776,None,3241.1061499749776,None,3241.1061499749776,None,1,2022_Jul_08_0904,Semantic-hierachy,2021.1.2,60.03061363771692,
128,Trial # 129,layer0-5_T4_to_T6.jpg,layer0-5/layer0-5_T4_to_T6.jpg,TT,layer0-5,0.0,128.0,128.0,128.0,,,,,,,,,3248.9073598720133,None,1.0,1.8737059731502088,3248.9073598720133,None,3248.9073598720133,None,3248.9073598720133,None,1,2022_Jul_08_0904,Semantic-hierachy,2021.1.2,60.03061363771692,
129,Trial # 130,layer9-17_O1_to_O3.jpg,layer9-17/layer9-17_O1_to_O3.jpg,OO,layer9-17,0.0,129.0,129.0,129.0,,,,,,,,,3251.692584072938,None,2.0,1.5948304180055857,3251.692584072938,None,3251.692584072938,None,3251.692584072938,None,1,2022_Jul_08_0904,Semantic-hierachy,2021.1.2,60.03061363771692,
130,Trial # 131,layer9-17_O10_to_O3.jpg,layer9-17/layer9-17_O10_to_O3.jpg,OO,layer9-17,0.0,130.0,130.0,130.0,,,,,,,,,3254.4760737200268,None,2.0,1.0784801179543138,3254.4760737200268,None,3254.4760737200268,None,3254.4760737200268,None,1,2022_Jul_08_0904,Semantic-hierachy,2021.1.2,60.03061363771692,
131,Trial # 132,layer9-17_O12_to_O3.jpg,layer9-17/layer9-17_O12_to_O3.jpg,OO,layer9-17,0.0,131.0,131.0,131.0,,,,,,,,,3256.410896231886,None,2.0,1.1309832779224962,3256.410896231886,None,3256.410896231886,None,3256.410896231886,None,1,2022_Jul_08_0904,Semantic-hierachy,2021.1.2,60.03061363771692,
132,Trial # 133,layer9-17_O11_to_O4.jpg,layer9-17/layer9-17_O11_to_O4.jpg,OO,layer9-17,0.0,132.0,132.0,132.0,,,,,,,,,3260.2109059679788,None,2.0,12.856878551887348,3260.2109059679788,None,3260.2109059679788,None,3260.2109059679788,None,1,2022_Jul_08_0904,Semantic-hierachy,2021.1.2,60.03061363771692,
133,Trial # 134,layer9-17_T4_to_T7.jpg,layer9-17/layer9-17_T4_to_T7.jpg,TT,layer9-17,0.0,133.0,133.0,133.0,,,,,,,,,3300.873878091108,None,2.0,1.756752347107977,3300.873878091108,None,3300.873878091108,None,3300.873878091108,None,1,2022_Jul_08_0904,Semantic-hierachy,2021.1.2,60.03061363771692,
134,Trial # 135,layer9-17_O1_to_T1.jpg,layer9-17/layer9-17_O1_to_T1.jpg,OT,layer9-17,0.0,134.0,134.0,134.0,,,,,,,,,3303.924450633116,None,2.0,1.5323251229710877,3303.924450633116,None,3303.924450633116,None,3303.924450633116,None,1,2022_Jul_08_0904,Semantic-hierachy,2021.1.2,60.03061363771692,
135,Trial # 136,layer6-8_T2_to_T5.jpg,layer6-8/layer6-8_T2_to_T5.jpg,TT,layer6-8,0.0,135.0,135.0,135.0,,,,,,,,,3307.9089459879324,None,4.0,67.81435666186735,3307.9089459879324,None,3307.9089459879324,None,3307.9089459879324,None,1,2022_Jul_08_0904,Semantic-hierachy,2021.1.2,60.03061363771692,
136,Trial # 137,layer9-17_T11_to_T7.jpg,layer9-17/layer9-17_T11_to_T7.jpg,TT,layer9-17,0.0,136.0,136.0,136.0,,,,,,,,,3376.931365523953,None,2.0,2.1119752728845924,3376.931365523953,None,3376.931365523953,None,3376.931365523953,None,1,2022_Jul_08_0904,Semantic-hierachy,2021.1.2,60.03061363771692,
137,Trial # 138,layer6-8_O3_to_O8.jpg,layer6-8/layer6-8_O3_to_O8.jpg,OO,layer6-8,0.0,137.0,137.0,137.0,,,,,,,,,3382.366473633097,None,3.0,4.832123096100986,3382.366473633097,None,3382.366473633097,None,3382.366473633097,None,1,2022_Jul_08_0904,Semantic-hierachy,2021.1.2,60.03061363771692,
138,Trial # 139,layer6-8_O1_to_T7.jpg,layer6-8/layer6-8_O1_to_T7.jpg,OT,layer6-8,0.0,138.0,138.0,138.0,,,,,,,,,3392.668278844096,None,3.0,2.345217921072617,3392.668278844096,None,3392.668278844096,None,3392.668278844096,None,1,2022_Jul_08_0904,Semantic-hierachy,2021.1.2,60.03061363771692,
139,Trial # 140,layer9-17_T1_to_T3.jpg,layer9-17/layer9-17_T1_to_T3.jpg,TT,layer9-17,0.0,139.0,139.0,139.0,,,,,,,,,3397.371191185899,None,2.0,16.534882865846157,3397.371191185899,None,3397.371191185899,None,3397.371191185899,None,1,2022_Jul_08_0904,Semantic-hierachy,2021.1.2,60.03061363771692,
140,Trial # 141,layer6-8_O10_to_O12.jpg,layer6-8/layer6-8_O10_to_O12.jpg,OO,layer6-8,0.0,140.0,140.0,140.0,,,,,,,,,3416.177092806902,None,4.0,6.157575363991782,3416.177092806902,None,3416.177092806902,None,3416.177092806902,None,1,2022_Jul_08_0904,Semantic-hierachy,2021.1.2,60.03061363771692,
141,Trial # 142,layer6-8_O12_to_T11.jpg,layer6-8/layer6-8_O12_to_T11.jpg,OT,layer6-8,0.0,141.0,141.0,141.0,,,,,,,,,3431.281589919934,None,4.0,96.25624217605218,3431.281589919934,None,3431.281589919934,None,3431.281589919934,None,1,2022_Jul_08_0904,Semantic-hierachy,2021.1.2,60.03061363771692,
142,Trial # 143,layer0-5_O11_to_O5.jpg,layer0-5/layer0-5_O11_to_O5.jpg,OO,layer0-5,0.0,142.0,142.0,142.0,,,,,,,,,3528.7772143229377,None,1.0,3.057962925871834,3528.7772143229377,None,3528.7772143229377,None,3528.7772143229377,None,1,2022_Jul_08_0904,Semantic-hierachy,2021.1.2,60.03061363771692,
143,Trial # 144,layer6-8_O1_to_O8.jpg,layer6-8/layer6-8_O1_to_O8.jpg,OO,layer6-8,0.0,143.0,143.0,143.0,,,,,,,,,3533.228489164961,None,2.0,2.0452594000380486,3533.228489164961,None,3533.228489164961,None,3533.228489164961,None,1,2022_Jul_08_0904,Semantic-hierachy,2021.1.2,60.03061363771692,
144,Trial # 145,layer0-5_T2_to_T5.jpg,layer0-5/layer0-5_T2_to_T5.jpg,TT,layer0-5,0.0,144.0,144.0,144.0,,,,,,,,,3538.463484639069,None,1.0,2.374278479022905,3538.463484639069,None,3538.463484639069,None,3538.463484639069,None,1,2022_Jul_08_0904,Semantic-hierachy,2021.1.2,60.03061363771692,
145,Trial # 146,layer9-17_O8_to_T3.jpg,layer9-17/layer9-17_O8_to_T3.jpg,OT,layer9-17,0.0,145.0,145.0,145.0,,,,,,,,,3542.2325543418992,None,2.0,1.4812537841498852,3542.2325543418992,None,3542.2325543418992,None,3542.2325543418992,None,1,2022_Jul_08_0904,Semantic-hierachy,2021.1.2,60.03061363771692,
146,Trial # 147,layer9-17_O8_to_T4.jpg,layer9-17/layer9-17_O8_to_T4.jpg,OT,layer9-17,0.0,146.0,146.0,146.0,,,,,,,,,3544.5326245240867,None,3.0,2.816088407067582,3544.5326245240867,None,3544.5326245240867,None,3544.5326245240867,None,1,2022_Jul_08_0904,Semantic-hierachy,2021.1.2,60.03061363771692,
147,Trial # 148,layer9-17_O4_to_T9.jpg,layer9-17/layer9-17_O4_to_T9.jpg,OT,layer9-17,0.0,147.0,147.0,147.0,,,,,,,,,3560.6028988698963,None,2.0,2.3405553919728845,3560.6028988698963,None,3560.6028988698963,None,3560.6028988698963,None,1,2022_Jul_08_0904,Semantic-hierachy,2021.1.2,60.03061363771692,
148,Trial # 149,layer6-8_O4_to_O8.jpg,layer6-8/layer6-8_O4_to_O8.jpg,OO,layer6-8,0.0,148.0,148.0,148.0,,,,,,,,,3565.822047688067,None,3.0,3.357140155043453,3565.822047688067,None,3565.822047688067,None,3565.822047688067,None,1,2022_Jul_08_0904,Semantic-hierachy,2021.1.2,60.03061363771692,
149,Trial # 150,layer0-5_O12_to_T7.jpg,layer0-5/layer0-5_O12_to_T7.jpg,OT,layer0-5,0.0,149.0,149.0,149.0,,,,,,,,,3599.432190020103,None,1.0,2.587251627119258,3599.432190020103,None,3599.432190020103,None,3599.432190020103,None,1,2022_Jul_08_0904,Semantic-hierachy,2021.1.2,60.03061363771692,
150,Trial # 151,layer6-8_T1_to_T3.jpg,layer6-8/layer6-8_T1_to_T3.jpg,TT,layer6-8,,,,,0.0,0.0,0.0,0.0,,,,,3610.937232560013,None,3.0,82897.97110968502,3610.937232560013,None,3610.937232560013,None,3610.937232560013,None,1,2022_Jul_08_0904,Semantic-hierachy,2021.1.2,60.03061363771692,
151,Trial # 152,layer0-5_O8_to_O9.jpg,layer0-5/layer0-5_O8_to_O9.jpg,OO,layer0-5,,,,,0.0,1.0,1.0,1.0,,,,,86509.90174814197,None,1.0,1.8873986080288887,86509.90174814197,None,86509.90174814197,None,86509.90174814197,None,1,2022_Jul_08_0904,Semantic-hierachy,2021.1.2,60.03061363771692,
152,Trial # 153,layer9-17_T1_to_T5.jpg,layer9-17/layer9-17_T1_to_T5.jpg,TT,layer9-17,,,,,0.0,2.0,2.0,2.0,,,,,86512.38533554599,None,2.0,1.7271937741898,86512.38533554599,None,86512.38533554599,None,86512.38533554599,None,1,2022_Jul_08_0904,Semantic-hierachy,2021.1.2,60.03061363771692,
153,Trial # 154,layer6-8_T7_to_T9.jpg,layer6-8/layer6-8_T7_to_T9.jpg,TT,layer6-8,,,,,0.0,3.0,3.0,3.0,,,,,86514.55317678698,None,3.0,9.475165460957214,86514.55317678698,None,86514.55317678698,None,86514.55317678698,None,1,2022_Jul_08_0904,Semantic-hierachy,2021.1.2,60.03061363771692,
154,Trial # 155,layer9-17_T12_to_T7.jpg,layer9-17/layer9-17_T12_to_T7.jpg,TT,layer9-17,,,,,0.0,4.0,4.0,4.0,,,,,86525.40669322107,None,2.0,2.09873521910049,86525.40669322107,None,86525.40669322107,None,86525.40669322107,None,1,2022_Jul_08_0904,Semantic-hierachy,2021.1.2,60.03061363771692,
155,Trial # 156,layer0-5_O8_to_T11.jpg,layer0-5/layer0-5_O8_to_T11.jpg,OT,layer0-5,,,,,0.0,5.0,5.0,5.0,,,,,86529.82442404912,None,1.0,1.5744091179221869,86529.82442404912,None,86529.82442404912,None,86529.82442404912,None,1,2022_Jul_08_0904,Semantic-hierachy,2021.1.2,60.03061363771692,
156,Trial # 157,layer0-5_O1_to_O9.jpg,layer0-5/layer0-5_O1_to_O9.jpg,OO,layer0-5,,,,,0.0,6.0,6.0,6.0,,,,,86531.80902390508,None,1.0,1.5172013400588185,86531.80902390508,None,86531.80902390508,None,86531.80902390508,None,1,2022_Jul_08_0904,Semantic-hierachy,2021.1.2,60.03061363771692,
157,Trial # 158,layer0-5_O10_to_O12.jpg,layer0-5/layer0-5_O10_to_O12.jpg,OO,layer0-5,,,,,0.0,7.0,7.0,7.0,,,,,86533.6936256839,None,1.0,1.3095204420387745,86533.6936256839,None,86533.6936256839,None,86533.6936256839,None,1,2022_Jul_08_0904,Semantic-hierachy,2021.1.2,60.03061363771692,
158,Trial # 159,layer6-8_O10_to_T5.jpg,layer6-8/layer6-8_O10_to_T5.jpg,OT,layer6-8,,,,,0.0,8.0,8.0,8.0,,,,,86535.32621491095,None,3.0,7.491290742065757,86535.32621491095,None,86535.32621491095,None,86535.32621491095,None,1,2022_Jul_08_0904,Semantic-hierachy,2021.1.2,60.03061363771692,
159,Trial # 160,layer6-8_O5_to_O6.jpg,layer6-8/layer6-8_O5_to_O6.jpg,OO,layer6-8,,,,,0.0,9.0,9.0,9.0,,,,,86545.41287759808,None,2.0,12.749075541971251,86545.41287759808,None,86545.41287759808,None,86545.41287759808,None,1,2022_Jul_08_0904,Semantic-hierachy,2021.1.2,60.03061363771692,
160,Trial # 161,layer6-8_O6_to_T11.jpg,layer6-8/layer6-8_O6_to_T11.jpg,OT,layer6-8,,,,,0.0,10.0,10.0,10.0,,,,,86559.98366972804,None,2.0,1.4593386680353433,86559.98366972804,None,86559.98366972804,None,86559.98366972804,None,1,2022_Jul_08_0904,Semantic-hierachy,2021.1.2,60.03061363771692,
161,Trial # 162,layer9-17_O12_to_O9.jpg,layer9-17/layer9-17_O12_to_O9.jpg,OO,layer9-17,,,,,0.0,11.0,11.0,11.0,,,,,86562.53563889209,None,2.0,2.5461236629635096,86562.53563889209,None,86562.53563889209,None,86562.53563889209,None,1,2022_Jul_08_0904,Semantic-hierachy,2021.1.2,60.03061363771692,
162,Trial # 163,layer6-8_O12_to_T6.jpg,layer6-8/layer6-8_O12_to_T6.jpg,OT,layer6-8,,,,,0.0,12.0,12.0,12.0,,,,,86569.00470314198,None,4.0,2.2773414119146764,86569.00470314198,None,86569.00470314198,None,86569.00470314198,None,1,2022_Jul_08_0904,Semantic-hierachy,2021.1.2,60.03061363771692,
163,Trial # 164,layer0-5_T11_to_T7.jpg,layer0-5/layer0-5_T11_to_T7.jpg,TT,layer0-5,,,,,0.0,13.0,13.0,13.0,,,,,86571.63754525408,None,1.0,2.5956218489445746,86571.63754525408,None,86571.63754525408,None,86571.63754525408,None,1,2022_Jul_08_0904,Semantic-hierachy,2021.1.2,60.03061363771692,
164,Trial # 165,layer9-17_O10_to_T5.jpg,layer9-17/layer9-17_O10_to_T5.jpg,OT,layer9-17,,,,,0.0,14.0,14.0,14.0,,,,,86574.82165639894,None,3.0,38.86826402507722,86574.82165639894,None,86574.82165639894,None,86574.82165639894,None,1,2022_Jul_08_0904,Semantic-hierachy,2021.1.2,60.03061363771692,
165,Trial # 166,layer9-17_T1_to_T6.jpg,layer9-17/layer9-17_T1_to_T6.jpg,TT,layer9-17,,,,,0.0,15.0,15.0,15.0,,,,,86615.33440490207,None,2.0,1.5154476379975677,86615.33440490207,None,86615.33440490207,None,86615.33440490207,None,1,2022_Jul_08_0904,Semantic-hierachy,2021.1.2,60.03061363771692,
166,Trial # 167,layer0-5_T1_to_T3.jpg,layer0-5/layer0-5_T1_to_T3.jpg,TT,layer0-5,,,,,0.0,16.0,16.0,16.0,,,,,86617.2516813539,None,1.0,1.508523107971996,86617.2516813539,None,86617.2516813539,None,86617.2516813539,None,1,2022_Jul_08_0904,Semantic-hierachy,2021.1.2,60.03061363771692,
167,Trial # 168,layer0-5_O2_to_O9.jpg,layer0-5/layer0-5_O2_to_O9.jpg,OO,layer0-5,,,,,0.0,17.0,17.0,17.0,,,,,86619.07023418602,None,1.0,1.185552837094292,86619.07023418602,None,86619.07023418602,None,86619.07023418602,None,1,2022_Jul_08_0904,Semantic-hierachy,2021.1.2,60.03061363771692,
168,Trial # 169,layer9-17_O3_to_T4.jpg,layer9-17/layer9-17_O3_to_T4.jpg,OT,layer9-17,,,,,0.0,18.0,18.0,18.0,,,,,86620.56920145894,None,2.0,1.6747686800081285,86620.56920145894,None,86620.56920145894,None,86620.56920145894,None,1,2022_Jul_08_0904,Semantic-hierachy,2021.1.2,60.03061363771692,
169,Trial # 170,layer6-8_O11_to_O9.jpg,layer6-8/layer6-8_O11_to_O9.jpg,OO,layer6-8,,,,,0.0,19.0,19.0,19.0,,,,,86622.50441722898,None,3.0,2.611857902025804,86622.50441722898,None,86622.50441722898,None,86622.50441722898,None,1,2022_Jul_08_0904,Semantic-hierachy,2021.1.2,60.03061363771692,
170,Trial # 171,layer9-17_O1_to_O7.jpg,layer9-17/layer9-17_O1_to_O7.jpg,OO,layer9-17,,,,,0.0,20.0,20.0,20.0,,,,,86625.77087018406,None,3.0,12.396461120108142,86625.77087018406,None,86625.77087018406,None,86625.77087018406,None,1,2022_Jul_08_0904,Semantic-hierachy,2021.1.2,60.03061363771692,
171,Trial # 172,layer0-5_T12_to_T4.jpg,layer0-5/layer0-5_T12_to_T4.jpg,TT,layer0-5,,,,,0.0,21.0,21.0,21.0,,,,,86640.95863033808,None,1.0,1.6952011010143906,86640.95863033808,None,86640.95863033808,None,86640.95863033808,None,1,2022_Jul_08_0904,Semantic-hierachy,2021.1.2,60.03061363771692,
172,Trial # 173,layer0-5_O4_to_T4.jpg,layer0-5/layer0-5_O4_to_T4.jpg,OT,layer0-5,,,,,0.0,22.0,22.0,22.0,,,,,86643.24420526903,None,1.0,2.357859208015725,86643.24420526903,None,86643.24420526903,None,86643.24420526903,None,1,2022_Jul_08_0904,Semantic-hierachy,2021.1.2,60.03061363771692,
173,Trial # 174,layer6-8_T12_to_T5.jpg,layer6-8/layer6-8_T12_to_T5.jpg,TT,layer6-8,,,,,0.0,23.0,23.0,23.0,,,,,86646.42716754111,None,3.0,9.469121258938683,86646.42716754111,None,86646.42716754111,None,86646.42716754111,None,1,2022_Jul_08_0904,Semantic-hierachy,2021.1.2,60.03061363771692,
174,Trial # 175,layer6-8_O11_to_T1.jpg,layer6-8/layer6-8_O11_to_T1.jpg,OT,layer6-8,,,,,0.0,24.0,24.0,24.0,,,,,86657.16399495304,None,1.0,4.558088838122785,86657.16399495304,None,86657.16399495304,None,86657.16399495304,None,1,2022_Jul_08_0904,Semantic-hierachy,2021.1.2,60.03061363771692,
175,Trial # 176,layer0-5_O7_to_T8.jpg,layer0-5/layer0-5_O7_to_T8.jpg,OT,layer0-5,,,,,0.0,25.0,25.0,25.0,,,,,86664.76604369609,None,1.0,1.911009833915159,86664.76604369609,None,86664.76604369609,None,86664.76604369609,None,1,2022_Jul_08_0904,Semantic-hierachy,2021.1.2,60.03061363771692,
176,Trial # 177,layer0-5_O11_to_T5.jpg,layer0-5/layer0-5_O11_to_T5.jpg,OT,layer0-5,,,,,0.0,26.0,26.0,26.0,,,,,86667.033579048,None,1.0,0.996871953131631,86667.033579048,None,86667.033579048,None,86667.033579048,None,1,2022_Jul_08_0904,Semantic-hierachy,2021.1.2,60.03061363771692,
177,Trial # 178,layer9-17_O2_to_T2.jpg,layer9-17/layer9-17_O2_to_T2.jpg,OT,layer9-17,,,,,0.0,27.0,27.0,27.0,,,,,86668.43512999499,None,2.0,21.947084710001945,86668.43512999499,None,86668.43512999499,None,86668.43512999499,None,1,2022_Jul_08_0904,Semantic-hierachy,2021.1.2,60.03061363771692,
178,Trial # 179,layer0-5_O4_to_T9.jpg,layer0-5/layer0-5_O4_to_T9.jpg,OT,layer0-5,,,,,0.0,28.0,28.0,28.0,,,,,86691.29103921703,None,1.0,1.31142582395114,86691.29103921703,None,86691.29103921703,None,86691.29103921703,None,1,2022_Jul_08_0904,Semantic-hierachy,2021.1.2,60.03061363771692,
179,Trial # 180,layer9-17_T6_to_T8.jpg,layer9-17/layer9-17_T6_to_T8.jpg,TT,layer9-17,,,,,0.0,29.0,29.0,29.0,,,,,86692.89263907797,None,2.0,1.5949795600026846,86692.89263907797,None,86692.89263907797,None,86692.89263907797,None,1,2022_Jul_08_0904,Semantic-hierachy,2021.1.2,60.03061363771692,
180,Trial # 181,layer9-17_O12_to_O5.jpg,layer9-17/layer9-17_O12_to_O5.jpg,OO,layer9-17,,,,,0.0,30.0,30.0,30.0,,,,,86694.72525210609,None,2.0,1.0817379450891167,86694.72525210609,None,86694.72525210609,None,86694.72525210609,None,1,2022_Jul_08_0904,Semantic-hierachy,2021.1.2,60.03061363771692,
181,Trial # 182,layer6-8_O1_to_O7.jpg,layer6-8/layer6-8_O1_to_O7.jpg,OO,layer6-8,,,,,0.0,31.0,31.0,31.0,,,,,86696.1425197781,None,4.0,5.760202706092969,86696.1425197781,None,86696.1425197781,None,86696.1425197781,None,1,2022_Jul_08_0904,Semantic-hierachy,2021.1.2,60.03061363771692,
182,Trial # 183,layer6-8_O3_to_T10.jpg,layer6-8/layer6-8_O3_to_T10.jpg,OT,layer6-8,,,,,0.0,32.0,32.0,32.0,,,,,86703.74569269991,None,3.0,8.559294961160049,86703.74569269991,None,86703.74569269991,None,86703.74569269991,None,1,2022_Jul_08_0904,Semantic-hierachy,2021.1.2,60.03061363771692,
183,Trial # 184,layer0-5_O1_to_T11.jpg,layer0-5/layer0-5_O1_to_T11.jpg,OT,layer0-5,,,,,0.0,33.0,33.0,33.0,,,,,86713.88263799204,None,1.0,1.4741287720389664,86713.88263799204,None,86713.88263799204,None,86713.88263799204,None,1,2022_Jul_08_0904,Semantic-hierachy,2021.1.2,60.03061363771692,
184,Trial # 185,layer6-8_O8_to_O9.jpg,layer6-8/layer6-8_O8_to_O9.jpg,OO,layer6-8,,,,,0.0,34.0,34.0,34.0,,,,,86716.34879190708,None,3.0,2.342362025054172,86716.34879190708,None,86716.34879190708,None,86716.34879190708,None,1,2022_Jul_08_0904,Semantic-hierachy,2021.1.2,60.03061363771692,
185,Trial # 186,layer9-17_O4_to_O9.jpg,layer9-17/layer9-17_O4_to_O9.jpg,OO,layer9-17,,,,,0.0,35.0,35.0,35.0,,,,,86722.1171193039,None,2.0,2.6078483150340617,86722.1171193039,None,86722.1171193039,None,86722.1171193039,None,1,2022_Jul_08_0904,Semantic-hierachy,2021.1.2,60.03061363771692,
186,Trial # 187,layer0-5_O12_to_O5.jpg,layer0-5/layer0-5_O12_to_O5.jpg,OO,layer0-5,,,,,0.0,36.0,36.0,36.0,,,,,86734.10430700099,None,1.0,1.6377662708982823,86734.10430700099,None,86734.10430700099,None,86734.10430700099,None,1,2022_Jul_08_0904,Semantic-hierachy,2021.1.2,60.03061363771692,
187,Trial # 188,layer6-8_T12_to_T4.jpg,layer6-8/layer6-8_T12_to_T4.jpg,TT,layer6-8,,,,,0.0,37.0,37.0,37.0,,,,,86736.73846510192,None,2.0,27.37794028408825,86736.73846510192,None,86736.73846510192,None,86736.73846510192,None,1,2022_Jul_08_0904,Semantic-hierachy,2021.1.2,60.03061363771692,
188,Trial # 189,layer0-5_T6_to_T8.jpg,layer0-5/layer0-5_T6_to_T8.jpg,TT,layer0-5,,,,,0.0,38.0,38.0,38.0,,,,,86776.2514360391,None,1.0,1.5801942241378129,86776.2514360391,None,86776.2514360391,None,86776.2514360391,None,1,2022_Jul_08_0904,Semantic-hierachy,2021.1.2,60.03061363771692,
189,Trial # 190,layer6-8_O11_to_T2.jpg,layer6-8/layer6-8_O11_to_T2.jpg,OT,layer6-8,,,,,0.0,39.0,39.0,39.0,,,,,86778.184983287,None,1.0,22.1984131319914,86778.184983287,None,86778.184983287,None,86778.184983287,None,1,2022_Jul_08_0904,Semantic-hierachy,2021.1.2,60.03061363771692,
190,Trial # 191,layer6-8_O1_to_O3.jpg,layer6-8/layer6-8_O1_to_O3.jpg,OO,layer6-8,,,,,0.0,40.0,40.0,40.0,,,,,86802.42532859696,None,4.0,9.081194676924495,86802.42532859696,None,86802.42532859696,None,86802.42532859696,None,1,2022_Jul_08_0904,Semantic-hierachy,2021.1.2,60.03061363771692,
191,Trial # 192,layer0-5_O7_to_T1.jpg,layer0-5/layer0-5_O7_to_T1.jpg,OT,layer0-5,,,,,0.0,41.0,41.0,41.0,,,,,86813.56304614898,None,1.0,1.6076967890840024,86813.56304614898,None,86813.56304614898,None,86813.56304614898,None,1,2022_Jul_08_0904,Semantic-hierachy,2021.1.2,60.03061363771692,
192,Trial # 193,layer6-8_O3_to_T7.jpg,layer6-8/layer6-8_O3_to_T7.jpg,OT,layer6-8,,,,,0.0,42.0,42.0,42.0,,,,,86815.49600064498,None,3.0,1.90376017591916,86815.49600064498,None,86815.49600064498,None,86815.49600064498,None,1,2022_Jul_08_0904,Semantic-hierachy,2021.1.2,60.03061363771692,
193,Trial # 194,layer9-17_T10_to_T6.jpg,layer9-17/layer9-17_T10_to_T6.jpg,TT,layer9-17,,,,,0.0,43.0,43.0,43.0,,,,,86817.69699811796,None,2.0,1.6753068789839745,86817.69699811796,None,86817.69699811796,None,86817.69699811796,None,1,2022_Jul_08_0904,Semantic-hierachy,2021.1.2,60.03061363771692,
194,Trial # 195,layer6-8_T2_to_T9.jpg,layer6-8/layer6-8_T2_to_T9.jpg,TT,layer6-8,,,,,0.0,44.0,44.0,44.0,,,,,86819.714027168,None,4.0,4.271761324023828,86819.714027168,None,86819.714027168,None,86819.714027168,None,1,2022_Jul_08_0904,Semantic-hierachy,2021.1.2,60.03061363771692,
195,Trial # 196,layer0-5_O3_to_T3.jpg,layer0-5/layer0-5_O3_to_T3.jpg,OT,layer0-5,,,,,0.0,45.0,45.0,45.0,,,,,86824.36589079397,None,1.0,1.7528624930419028,86824.36589079397,None,86824.36589079397,None,86824.36589079397,None,1,2022_Jul_08_0904,Semantic-hierachy,2021.1.2,60.03061363771692,
196,Trial # 197,layer9-17_O1_to_O2.jpg,layer9-17/layer9-17_O1_to_O2.jpg,OO,layer9-17,,,,,0.0,46.0,46.0,46.0,,,,,86826.83285445604,None,2.0,7.508081380045041,86826.83285445604,None,86826.83285445604,None,86826.83285445604,None,1,2022_Jul_08_0904,Semantic-hierachy,2021.1.2,60.03061363771692,
197,Trial # 198,layer9-17_T2_to_T9.jpg,layer9-17/layer9-17_T2_to_T9.jpg,TT,layer9-17,,,,,0.0,47.0,47.0,47.0,,,,,86837.06892849295,None,2.0,3.031759955920279,86837.06892849295,None,86837.06892849295,None,86837.06892849295,None,1,2022_Jul_08_0904,Semantic-hierachy,2021.1.2,60.03061363771692,
198,Trial # 199,layer9-17_O6_to_T10.jpg,layer9-17/layer9-17_O6_to_T10.jpg,OT,layer9-17,,,,,0.0,48.0,48.0,48.0,,,,,86841.1036813641,None,2.0,1.6198284570127726,86841.1036813641,None,86841.1036813641,None,86841.1036813641,None,1,2022_Jul_08_0904,Semantic-hierachy,2021.1.2,60.03061363771692,
199,Trial # 200,layer0-5_T12_to_T5.jpg,layer0-5/layer0-5_T12_to_T5.jpg,TT,layer0-5,,,,,0.0,49.0,49.0,49.0,,,,,86843.339058246,None,1.0,1.8270997169893235,86843.339058246,None,86843.339058246,None,86843.339058246,None,1,2022_Jul_08_0904,Semantic-hierachy,2021.1.2,60.03061363771692,
200,Trial # 201,layer0-5_O10_to_T10.jpg,layer0-5/layer0-5_O10_to_T10.jpg,OT,layer0-5,,,,,0.0,50.0,50.0,50.0,,,,,86845.40535826492,None,1.0,1.6869318441022187,86845.40535826492,None,86845.40535826492,None,86845.40535826492,None,1,2022_Jul_08_0904,Semantic-hierachy,2021.1.2,60.03061363771692,
201,Trial # 202,layer9-17_T11_to_T12.jpg,layer9-17/layer9-17_T11_to_T12.jpg,TT,layer9-17,,,,,0.0,51.0,51.0,51.0,,,,,86847.80723470799,None,2.0,1.8183460598811507,86847.80723470799,None,86847.80723470799,None,86847.80723470799,None,1,2022_Jul_08_0904,Semantic-hierachy,2021.1.2,60.03061363771692,
202,Trial # 203,layer6-8_T3_to_T5.jpg,layer6-8/layer6-8_T3_to_T5.jpg,TT,layer6-8,,,,,0.0,52.0,52.0,52.0,,,,,86850.14111492899,None,3.0,8.072970140026882,86850.14111492899,None,86850.14111492899,None,86850.14111492899,None,1,2022_Jul_08_0904,Semantic-hierachy,2021.1.2,60.03061363771692,
203,Trial # 204,layer0-5_O5_to_T10.jpg,layer0-5/layer0-5_O5_to_T10.jpg,OT,layer0-5,,,,,0.0,53.0,53.0,53.0,,,,,86861.67684785696,None,1.0,2.163023730041459,86861.67684785696,None,86861.67684785696,None,86861.67684785696,None,1,2022_Jul_08_0904,Semantic-hierachy,2021.1.2,60.03061363771692,
204,Trial # 205,layer0-5_O10_to_O5.jpg,layer0-5/layer0-5_O10_to_O5.jpg,OO,layer0-5,,,,,0.0,54.0,54.0,54.0,,,,,86864.41116352193,None,1.0,1.575222657993436,86864.41116352193,None,86864.41116352193,None,86864.41116352193,None,1,2022_Jul_08_0904,Semantic-hierachy,2021.1.2,60.03061363771692,
205,Trial # 206,layer0-5_O5_to_O7.jpg,layer0-5/layer0-5_O5_to_O7.jpg,OO,layer0-5,,,,,0.0,55.0,55.0,55.0,,,,,86866.378404547,None,1.0,0.9950354769825936,86866.378404547,None,86866.378404547,None,86866.378404547,None,1,2022_Jul_08_0904,Semantic-hierachy,2021.1.2,60.03061363771692,
206,Trial # 207,layer0-5_O3_to_T10.jpg,layer0-5/layer0-5_O3_to_T10.jpg,OT,layer0-5,,,,,0.0,56.0,56.0,56.0,,,,,86867.81339370296,None,1.0,1.678795296931639,86867.81339370296,None,86867.81339370296,None,86867.81339370296,None,1,2022_Jul_08_0904,Semantic-hierachy,2021.1.2,60.03061363771692,
207,Trial # 208,layer0-5_O4_to_O5.jpg,layer0-5/layer0-5_O4_to_O5.jpg,OO,layer0-5,,,,,0.0,57.0,57.0,57.0,,,,,86870.56316686398,None,1.0,1.0852870061062276,86870.56316686398,None,86870.56316686398,None,86870.56316686398,None,1,2022_Jul_08_0904,Semantic-hierachy,2021.1.2,60.03061363771692,
208,Trial # 209,layer6-8_T12_to_T3.jpg,layer6-8/layer6-8_T12_to_T3.jpg,TT,layer6-8,,,,,0.0,58.0,58.0,58.0,,,,,86872.3636675789,None,2.0,2.343021127162501,86872.3636675789,None,86872.3636675789,None,86872.3636675789,None,1,2022_Jul_08_0904,Semantic-hierachy,2021.1.2,60.03061363771692,
209,Trial # 210,layer6-8_O7_to_T9.jpg,layer6-8/layer6-8_O7_to_T9.jpg,OT,layer6-8,,,,,0.0,59.0,59.0,59.0,,,,,86878.28334667394,None,3.0,2.189994802931324,86878.28334667394,None,86878.28334667394,None,86878.28334667394,None,1,2022_Jul_08_0904,Semantic-hierachy,2021.1.2,60.03061363771692,
210,Trial # 211,layer6-8_O1_to_O11.jpg,layer6-8/layer6-8_O1_to_O11.jpg,OO,layer6-8,,,,,0.0,60.0,60.0,60.0,,,,,86883.61804182595,None,3.0,4.946260405005887,86883.61804182595,None,86883.61804182595,None,86883.61804182595,None,1,2022_Jul_08_0904,Semantic-hierachy,2021.1.2,60.03061363771692,
211,Trial # 212,layer6-8_T2_to_T6.jpg,layer6-8/layer6-8_T2_to_T6.jpg,TT,layer6-8,,,,,0.0,61.0,61.0,61.0,,,,,86892.03637777106,None,3.0,3.9606732630636543,86892.03637777106,None,86892.03637777106,None,86892.03637777106,None,1,2022_Jul_08_0904,Semantic-hierachy,2021.1.2,60.03061363771692,
212,Trial # 213,layer6-8_O10_to_O6.jpg,layer6-8/layer6-8_O10_to_O6.jpg,OO,layer6-8,,,,,0.0,62.0,62.0,62.0,,,,,86897.705885445,None,3.0,12.993913414888084,86897.705885445,None,86897.705885445,None,86897.705885445,None,1,2022_Jul_08_0904,Semantic-hierachy,2021.1.2,60.03061363771692,
213,Trial # 214,layer9-17_T5_to_T8.jpg,layer9-17/layer9-17_T5_to_T8.jpg,TT,layer9-17,,,,,0.0,63.0,63.0,63.0,,,,,86913.91083878395,None,2.0,1.95998416794464,86913.91083878395,None,86913.91083878395,None,86913.91083878395,None,1,2022_Jul_08_0904,Semantic-hierachy,2021.1.2,60.03061363771692,
214,Trial # 215,layer9-17_O3_to_T10.jpg,layer9-17/layer9-17_O3_to_T10.jpg,OT,layer9-17,,,,,0.0,64.0,64.0,64.0,,,,,86918.41239638394,None,2.0,1.3063031448982656,86918.41239638394,None,86918.41239638394,None,86918.41239638394,None,1,2022_Jul_08_0904,Semantic-hierachy,2021.1.2,60.03061363771692,
215,Trial # 216,layer6-8_O12_to_O3.jpg,layer6-8/layer6-8_O12_to_O3.jpg,OO,layer6-8,,,,,0.0,65.0,65.0,65.0,,,,,86920.57845365093,None,4.0,3.522752456134185,86920.57845365093,None,86920.57845365093,None,86920.57845365093,None,1,2022_Jul_08_0904,Semantic-hierachy,2021.1.2,60.03061363771692,
216,Trial # 217,layer0-5_T10_to_T2.jpg,layer0-5/layer0-5_T10_to_T2.jpg,TT,layer0-5,,,,,0.0,66.0,66.0,66.0,,,,,86926.39742918289,None,1.0,1.8277245829813185,86926.39742918289,None,86926.39742918289,None,86926.39742918289,None,1,2022_Jul_08_0904,Semantic-hierachy,2021.1.2,60.03061363771692,
217,Trial # 218,layer9-17_O10_to_O6.jpg,layer9-17/layer9-17_O10_to_O6.jpg,OO,layer9-17,,,,,0.0,67.0,67.0,67.0,,,,,86928.5812513039,None,4.0,22.118188311113045,86928.5812513039,None,86928.5812513039,None,86928.5812513039,None,1,2022_Jul_08_0904,Semantic-hierachy,2021.1.2,60.03061363771692,
218,Trial # 219,layer6-8_O6_to_O9.jpg,layer6-8/layer6-8_O6_to_O9.jpg,OO,layer6-8,,,,,0.0,68.0,68.0,68.0,,,,,86977.61369192903,None,3.0,3.0215335919056088,86977.61369192903,None,86977.61369192903,None,86977.61369192903,None,1,2022_Jul_08_0904,Semantic-hierachy,2021.1.2,60.03061363771692,
219,Trial # 220,layer0-5_O7_to_T2.jpg,layer0-5/layer0-5_O7_to_T2.jpg,OT,layer0-5,,,,,0.0,69.0,69.0,69.0,,,,,86982.89896170911,None,1.0,1.7313953679986298,86982.89896170911,None,86982.89896170911,None,86982.89896170911,None,1,2022_Jul_08_0904,Semantic-hierachy,2021.1.2,60.03061363771692,
220,Trial # 221,layer9-17_T12_to_T2.jpg,layer9-17/layer9-17_T12_to_T2.jpg,TT,layer9-17,,,,,0.0,70.0,70.0,70.0,,,,,86984.86506993207,None,2.0,2.611985113006085,86984.86506993207,None,86984.86506993207,None,86984.86506993207,None,1,2022_Jul_08_0904,Semantic-hierachy,2021.1.2,60.03061363771692,
221,Trial # 222,layer9-17_O8_to_T11.jpg,layer9-17/layer9-17_O8_to_T11.jpg,OT,layer9-17,,,,,0.0,71.0,71.0,71.0,,,,,86993.36855526199,None,3.0,56.073609590064734,86993.36855526199,None,86993.36855526199,None,86993.36855526199,None,1,2022_Jul_08_0904,Semantic-hierachy,2021.1.2,60.03061363771692,
222,Trial # 223,layer6-8_O3_to_T9.jpg,layer6-8/layer6-8_O3_to_T9.jpg,OT,layer6-8,,,,,0.0,72.0,72.0,72.0,,,,,87051.13543057302,None,3.0,4.650438832119107,87051.13543057302,None,87051.13543057302,None,87051.13543057302,None,1,2022_Jul_08_0904,Semantic-hierachy,2021.1.2,60.03061363771692,
223,Trial # 224,layer0-5_O6_to_O9.jpg,layer0-5/layer0-5_O6_to_O9.jpg,OO,layer0-5,,,,,0.0,73.0,73.0,73.0,,,,,87057.63866592897,None,1.0,1.910950337070972,87057.63866592897,None,87057.63866592897,None,87057.63866592897,None,1,2022_Jul_08_0904,Semantic-hierachy,2021.1.2,60.03061363771692,
224,Trial # 225,layer0-5_O12_to_T1.jpg,layer0-5/layer0-5_O12_to_T1.jpg,OT,layer0-5,,,,,0.0,74.0,74.0,74.0,,,,,87060.20476162992,None,1.0,1.364076109835878,87060.20476162992,None,87060.20476162992,None,87060.20476162992,None,1,2022_Jul_08_0904,Semantic-hierachy,2021.1.2,60.03061363771692,
225,Trial # 226,layer9-17_O2_to_T8.jpg,layer9-17/layer9-17_O2_to_T8.jpg,OT,layer9-17,,,,,0.0,75.0,75.0,75.0,,,,,87062.47282733396,None,2.0,1.573074997868389,87062.47282733396,None,87062.47282733396,None,87062.47282733396,None,1,2022_Jul_08_0904,Semantic-hierachy,2021.1.2,60.03061363771692,
226,Trial # 227,layer0-5_T4_to_T8.jpg,layer0-5/layer0-5_T4_to_T8.jpg,TT,layer0-5,,,,,0.0,76.0,76.0,76.0,,,,,87066.07322211098,None,1.0,1.3070997290778903,87066.07322211098,None,87066.07322211098,None,87066.07322211098,None,1,2022_Jul_08_0904,Semantic-hierachy,2021.1.2,60.03061363771692,
227,Trial # 228,layer9-17_O2_to_T1.jpg,layer9-17/layer9-17_O2_to_T1.jpg,OT,layer9-17,,,,,0.0,77.0,77.0,77.0,,,,,87067.7242552361,None,2.0,1.8972570719197392,87067.7242552361,None,87067.7242552361,None,87067.7242552361,None,1,2022_Jul_08_0904,Semantic-hierachy,2021.1.2,60.03061363771692,
228,Trial # 229,layer0-5_O11_to_O7.jpg,layer0-5/layer0-5_O11_to_O7.jpg,OO,layer0-5,,,,,0.0,78.0,78.0,78.0,,,,,87072.85901449807,None,1.0,1.4284605060238391,87072.85901449807,None,87072.85901449807,None,87072.85901449807,None,1,2022_Jul_08_0904,Semantic-hierachy,2021.1.2,60.03061363771692,
229,Trial # 230,layer6-8_T2_to_T8.jpg,layer6-8/layer6-8_T2_to_T8.jpg,TT,layer6-8,,,,,0.0,79.0,79.0,79.0,,,,,87074.67616501194,None,3.0,2.670623127836734,87074.67616501194,None,87074.67616501194,None,87074.67616501194,None,1,2022_Jul_08_0904,Semantic-hierachy,2021.1.2,60.03061363771692,
230,Trial # 231,layer9-17_T4_to_T8.jpg,layer9-17/layer9-17_T4_to_T8.jpg,TT,layer9-17,,,,,0.0,80.0,80.0,80.0,,,,,87082.76209698291,None,2.0,1.9146688480395824,87082.76209698291,None,87082.76209698291,None,87082.76209698291,None,1,2022_Jul_08_0904,Semantic-hierachy,2021.1.2,60.03061363771692,
231,Trial # 232,layer9-17_T11_to_T3.jpg,layer9-17/layer9-17_T11_to_T3.jpg,TT,layer9-17,,,,,0.0,81.0,81.0,81.0,,,,,87085.27897006692,None,2.0,1.327732210047543,87085.27897006692,None,87085.27897006692,None,87085.27897006692,None,1,2022_Jul_08_0904,Semantic-hierachy,2021.1.2,60.03061363771692,
232,Trial # 233,layer0-5_O3_to_T9.jpg,layer0-5/layer0-5_O3_to_T9.jpg,OT,layer0-5,,,,,0.0,82.0,82.0,82.0,,,,,87086.89635354606,None,1.0,1.7160487819928676,87086.89635354606,None,87086.89635354606,None,87086.89635354606,None,1,2022_Jul_08_0904,Semantic-hierachy,2021.1.2,60.03061363771692,
233,Trial # 234,layer9-17_T7_to_T8.jpg,layer9-17/layer9-17_T7_to_T8.jpg,TT,layer9-17,,,,,0.0,83.0,83.0,83.0,,,,,87089.8640624641,None,3.0,26.001251018140465,87089.8640624641,None,87089.8640624641,None,87089.8640624641,None,1,2022_Jul_08_0904,Semantic-hierachy,2021.1.2,60.03061363771692,
234,Trial # 235,layer9-17_O3_to_O4.jpg,layer9-17/layer9-17_O3_to_O4.jpg,OO,layer9-17,,,,,0.0,84.0,84.0,84.0,,,,,87133.81220450811,None,2.0,1.509274773998186,87133.81220450811,None,87133.81220450811,None,87133.81220450811,None,1,2022_Jul_08_0904,Semantic-hierachy,2021.1.2,60.03061363771692,
235,Trial # 236,layer6-8_O8_to_T6.jpg,layer6-8/layer6-8_O8_to_T6.jpg,OT,layer6-8,,,,,0.0,85.0,85.0,85.0,,,,,87135.66147288191,None,3.0,1.7440001459326595,87135.66147288191,None,87135.66147288191,None,87135.66147288191,None,1,2022_Jul_08_0904,Semantic-hierachy,2021.1.2,60.03061363771692,
236,Trial # 237,layer9-17_T6_to_T7.jpg,layer9-17/layer9-17_T6_to_T7.jpg,TT,layer9-17,,,,,0.0,86.0,86.0,86.0,,,,,87137.72998771304,None,2.0,1.4383572959341109,87137.72998771304,None,87137.72998771304,None,87137.72998771304,None,1,2022_Jul_08_0904,Semantic-hierachy,2021.1.2,60.03061363771692,
237,Trial # 238,layer0-5_T2_to_T9.jpg,layer0-5/layer0-5_T2_to_T9.jpg,TT,layer0-5,,,,,0.0,87.0,87.0,87.0,,,,,87139.43026542407,None,1.0,1.5986576990690082,87139.43026542407,None,87139.43026542407,None,87139.43026542407,None,1,2022_Jul_08_0904,Semantic-hierachy,2021.1.2,60.03061363771692,
238,Trial # 239,layer0-5_O2_to_O5.jpg,layer0-5/layer0-5_O2_to_O5.jpg,OO,layer0-5,,,,,0.0,88.0,88.0,88.0,,,,,87141.34664658294,None,1.0,2.0448792190290987,87141.34664658294,None,87141.34664658294,None,87141.34664658294,None,1,2022_Jul_08_0904,Semantic-hierachy,2021.1.2,60.03061363771692,
239,Trial # 240,layer6-8_O1_to_O5.jpg,layer6-8/layer6-8_O1_to_O5.jpg,OO,layer6-8,,,,,0.0,89.0,89.0,89.0,,,,,87144.64774959092,None,4.0,9.307453720131887,87144.64774959092,None,87144.64774959092,None,87144.64774959092,None,1,2022_Jul_08_0904,Semantic-hierachy,2021.1.2,60.03061363771692,
240,Trial # 241,layer9-17_O3_to_O7.jpg,layer9-17/layer9-17_O3_to_O7.jpg,OO,layer9-17,,,,,0.0,90.0,90.0,90.0,,,,,87155.86788407108,None,2.0,1.5312724909745157,87155.86788407108,None,87155.86788407108,None,87155.86788407108,None,1,2022_Jul_08_0904,Semantic-hierachy,2021.1.2,60.03061363771692,
241,Trial # 242,layer6-8_O11_to_O8.jpg,layer6-8/layer6-8_O11_to_O8.jpg,OO,layer6-8,,,,,0.0,91.0,91.0,91.0,,,,,87157.75271861092,None,2.0,26.947919277008623,87157.75271861092,None,87157.75271861092,None,87157.75271861092,None,1,2022_Jul_08_0904,Semantic-hierachy,2021.1.2,60.03061363771692,
242,Trial # 243,layer9-17_T1_to_T12.jpg,layer9-17/layer9-17_T1_to_T12.jpg,TT,layer9-17,,,,,0.0,92.0,92.0,92.0,,,,,87186.86108110705,None,2.0,1.1433107028715312,87186.86108110705,None,87186.86108110705,None,87186.86108110705,None,1,2022_Jul_08_0904,Semantic-hierachy,2021.1.2,60.03061363771692,
243,Trial # 244,layer9-17_O6_to_O8.jpg,layer9-17/layer9-17_O6_to_O8.jpg,OO,layer9-17,,,,,0.0,93.0,93.0,93.0,,,,,87188.67881021509,None,2.0,92.88697248487732,87188.67881021509,None,87188.67881021509,None,87188.67881021509,None,1,2022_Jul_08_0904,Semantic-hierachy,2021.1.2,60.03061363771692,
244,Trial # 245,layer6-8_O4_to_T11.jpg,layer6-8/layer6-8_O4_to_T11.jpg,OT,layer6-8,,,,,0.0,94.0,94.0,94.0,,,,,87284.09174908698,None,3.0,2.936244052136317,87284.09174908698,None,87284.09174908698,None,87284.09174908698,None,1,2022_Jul_08_0904,Semantic-hierachy,2021.1.2,60.03061363771692,
245,Trial # 246,layer9-17_T10_to_T3.jpg,layer9-17/layer9-17_T10_to_T3.jpg,TT,layer9-17,,,,,0.0,95.0,95.0,95.0,,,,,87291.142826583,None,2.0,2.332088755909353,87291.142826583,None,87291.142826583,None,87291.142826583,None,1,2022_Jul_08_0904,Semantic-hierachy,2021.1.2,60.03061363771692,
246,Trial # 247,layer0-5_O10_to_O8.jpg,layer0-5/layer0-5_O10_to_O8.jpg,OO,layer0-5,,,,,0.0,96.0,96.0,96.0,,,,,87296.12755914009,None,1.0,1.4760709379334005,87296.12755914009,None,87296.12755914009,None,87296.12755914009,None,1,2022_Jul_08_0904,Semantic-hierachy,2021.1.2,60.03061363771692,
247,Trial # 248,layer6-8_O3_to_T12.jpg,layer6-8/layer6-8_O3_to_T12.jpg,OT,layer6-8,,,,,0.0,97.0,97.0,97.0,,,,,87298.01267664996,None,3.0,1.6955272317864,87298.01267664996,None,87298.01267664996,None,87298.01267664996,None,1,2022_Jul_08_0904,Semantic-hierachy,2021.1.2,60.03061363771692,
248,Trial # 249,layer0-5_O12_to_T9.jpg,layer0-5/layer0-5_O12_to_T9.jpg,OT,layer0-5,,,,,0.0,98.0,98.0,98.0,,,,,87301.096181995,None,1.0,1.4774575498886406,87301.096181995,None,87301.096181995,None,87301.096181995,None,1,2022_Jul_08_0904,Semantic-hierachy,2021.1.2,60.03061363771692,
249,Trial # 250,layer9-17_T1_to_T9.jpg,layer9-17/layer9-17_T1_to_T9.jpg,TT,layer9-17,,,,,0.0,99.0,99.0,99.0,,,,,87302.89776913798,None,3.0,31.860377508914095,87302.89776913798,None,87302.89776913798,None,87302.89776913798,None,1,2022_Jul_08_0904,Semantic-hierachy,2021.1.2,60.03061363771692,
250,Trial # 251,layer9-17_T11_to_T8.jpg,layer9-17/layer9-17_T11_to_T8.jpg,TT,layer9-17,,,,,0.0,100.0,100.0,100.0,,,,,87349.09528243495,None,2.0,1.4410531870089471,87349.09528243495,None,87349.09528243495,None,87349.09528243495,None,1,2022_Jul_08_0904,Semantic-hierachy,2021.1.2,60.03061363771692,
251,Trial # 252,layer9-17_T11_to_T5.jpg,layer9-17/layer9-17_T11_to_T5.jpg,TT,layer9-17,,,,,0.0,101.0,101.0,101.0,,,,,87352.01091840211,None,3.0,4.417533427011222,87352.01091840211,None,87352.01091840211,None,87352.01091840211,None,1,2022_Jul_08_0904,Semantic-hierachy,2021.1.2,60.03061363771692,
252,Trial # 253,layer6-8_T10_to_T12.jpg,layer6-8/layer6-8_T10_to_T12.jpg,TT,layer6-8,,,,,0.0,102.0,102.0,102.0,,,,,87382.45450457698,None,4.0,15.518786536995322,87382.45450457698,None,87382.45450457698,None,87382.45450457698,None,1,2022_Jul_08_0904,Semantic-hierachy,2021.1.2,60.03061363771692,
253,Trial # 254,layer9-17_O5_to_T1.jpg,layer9-17/layer9-17_O5_to_T1.jpg,OT,layer9-17,,,,,0.0,103.0,103.0,103.0,,,,,87418.69946338492,None,2.0,2.675870520994067,87418.69946338492,None,87418.69946338492,None,87418.69946338492,None,1,2022_Jul_08_0904,Semantic-hierachy,2021.1.2,60.03061363771692,
254,Trial # 255,layer6-8_T2_to_T3.jpg,layer6-8/layer6-8_T2_to_T3.jpg,TT,layer6-8,,,,,0.0,104.0,104.0,104.0,,,,,87423.85156195797,None,3.0,3.0146935780067,87423.85156195797,None,87423.85156195797,None,87423.85156195797,None,1,2022_Jul_08_0904,Semantic-hierachy,2021.1.2,60.03061363771692,
255,Trial # 256,layer6-8_O2_to_T6.jpg,layer6-8/layer6-8_O2_to_T6.jpg,OT,layer6-8,,,,,0.0,105.0,105.0,105.0,,,,,87428.56891324301,None,4.0,2.611994510050863,87428.56891324301,None,87428.56891324301,None,87428.56891324301,None,1,2022_Jul_08_0904,Semantic-hierachy,2021.1.2,60.03061363771692,
256,Trial # 257,layer6-8_T11_to_T9.jpg,layer6-8/layer6-8_T11_to_T9.jpg,TT,layer6-8,,,,,0.0,106.0,106.0,106.0,,,,,87434.37127729994,None,4.0,3.557739005889744,87434.37127729994,None,87434.37127729994,None,87434.37127729994,None,1,2022_Jul_08_0904,Semantic-hierachy,2021.1.2,60.03061363771692,
257,Trial # 258,layer6-8_O5_to_T9.jpg,layer6-8/layer6-8_O5_to_T9.jpg,OT,layer6-8,,,,,0.0,107.0,107.0,107.0,,,,,87442.65619812207,None,3.0,1.6913781228940934,87442.65619812207,None,87442.65619812207,None,87442.65619812207,None,1,2022_Jul_08_0904,Semantic-hierachy,2021.1.2,60.03061363771692,
258,Trial # 259,layer6-8_O9_to_T8.jpg,layer6-8/layer6-8_O9_to_T8.jpg,OT,layer6-8,,,,,0.0,108.0,108.0,108.0,,,,,87447.47450122004,None,3.0,1.880044074961916,87447.47450122004,None,87447.47450122004,None,87447.47450122004,None,1,2022_Jul_08_0904,Semantic-hierachy,2021.1.2,60.03061363771692,
259,Trial # 260,layer6-8_T1_to_T5.jpg,layer6-8/layer6-8_T1_to_T5.jpg,TT,layer6-8,,,,,0.0,109.0,109.0,109.0,,,,,87451.67538256897,None,4.0,116.42636530892923,87451.67538256897,None,87451.67538256897,None,87451.67538256897,None,1,2022_Jul_08_0904,Semantic-hierachy,2021.1.2,60.03061363771692,
260,Trial # 261,layer0-5_O11_to_T2.jpg,layer0-5/layer0-5_O11_to_T2.jpg,OT,layer0-5,,,,,0.0,110.0,110.0,110.0,,,,,87577.46439850889,None,1.0,1.9029255828354508,87577.46439850889,None,87577.46439850889,None,87577.46439850889,None,1,2022_Jul_08_0904,Semantic-hierachy,2021.1.2,60.03061363771692,
261,Trial # 262,layer0-5_O7_to_T4.jpg,layer0-5/layer0-5_O7_to_T4.jpg,OT,layer0-5,,,,,0.0,111.0,111.0,111.0,,,,,87579.76545948302,None,1.0,1.2425383641384542,87579.76545948302,None,87579.76545948302,None,87579.76545948302,None,1,2022_Jul_08_0904,Semantic-hierachy,2021.1.2,60.03061363771692,
262,Trial # 263,layer6-8_T12_to_T8.jpg,layer6-8/layer6-8_T12_to_T8.jpg,TT,layer6-8,,,,,0.0,112.0,112.0,112.0,,,,,87581.5488638531,None,2.0,1.331852009985596,87581.5488638531,None,87581.5488638531,None,87581.5488638531,None,1,2022_Jul_08_0904,Semantic-hierachy,2021.1.2,60.03061363771692,
263,Trial # 264,layer6-8_O4_to_O9.jpg,layer6-8/layer6-8_O4_to_O9.jpg,OO,layer6-8,,,,,0.0,113.0,113.0,113.0,,,,,87584.91807041806,None,4.0,4.273758532945067,87584.91807041806,None,87584.91807041806,None,87584.91807041806,None,1,2022_Jul_08_0904,Semantic-hierachy,2021.1.2,60.03061363771692,
264,Trial # 265,layer0-5_T1_to_T5.jpg,layer0-5/layer0-5_T1_to_T5.jpg,TT,layer0-5,,,,,0.0,114.0,114.0,114.0,,,,,87591.11877638893,None,1.0,3.3433545199222863,87591.11877638893,None,87591.11877638893,None,87591.11877638893,None,1,2022_Jul_08_0904,Semantic-hierachy,2021.1.2,60.03061363771692,
265,Trial # 266,layer0-5_O12_to_O7.jpg,layer0-5/layer0-5_O12_to_O7.jpg,OO,layer0-5,,,,,0.0,115.0,115.0,115.0,,,,,87597.18735072901,None,1.0,1.0968390929047018,87597.18735072901,None,87597.18735072901,None,87597.18735072901,None,1,2022_Jul_08_0904,Semantic-hierachy,2021.1.2,60.03061363771692,
266,Trial # 267,layer6-8_T8_to_T9.jpg,layer6-8/layer6-8_T8_to_T9.jpg,TT,layer6-8,,,,,0.0,116.0,116.0,116.0,,,,,87598.65544353309,None,2.0,7.962855719029903,87598.65544353309,None,87598.65544353309,None,87598.65544353309,None,1,2022_Jul_08_0904,Semantic-hierachy,2021.1.2,60.03061363771692,
267,Trial # 268,layer9-17_O11_to_T10.jpg,layer9-17/layer9-17_O11_to_T10.jpg,OT,layer9-17,,,,,0.0,117.0,117.0,117.0,,,,,87609.94137671497,None,2.0,1.1962646069005132,87609.94137671497,None,87609.94137671497,None,87609.94137671497,None,1,2022_Jul_08_0904,Semantic-hierachy,2021.1.2,60.03061363771692,
268,Trial # 269,layer0-5_O8_to_T9.jpg,layer0-5/layer0-5_O8_to_T9.jpg,OT,layer0-5,,,,,0.0,118.0,118.0,118.0,,,,,87611.49166726903,None,1.0,1.860837813001126,87611.49166726903,None,87611.49166726903,None,87611.49166726903,None,1,2022_Jul_08_0904,Semantic-hierachy,2021.1.2,60.03061363771692,
269,Trial # 270,layer9-17_O10_to_O11.jpg,layer9-17/layer9-17_O10_to_O11.jpg,OO,layer9-17,,,,,0.0,119.0,119.0,119.0,,,,,87613.66009862395,None,2.0,2.140795749844983,87613.66009862395,None,87613.66009862395,None,87613.66009862395,None,1,2022_Jul_08_0904,Semantic-hierachy,2021.1.2,60.03061363771692,
270,Trial # 271,layer0-5_T1_to_T9.jpg,layer0-5/layer0-5_T1_to_T9.jpg,TT,layer0-5,,,,,0.0,120.0,120.0,120.0,,,,,87617.99478161498,None,1.0,2.467637763824314,87617.99478161498,None,87617.99478161498,None,87617.99478161498,None,1,2022_Jul_08_0904,Semantic-hierachy,2021.1.2,60.03061363771692,
271,Trial # 272,layer6-8_T11_to_T8.jpg,layer6-8/layer6-8_T11_to_T8.jpg,TT,layer6-8,,,,,0.0,121.0,121.0,121.0,,,,,87620.84462831309,None,4.0,3.862461823038757,87620.84462831309,None,87620.84462831309,None,87620.84462831309,None,1,2022_Jul_08_0904,Semantic-hierachy,2021.1.2,60.03061363771692,
272,Trial # 273,layer9-17_O10_to_O12.jpg,layer9-17/layer9-17_O10_to_O12.jpg,OO,layer9-17,,,,,0.0,122.0,122.0,122.0,,,,,87625.14564051502,None,2.0,2.024109148187563,87625.14564051502,None,87625.14564051502,None,87625.14564051502,None,1,2022_Jul_08_0904,Semantic-hierachy,2021.1.2,60.03061363771692,
273,Trial # 274,layer0-5_T12_to_T6.jpg,layer0-5/layer0-5_T12_to_T6.jpg,TT,layer0-5,,,,,0.0,123.0,123.0,123.0,,,,,87627.62947727111,None,1.0,4.396590190008283,87627.62947727111,None,87627.62947727111,None,87627.62947727111,None,1,2022_Jul_08_0904,Semantic-hierachy,2021.1.2,60.03061363771692,
274,Trial # 275,layer9-17_O11_to_O5.jpg,layer9-17/layer9-17_O11_to_O5.jpg,OO,layer9-17,,,,,0.0,124.0,124.0,124.0,,,,,87632.46431399207,None,2.0,2.3551081409677863,87632.46431399207,None,87632.46431399207,None,87632.46431399207,None,1,2022_Jul_08_0904,Semantic-hierachy,2021.1.2,60.03061363771692,
275,Trial # 276,layer9-17_O1_to_O4.jpg,layer9-17/layer9-17_O1_to_O4.jpg,OO,layer9-17,,,,,0.0,125.0,125.0,125.0,,,,,87635.09873800399,None,2.0,3.209349494893104,87635.09873800399,None,87635.09873800399,None,87635.09873800399,None,1,2022_Jul_08_0904,Semantic-hierachy,2021.1.2,60.03061363771692,
276,Trial # 277,layer6-8_O11_to_O3.jpg,layer6-8/layer6-8_O11_to_O3.jpg,OO,layer6-8,,,,,0.0,126.0,126.0,126.0,,,,,87639.63495308207,None,2.0,4.4223622779827565,87639.63495308207,None,87639.63495308207,None,87639.63495308207,None,1,2022_Jul_08_0904,Semantic-hierachy,2021.1.2,60.03061363771692,
277,Trial # 278,layer6-8_T10_to_T11.jpg,layer6-8/layer6-8_T10_to_T11.jpg,TT,layer6-8,,,,,0.0,127.0,127.0,127.0,,,,,87645.2354641899,None,4.0,3.022347809979692,87645.2354641899,None,87645.2354641899,None,87645.2354641899,None,1,2022_Jul_08_0904,Semantic-hierachy,2021.1.2,60.03061363771692,
278,Trial # 279,layer0-5_O7_to_T3.jpg,layer0-5/layer0-5_O7_to_T3.jpg,OT,layer0-5,,,,,0.0,128.0,128.0,128.0,,,,,87666.52498475905,None,1.0,1.5416448460891845,87666.52498475905,None,87666.52498475905,None,87666.52498475905,None,1,2022_Jul_08_0904,Semantic-hierachy,2021.1.2,60.03061363771692,
279,Trial # 280,layer9-17_T1_to_T10.jpg,layer9-17/layer9-17_T1_to_T10.jpg,TT,layer9-17,,,,,0.0,129.0,129.0,129.0,,,,,87668.62603224511,None,2.0,3.4967057718895376,87668.62603224511,None,87668.62603224511,None,87668.62603224511,None,1,2022_Jul_08_0904,Semantic-hierachy,2021.1.2,60.03061363771692,
280,Trial # 281,layer9-17_O6_to_T7.jpg,layer9-17/layer9-17_O6_to_T7.jpg,OT,layer9-17,,,,,0.0,130.0,130.0,130.0,,,,,87672.89515718911,None,2.0,1.1259218747727573,87672.89515718911,None,87672.89515718911,None,87672.89515718911,None,1,2022_Jul_08_0904,Semantic-hierachy,2021.1.2,60.03061363771692,
281,Trial # 282,layer0-5_O10_to_O7.jpg,layer0-5/layer0-5_O10_to_O7.jpg,OO,layer0-5,,,,,0.0,131.0,131.0,131.0,,,,,87674.36113719898,None,1.0,1.5897408919408915,87674.36113719898,None,87674.36113719898,None,87674.36113719898,None,1,2022_Jul_08_0904,Semantic-hierachy,2021.1.2,60.03061363771692,
282,Trial # 283,layer0-5_O1_to_O11.jpg,layer0-5/layer0-5_O1_to_O11.jpg,OO,layer0-5,,,,,0.0,132.0,132.0,132.0,,,,,87676.7954172839,None,1.0,1.1102105788886547,87676.7954172839,None,87676.7954172839,None,87676.7954172839,None,1,2022_Jul_08_0904,Semantic-hierachy,2021.1.2,60.03061363771692,
283,Trial # 284,layer6-8_O7_to_O8.jpg,layer6-8/layer6-8_O7_to_O8.jpg,OO,layer6-8,,,,,0.0,133.0,133.0,133.0,,,,,87678.29673339706,None,2.0,1.589800813002512,87678.29673339706,None,87678.29673339706,None,87678.29673339706,None,1,2022_Jul_08_0904,Semantic-hierachy,2021.1.2,60.03061363771692,
284,Trial # 285,layer0-5_T7_to_T8.jpg,layer0-5/layer0-5_T7_to_T8.jpg,TT,layer0-5,,,,,0.0,134.0,134.0,134.0,,,,,87680.89644175,None,1.0,1.3365696370601654,87680.89644175,None,87680.89644175,None,87680.89644175,None,1,2022_Jul_08_0904,Semantic-hierachy,2021.1.2,60.03061363771692,
285,Trial # 286,layer9-17_T11_to_T6.jpg,layer9-17/layer9-17_T11_to_T6.jpg,TT,layer9-17,,,,,0.0,135.0,135.0,135.0,,,,,87682.49679902499,None,2.0,3.3627595738507807,87682.49679902499,None,87682.49679902499,None,87682.49679902499,None,1,2022_Jul_08_0904,Semantic-hierachy,2021.1.2,60.03061363771692,
286,Trial # 287,layer0-5_T2_to_T7.jpg,layer0-5/layer0-5_T2_to_T7.jpg,TT,layer0-5,,,,,0.0,136.0,136.0,136.0,,,,,87695.55097842892,None,1.0,1.3557132699061183,87695.55097842892,None,87695.55097842892,None,87695.55097842892,None,1,2022_Jul_08_0904,Semantic-hierachy,2021.1.2,60.03061363771692,
287,Trial # 288,layer9-17_O10_to_O2.jpg,layer9-17/layer9-17_O10_to_O2.jpg,OO,layer9-17,,,,,0.0,137.0,137.0,137.0,,,,,87697.26783848694,None,2.0,1.2370460340753198,87697.26783848694,None,87697.26783848694,None,87697.26783848694,None,1,2022_Jul_08_0904,Semantic-hierachy,2021.1.2,60.03061363771692,
288,Trial # 289,layer0-5_T10_to_T9.jpg,layer0-5/layer0-5_T10_to_T9.jpg,TT,layer0-5,,,,,0.0,138.0,138.0,138.0,,,,,87698.969966962,None,1.0,1.7422308600507677,87698.969966962,None,87698.969966962,None,87698.969966962,None,1,2022_Jul_08_0904,Semantic-hierachy,2021.1.2,60.03061363771692,
289,Trial # 290,layer6-8_O11_to_O5.jpg,layer6-8/layer6-8_O11_to_O5.jpg,OO,layer6-8,,,,,0.0,139.0,139.0,139.0,,,,,87701.352869333,None,2.0,1.4226375969592482,87701.352869333,None,87701.352869333,None,87701.352869333,None,1,2022_Jul_08_0904,Semantic-hierachy,2021.1.2,60.03061363771692,
290,Trial # 291,layer6-8_O3_to_O7.jpg,layer6-8/layer6-8_O3_to_O7.jpg,OO,layer6-8,,,,,0.0,140.0,140.0,140.0,,,,,87703.35451042908,None,4.0,2.3275032870005816,87703.35451042908,None,87703.35451042908,None,87703.35451042908,None,1,2022_Jul_08_0904,Semantic-hierachy,2021.1.2,60.03061363771692,
291,Trial # 292,layer9-17_O12_to_T11.jpg,layer9-17/layer9-17_O12_to_T11.jpg,OT,layer9-17,,,,,0.0,141.0,141.0,141.0,,,,,87708.85525453789,None,2.0,1.52511000004597,87708.85525453789,None,87708.85525453789,None,87708.85525453789,None,1,2022_Jul_08_0904,Semantic-hierachy,2021.1.2,60.03061363771692,
292,Trial # 293,layer9-17_O2_to_O4.jpg,layer9-17/layer9-17_O2_to_O4.jpg,OO,layer9-17,,,,,0.0,142.0,142.0,142.0,,,,,87710.65566397295,None,2.0,45.788724593119696,87710.65566397295,None,87710.65566397295,None,87710.65566397295,None,1,2022_Jul_08_0904,Semantic-hierachy,2021.1.2,60.03061363771692,
293,Trial # 294,layer6-8_O1_to_T12.jpg,layer6-8/layer6-8_O1_to_T12.jpg,OT,layer6-8,,,,,0.0,143.0,143.0,143.0,,,,,87767.65611289302,None,3.0,1.5914283080492169,87767.65611289302,None,87767.65611289302,None,87767.65611289302,None,1,2022_Jul_08_0904,Semantic-hierachy,2021.1.2,60.03061363771692,
294,Trial # 295,layer9-17_O11_to_T5.jpg,layer9-17/layer9-17_O11_to_T5.jpg,OT,layer9-17,,,,,0.0,144.0,144.0,144.0,,,,,87769.72364194901,None,2.0,8.374243672005832,87769.72364194901,None,87769.72364194901,None,87769.72364194901,None,1,2022_Jul_08_0904,Semantic-hierachy,2021.1.2,60.03061363771692,
295,Trial # 296,layer0-5_O10_to_O9.jpg,layer0-5/layer0-5_O10_to_O9.jpg,OO,layer0-5,,,,,0.0,145.0,145.0,145.0,,,,,87779.07765366789,None,1.0,2.360449756961316,87779.07765366789,None,87779.07765366789,None,87779.07765366789,None,1,2022_Jul_08_0904,Semantic-hierachy,2021.1.2,60.03061363771692,
296,Trial # 297,layer6-8_O12_to_T10.jpg,layer6-8/layer6-8_O12_to_T10.jpg,OT,layer6-8,,,,,0.0,146.0,146.0,146.0,,,,,87782.14442908601,None,3.0,5.844885163009167,87782.14442908601,None,87782.14442908601,None,87782.14442908601,None,1,2022_Jul_08_0904,Semantic-hierachy,2021.1.2,60.03061363771692,
297,Trial # 298,layer6-8_O3_to_T2.jpg,layer6-8/layer6-8_O3_to_T2.jpg,OT,layer6-8,,,,,0.0,147.0,147.0,147.0,,,,,87791.14677126892,None,4.0,2.946809696033597,87791.14677126892,None,87791.14677126892,None,87791.14677126892,None,1,2022_Jul_08_0904,Semantic-hierachy,2021.1.2,60.03061363771692,
298,Trial # 299,layer9-17_O2_to_T5.jpg,layer9-17/layer9-17_O2_to_T5.jpg,OT,layer9-17,,,,,0.0,148.0,148.0,148.0,,,,,87796.08164738212,None,2.0,24.1670794300735,87796.08164738212,None,87796.08164738212,None,87796.08164738212,None,1,2022_Jul_08_0904,Semantic-hierachy,2021.1.2,60.03061363771692,
299,Trial # 300,layer0-5_O3_to_T7.jpg,layer0-5/layer0-5_O3_to_T7.jpg,OT,layer0-5,,,,,0.0,149.0,149.0,149.0,,,,,87820.922716673,None,1.0,1.3419943880289793,87820.922716673,None,87820.922716673,None,87820.922716673,None,1,2022_Jul_08_0904,Semantic-hierachy,2021.1.2,60.03061363771692,
300,Trial # 301,layer9-17_O11_to_O6.jpg,layer9-17/layer9-17_O11_to_O6.jpg,OO,layer9-17,,,,,,,,,0.0,0.0,0.0,0.0,87825.95864999201,None,2.0,5.821401714812964,87825.95864999201,None,87825.95864999201,None,87825.95864999201,None,1,2022_Jul_08_0904,Semantic-hierachy,2021.1.2,60.03061363771692,
301,Trial # 302,layer0-5_O3_to_O7.jpg,layer0-5/layer0-5_O3_to_O7.jpg,OO,layer0-5,,,,,,,,,0.0,1.0,1.0,1.0,87832.86064612889,None,1.0,1.5180607920046896,87832.86064612889,None,87832.86064612889,None,87832.86064612889,None,1,2022_Jul_08_0904,Semantic-hierachy,2021.1.2,60.03061363771692,
302,Trial # 303,layer6-8_O11_to_T3.jpg,layer6-8/layer6-8_O11_to_T3.jpg,OT,layer6-8,,,,,,,,,0.0,2.0,2.0,2.0,87834.6937413481,None,3.0,1.9043417440261687,87834.6937413481,None,87834.6937413481,None,87834.6937413481,None,1,2022_Jul_08_0904,Semantic-hierachy,2021.1.2,60.03061363771692,
303,Trial # 304,layer6-8_O2_to_T7.jpg,layer6-8/layer6-8_O2_to_T7.jpg,OT,layer6-8,,,,,,,,,0.0,3.0,3.0,3.0,87837.42740585492,None,3.0,1.4309877050109208,87837.42740585492,None,87837.42740585492,None,87837.42740585492,None,1,2022_Jul_08_0904,Semantic-hierachy,2021.1.2,60.03061363771692,
304,Trial # 305,layer0-5_T1_to_T7.jpg,layer0-5/layer0-5_T1_to_T7.jpg,TT,layer0-5,,,,,,,,,0.0,4.0,4.0,4.0,87841.84579277504,None,1.0,1.409816576866433,87841.84579277504,None,87841.84579277504,None,87841.84579277504,None,1,2022_Jul_08_0904,Semantic-hierachy,2021.1.2,60.03061363771692,
305,Trial # 306,layer6-8_O7_to_T11.jpg,layer6-8/layer6-8_O7_to_T11.jpg,OT,layer6-8,,,,,,,,,0.0,5.0,5.0,5.0,87844.3807692139,None,3.0,2.291868373984471,87844.3807692139,None,87844.3807692139,None,87844.3807692139,None,1,2022_Jul_08_0904,Semantic-hierachy,2021.1.2,60.03061363771692,
306,Trial # 307,layer9-17_O5_to_T5.jpg,layer9-17/layer9-17_O5_to_T5.jpg,OT,layer9-17,,,,,,,,,0.0,6.0,6.0,6.0,87847.61433902103,None,2.0,3.179230645066127,87847.61433902103,None,87847.61433902103,None,87847.61433902103,None,1,2022_Jul_08_0904,Semantic-hierachy,2021.1.2,60.03061363771692,
307,Trial # 308,layer9-17_T12_to_T5.jpg,layer9-17/layer9-17_T12_to_T5.jpg,TT,layer9-17,,,,,,,,,0.0,7.0,7.0,7.0,87851.44915663009,None,2.0,2.625088484026492,87851.44915663009,None,87851.44915663009,None,87851.44915663009,None,1,2022_Jul_08_0904,Semantic-hierachy,2021.1.2,60.03061363771692,
308,Trial # 309,layer6-8_O11_to_O2.jpg,layer6-8/layer6-8_O11_to_O2.jpg,OO,layer6-8,,,,,,,,,0.0,8.0,8.0,8.0,87854.56724703102,None,2.0,47.77535141794942,87854.56724703102,None,87854.56724703102,None,87854.56724703102,None,1,2022_Jul_08_0904,Semantic-hierachy,2021.1.2,60.03061363771692,
309,Trial # 310,layer6-8_O10_to_O7.jpg,layer6-8/layer6-8_O10_to_O7.jpg,OO,layer6-8,,,,,,,,,0.0,9.0,9.0,9.0,87902.9319101111,None,3.0,6.793142768088728,87902.9319101111,None,87902.9319101111,None,87902.9319101111,None,1,2022_Jul_08_0904,Semantic-hierachy,2021.1.2,60.03061363771692,
310,Trial # 311,layer9-17_O10_to_T11.jpg,layer9-17/layer9-17_O10_to_T11.jpg,OT,layer9-17,,,,,,,,,0.0,10.0,10.0,10.0,87966.68403986911,None,3.0,6.034471065970138,87966.68403986911,None,87966.68403986911,None,87966.68403986911,None,1,2022_Jul_08_0904,Semantic-hierachy,2021.1.2,60.03061363771692,
311,Trial # 312,layer6-8_O11_to_O12.jpg,layer6-8/layer6-8_O11_to_O12.jpg,OO,layer6-8,,,,,,,,,0.0,11.0,11.0,11.0,87985.1734816269,None,3.0,24.255859980126843,87985.1734816269,None,87985.1734816269,None,87985.1734816269,None,1,2022_Jul_08_0904,Semantic-hierachy,2021.1.2,60.03061363771692,
312,Trial # 313,layer9-17_O9_to_T8.jpg,layer9-17/layer9-17_O9_to_T8.jpg,OT,layer9-17,,,,,,,,,0.0,12.0,12.0,12.0,88013.86696963501,None,3.0,8.943341084988788,88013.86696963501,None,88013.86696963501,None,88013.86696963501,None,1,2022_Jul_08_0904,Semantic-hierachy,2021.1.2,60.03061363771692,
313,Trial # 314,layer0-5_O3_to_T2.jpg,layer0-5/layer0-5_O3_to_T2.jpg,OT,layer0-5,,,,,,,,,0.0,13.0,13.0,13.0,88033.45661847992,None,1.0,1.6119419210590422,88033.45661847992,None,88033.45661847992,None,88033.45661847992,None,1,2022_Jul_08_0904,Semantic-hierachy,2021.1.2,60.03061363771692,
314,Trial # 315,layer9-17_T1_to_T11.jpg,layer9-17/layer9-17_T1_to_T11.jpg,TT,layer9-17,,,,,,,,,0.0,14.0,14.0,14.0,88035.78906047507,None,2.0,1.4765441839117557,88035.78906047507,None,88035.78906047507,None,88035.78906047507,None,1,2022_Jul_08_0904,Semantic-hierachy,2021.1.2,60.03061363771692,
315,Trial # 316,layer6-8_T10_to_T7.jpg,layer6-8/layer6-8_T10_to_T7.jpg,TT,layer6-8,,,,,,,,,0.0,15.0,15.0,15.0,88038.07435736596,None,3.0,65.35919974697754,88038.07435736596,None,88038.07435736596,None,88038.07435736596,None,1,2022_Jul_08_0904,Semantic-hierachy,2021.1.2,60.03061363771692,
316,Trial # 317,layer0-5_T6_to_T7.jpg,layer0-5/layer0-5_T6_to_T7.jpg,TT,layer0-5,,,,,,,,,0.0,16.0,16.0,16.0,88104.79394799005,None,1.0,1.6568861529231071,88104.79394799005,None,88104.79394799005,None,88104.79394799005,None,1,2022_Jul_08_0904,Semantic-hierachy,2021.1.2,60.03061363771692,
317,Trial # 318,layer9-17_O1_to_T3.jpg,layer9-17/layer9-17_O1_to_T3.jpg,OT,layer9-17,,,,,,,,,0.0,17.0,17.0,17.0,88106.91106620501,None,2.0,1.6214087910484525,88106.91106620501,None,88106.91106620501,None,88106.91106620501,None,1,2022_Jul_08_0904,Semantic-hierachy,2021.1.2,60.03061363771692,
318,Trial # 319,layer0-5_O2_to_T5.jpg,layer0-5/layer0-5_O2_to_T5.jpg,OT,layer0-5,,,,,,,,,0.0,18.0,18.0,18.0,88109.39648361108,None,1.0,1.6923050829209387,88109.39648361108,None,88109.39648361108,None,88109.39648361108,None,1,2022_Jul_08_0904,Semantic-hierachy,2021.1.2,60.03061363771692,
319,Trial # 320,layer6-8_O7_to_T10.jpg,layer6-8/layer6-8_O7_to_T10.jpg,OT,layer6-8,,,,,,,,,0.0,19.0,19.0,19.0,88111.79571383307,None,3.0,1.858313973993063,88111.79571383307,None,88111.79571383307,None,88111.79571383307,None,1,2022_Jul_08_0904,Semantic-hierachy,2021.1.2,60.03061363771692,
320,Trial # 321,layer0-5_O5_to_O6.jpg,layer0-5/layer0-5_O5_to_O6.jpg,OO,layer0-5,,,,,,,,,0.0,20.0,20.0,20.0,88114.14789251098,None,1.0,2.088273579021916,88114.14789251098,None,88114.14789251098,None,88114.14789251098,None,1,2022_Jul_08_0904,Semantic-hierachy,2021.1.2,60.03061363771692,
321,Trial # 322,layer9-17_O5_to_T4.jpg,layer9-17/layer9-17_O5_to_T4.jpg,OT,layer9-17,,,,,,,,,0.0,21.0,21.0,21.0,88117.41459944006,None,2.0,1.8944071989972144,88117.41459944006,None,88117.41459944006,None,88117.41459944006,None,1,2022_Jul_08_0904,Semantic-hierachy,2021.1.2,60.03061363771692,
322,Trial # 323,layer0-5_T12_to_T2.jpg,layer0-5/layer0-5_T12_to_T2.jpg,TT,layer0-5,,,,,,,,,0.0,22.0,22.0,22.0,88119.79956344189,None,1.0,1.5515246919821948,88119.79956344189,None,88119.79956344189,None,88119.79956344189,None,1,2022_Jul_08_0904,Semantic-hierachy,2021.1.2,60.03061363771692,
323,Trial # 324,layer0-5_O2_to_O4.jpg,layer0-5/layer0-5_O2_to_O4.jpg,OO,layer0-5,,,,,,,,,0.0,23.0,23.0,23.0,88121.69886704697,None,1.0,1.019922350998968,88121.69886704697,None,88121.69886704697,None,88121.69886704697,None,1,2022_Jul_08_0904,Semantic-hierachy,2021.1.2,60.03061363771692,
324,Trial # 325,layer6-8_O1_to_O9.jpg,layer6-8/layer6-8_O1_to_O9.jpg,OO,layer6-8,,,,,,,,,0.0,24.0,24.0,24.0,88123.133713193,None,4.0,9.45237778010778,88123.133713193,None,88123.133713193,None,88123.133713193,None,1,2022_Jul_08_0904,Semantic-hierachy,2021.1.2,60.03061363771692,
325,Trial # 326,layer0-5_T3_to_T5.jpg,layer0-5/layer0-5_T3_to_T5.jpg,TT,layer0-5,,,,,,,,,0.0,25.0,25.0,25.0,88138.48837158107,None,1.0,2.033335889922455,88138.48837158107,None,88138.48837158107,None,88138.48837158107,None,1,2022_Jul_08_0904,Semantic-hierachy,2021.1.2,60.03061363771692,
326,Trial # 327,layer6-8_O8_to_T12.jpg,layer6-8/layer6-8_O8_to_T12.jpg,OT,layer6-8,,,,,,,,,0.0,26.0,26.0,26.0,88141.62182256207,None,3.0,2.142961259000004,88141.62182256207,None,88141.62182256207,None,88141.62182256207,None,1,2022_Jul_08_0904,Semantic-hierachy,2021.1.2,60.03061363771692,
327,Trial # 328,layer9-17_T11_to_T4.jpg,layer9-17/layer9-17_T11_to_T4.jpg,TT,layer9-17,,,,,,,,,0.0,27.0,27.0,27.0,88146.03985012393,None,2.0,2.2131407510023564,88146.03985012393,None,88146.03985012393,None,88146.03985012393,None,1,2022_Jul_08_0904,Semantic-hierachy,2021.1.2,60.03061363771692,
328,Trial # 329,layer9-17_O6_to_T2.jpg,layer9-17/layer9-17_O6_to_T2.jpg,OT,layer9-17,,,,,,,,,0.0,28.0,28.0,28.0,88149.49204703397,None,2.0,1.4533300420735031,88149.49204703397,None,88149.49204703397,None,88149.49204703397,None,1,2022_Jul_08_0904,Semantic-hierachy,2021.1.2,60.03061363771692,
329,Trial # 330,layer9-17_T10_to_T9.jpg,layer9-17/layer9-17_T10_to_T9.jpg,TT,layer9-17,,,,,,,,,0.0,29.0,29.0,29.0,88151.40817106003,None,2.0,1.4697750969789922,88151.40817106003,None,88151.40817106003,None,88151.40817106003,None,1,2022_Jul_08_0904,Semantic-hierachy,2021.1.2,60.03061363771692,
330,Trial # 331,layer0-5_O2_to_O3.jpg,layer0-5/layer0-5_O2_to_O3.jpg,OO,layer0-5,,,,,,,,,0.0,30.0,30.0,30.0,88154.1603417059,None,1.0,1.9380039398092777,88154.1603417059,None,88154.1603417059,None,88154.1603417059,None,1,2022_Jul_08_0904,Semantic-hierachy,2021.1.2,60.03061363771692,
331,Trial # 332,layer6-8_O1_to_O12.jpg,layer6-8/layer6-8_O1_to_O12.jpg,OO,layer6-8,,,,,,,,,0.0,31.0,31.0,31.0,88156.49334289297,None,3.0,3.4613772809971124,88156.49334289297,None,88156.49334289297,None,88156.49334289297,None,1,2022_Jul_08_0904,Semantic-hierachy,2021.1.2,60.03061363771692,
332,Trial # 333,layer0-5_O5_to_T12.jpg,layer0-5/layer0-5_O5_to_T12.jpg,OT,layer0-5,,,,,,,,,0.0,32.0,32.0,32.0,88163.11289011291,None,1.0,1.8902211119420824,88163.11289011291,None,88163.11289011291,None,88163.11289011291,None,1,2022_Jul_08_0904,Semantic-hierachy,2021.1.2,60.03061363771692,
333,Trial # 334,layer9-17_O11_to_T6.jpg,layer9-17/layer9-17_O11_to_T6.jpg,OT,layer9-17,,,,,,,,,0.0,33.0,33.0,33.0,88165.3126222021,None,4.0,62.51201850990765,88165.3126222021,None,88165.3126222021,None,88165.3126222021,None,1,2022_Jul_08_0904,Semantic-hierachy,2021.1.2,60.03061363771692,
334,Trial # 335,layer0-5_O4_to_T1.jpg,layer0-5/layer0-5_O4_to_T1.jpg,OT,layer0-5,,,,,,,,,0.0,34.0,34.0,34.0,88232.9848356191,None,1.0,1.6082890569232404,88232.9848356191,None,88232.9848356191,None,88232.9848356191,None,1,2022_Jul_08_0904,Semantic-hierachy,2021.1.2,60.03061363771692,
335,Trial # 336,layer6-8_T1_to_T6.jpg,layer6-8/layer6-8_T1_to_T6.jpg,TT,layer6-8,,,,,,,,,0.0,35.0,35.0,35.0,88234.98396567302,None,4.0,6.345328286988661,88234.98396567302,None,88234.98396567302,None,88234.98396567302,None,1,2022_Jul_08_0904,Semantic-hierachy,2021.1.2,60.03061363771692,
336,Trial # 337,layer0-5_O12_to_O6.jpg,layer0-5/layer0-5_O12_to_O6.jpg,OO,layer0-5,,,,,,,,,0.0,36.0,36.0,36.0,88242.48611181695,None,1.0,1.4610492498613894,88242.48611181695,None,88242.48611181695,None,88242.48611181695,None,1,2022_Jul_08_0904,Semantic-hierachy,2021.1.2,60.03061363771692,
337,Trial # 338,layer0-5_O1_to_O10.jpg,layer0-5/layer0-5_O1_to_O10.jpg,OO,layer0-5,,,,,,,,,0.0,37.0,37.0,37.0,88244.28768089507,None,1.0,1.3120302320457995,88244.28768089507,None,88244.28768089507,None,88244.28768089507,None,1,2022_Jul_08_0904,Semantic-hierachy,2021.1.2,60.03061363771692,
338,Trial # 339,layer0-5_O9_to_T9.jpg,layer0-5/layer0-5_O9_to_T9.jpg,OT,layer0-5,,,,,,,,,0.0,38.0,38.0,38.0,88245.904194467,None,1.0,1.1356103089638054,88245.904194467,None,88245.904194467,None,88245.904194467,None,1,2022_Jul_08_0904,Semantic-hierachy,2021.1.2,60.03061363771692,
339,Trial # 340,layer6-8_O6_to_T10.jpg,layer6-8/layer6-8_O6_to_T10.jpg,OT,layer6-8,,,,,,,,,0.0,39.0,39.0,39.0,88247.85464145103,None,3.0,2.075127135962248,88247.85464145103,None,88247.85464145103,None,88247.85464145103,None,1,2022_Jul_08_0904,Semantic-hierachy,2021.1.2,60.03061363771692,
340,Trial # 341,layer9-17_O3_to_T3.jpg,layer9-17/layer9-17_O3_to_T3.jpg,OT,layer9-17,,,,,,,,,0.0,40.0,40.0,40.0,88250.95552625298,None,2.0,1.4915047260001302,88250.95552625298,None,88250.95552625298,None,88250.95552625298,None,1,2022_Jul_08_0904,Semantic-hierachy,2021.1.2,60.03061363771692,
341,Trial # 342,layer0-5_O8_to_T8.jpg,layer0-5/layer0-5_O8_to_T8.jpg,OT,layer0-5,,,,,,,,,0.0,41.0,41.0,41.0,88252.67257178505,None,1.0,1.798361049965024,88252.67257178505,None,88252.67257178505,None,88252.67257178505,None,1,2022_Jul_08_0904,Semantic-hierachy,2021.1.2,60.03061363771692,
342,Trial # 343,layer9-17_O11_to_O3.jpg,layer9-17/layer9-17_O11_to_O3.jpg,OO,layer9-17,,,,,,,,,0.0,42.0,42.0,42.0,88255.02375176502,None,2.0,1.4707571030594409,88255.02375176502,None,88255.02375176502,None,88255.02375176502,None,1,2022_Jul_08_0904,Semantic-hierachy,2021.1.2,60.03061363771692,
