,Trial_num,image_name,image_path,pair_type,layers,block1.thisRepN,block1.thisTrialN,block1.thisN,block1.thisIndex,block2.thisRepN,block2.thisTrialN,block2.thisN,block2.thisIndex,block3.thisRepN,block3.thisTrialN,block3.thisN,block3.thisIndex,image_8.started,image_8.stopped,selected_semantic.response,selected_semantic.rt,selected_semantic.started,selected_semantic.stopped,Instruction.started,Instruction.stopped,Trial_number.started,Trial_number.stopped,session,date,expName,psychopyVersion,frameRate,Unnamed: 33
0,Trial # 1,layer0-5_O2_to_T1.jpg,layer0-5/layer0-5_O2_to_T1.jpg,OT,layer0-5,0.0,0.0,0.0,0.0,,,,,,,,,55.50216408201959,None,1.0,19.487799962051213,55.50216408201959,None,55.50216408201959,None,55.50216408201959,None,1,2022_Jun_29_1131,Semantic-hierachy,2021.1.2,59.86980246314613,
1,Trial # 2,layer0-5_O11_to_T7.jpg,layer0-5/layer0-5_O11_to_T7.jpg,OT,layer0-5,0.0,1.0,1.0,1.0,,,,,,,,,112.95214989397208,None,1.0,5.4893254149938,112.95214989397208,None,112.95214989397208,None,112.95214989397208,None,1,2022_Jun_29_1131,Semantic-hierachy,2021.1.2,59.86980246314613,
2,Trial # 3,layer6-8_O3_to_O5.jpg,layer6-8/layer6-8_O3_to_O5.jpg,OO,layer6-8,0.0,2.0,2.0,2.0,,,,,,,,,118.95400089002214,None,4.0,5.826763887016568,118.95400089002214,None,118.95400089002214,None,118.95400089002214,None,1,2022_Jun_29_1131,Semantic-hierachy,2021.1.2,59.86980246314613,
3,Trial # 4,layer6-8_O11_to_O4.jpg,layer6-8/layer6-8_O11_to_O4.jpg,OO,layer6-8,0.0,3.0,3.0,3.0,,,,,,,,,125.09012378001351,None,3.0,3.730132968979888,125.09012378001351,None,125.09012378001351,None,125.09012378001351,None,1,2022_Jun_29_1131,Semantic-hierachy,2021.1.2,59.86980246314613,
4,Trial # 5,layer6-8_O8_to_T8.jpg,layer6-8/layer6-8_O8_to_T8.jpg,OT,layer6-8,0.0,4.0,4.0,4.0,,,,,,,,,129.2405942939804,None,3.0,2.2204168240423314,129.2405942939804,None,129.2405942939804,None,129.2405942939804,None,1,2022_Jun_29_1131,Semantic-hierachy,2021.1.2,59.86980246314613,
5,Trial # 6,layer0-5_O11_to_O8.jpg,layer0-5/layer0-5_O11_to_O8.jpg,OO,layer0-5,0.0,5.0,5.0,5.0,,,,,,,,,131.77571274200454,None,1.0,4.308080332993995,131.77571274200454,None,131.77571274200454,None,131.77571274200454,None,1,2022_Jun_29_1131,Semantic-hierachy,2021.1.2,59.86980246314613,
6,Trial # 7,layer0-5_T10_to_T11.jpg,layer0-5/layer0-5_T10_to_T11.jpg,TT,layer0-5,0.0,6.0,6.0,6.0,,,,,,,,,136.52649026701692,None,1.0,2.8416336870286614,136.52649026701692,None,136.52649026701692,None,136.52649026701692,None,1,2022_Jun_29_1131,Semantic-hierachy,2021.1.2,59.86980246314613,
7,Trial # 8,layer9-17_O6_to_O9.jpg,layer9-17/layer9-17_O6_to_O9.jpg,OO,layer9-17,0.0,7.0,7.0,7.0,,,,,,,,,139.62757839699043,None,2.0,1.6762531530112028,139.62757839699043,None,139.62757839699043,None,139.62757839699043,None,1,2022_Jun_29_1131,Semantic-hierachy,2021.1.2,59.86980246314613,
8,Trial # 9,layer6-8_O12_to_O9.jpg,layer6-8/layer6-8_O12_to_O9.jpg,OO,layer6-8,0.0,8.0,8.0,8.0,,,,,,,,,141.56106105900835,None,4.0,4.72170474100858,141.56106105900835,None,141.56106105900835,None,141.56106105900835,None,1,2022_Jun_29_1131,Semantic-hierachy,2021.1.2,59.86980246314613,
9,Trial # 10,layer0-5_O10_to_T2.jpg,layer0-5/layer0-5_O10_to_T2.jpg,OT,layer0-5,0.0,9.0,9.0,9.0,,,,,,,,,146.5970850290032,None,4.0,3.1967812679940835,146.5970850290032,None,146.5970850290032,None,146.5970850290032,None,1,2022_Jun_29_1131,Semantic-hierachy,2021.1.2,59.86980246314613,
10,Trial # 11,layer9-17_T10_to_T2.jpg,layer9-17/layer9-17_T10_to_T2.jpg,TT,layer9-17,0.0,10.0,10.0,10.0,,,,,,,,,150.11460793099832,None,4.0,8.326634305994958,150.11460793099832,None,150.11460793099832,None,150.11460793099832,None,1,2022_Jun_29_1131,Semantic-hierachy,2021.1.2,59.86980246314613,
11,Trial # 12,layer6-8_T6_to_T7.jpg,layer6-8/layer6-8_T6_to_T7.jpg,TT,layer6-8,0.0,11.0,11.0,11.0,,,,,,,,,164.1846481860266,None,3.0,2.374101445020642,164.1846481860266,None,164.1846481860266,None,164.1846481860266,None,1,2022_Jun_29_1131,Semantic-hierachy,2021.1.2,59.86980246314613,
12,Trial # 13,layer9-17_O10_to_T2.jpg,layer9-17/layer9-17_O10_to_T2.jpg,OT,layer9-17,0.0,12.0,12.0,12.0,,,,,,,,,166.77000263199443,None,2.0,1.8188529900508,166.77000263199443,None,166.77000263199443,None,166.77000263199443,None,1,2022_Jun_29_1131,Semantic-hierachy,2021.1.2,59.86980246314613,
13,Trial # 14,layer6-8_T4_to_T7.jpg,layer6-8/layer6-8_T4_to_T7.jpg,TT,layer6-8,0.0,13.0,13.0,13.0,,,,,,,,,168.8193877899903,None,2.0,3.972945755987894,168.8193877899903,None,168.8193877899903,None,168.8193877899903,None,1,2022_Jun_29_1131,Semantic-hierachy,2021.1.2,59.86980246314613,
14,Trial # 15,layer9-17_O8_to_T2.jpg,layer9-17/layer9-17_O8_to_T2.jpg,OT,layer9-17,0.0,14.0,14.0,14.0,,,,,,,,,173.05407466902398,None,2.0,1.244296908029355,173.05407466902398,None,173.05407466902398,None,173.05407466902398,None,1,2022_Jun_29_1131,Semantic-hierachy,2021.1.2,59.86980246314613,
15,Trial # 16,layer0-5_T6_to_T9.jpg,layer0-5/layer0-5_T6_to_T9.jpg,TT,layer0-5,0.0,15.0,15.0,15.0,,,,,,,,,174.50493499502772,None,1.0,2.324606398004107,174.50493499502772,None,174.50493499502772,None,174.50493499502772,None,1,2022_Jun_29_1131,Semantic-hierachy,2021.1.2,59.86980246314613,
16,Trial # 17,layer0-5_O11_to_O12.jpg,layer0-5/layer0-5_O11_to_O12.jpg,OO,layer0-5,0.0,16.0,16.0,16.0,,,,,,,,,177.32194302300925,None,1.0,1.4901403299882077,177.32194302300925,None,177.32194302300925,None,177.32194302300925,None,1,2022_Jun_29_1131,Semantic-hierachy,2021.1.2,59.86980246314613,
17,Trial # 18,layer0-5_T11_to_T5.jpg,layer0-5/layer0-5_T11_to_T5.jpg,TT,layer0-5,0.0,17.0,17.0,17.0,,,,,,,,,179.22316288301954,None,1.0,2.4599046919611283,179.22316288301954,None,179.22316288301954,None,179.22316288301954,None,1,2022_Jun_29_1131,Semantic-hierachy,2021.1.2,59.86980246314613,
18,Trial # 19,layer0-5_O6_to_T12.jpg,layer0-5/layer0-5_O6_to_T12.jpg,OT,layer0-5,0.0,18.0,18.0,18.0,,,,,,,,,182.24019780301023,None,1.0,1.3893978419946509,182.24019780301023,None,182.24019780301023,None,182.24019780301023,None,1,2022_Jun_29_1131,Semantic-hierachy,2021.1.2,59.86980246314613,
19,Trial # 20,layer6-8_T6_to_T8.jpg,layer6-8/layer6-8_T6_to_T8.jpg,TT,layer6-8,0.0,19.0,19.0,19.0,,,,,,,,,183.82389539497672,None,3.0,4.073663629009388,183.82389539497672,None,183.82389539497672,None,183.82389539497672,None,1,2022_Jun_29_1131,Semantic-hierachy,2021.1.2,59.86980246314613,
20,Trial # 21,layer9-17_T2_to_T5.jpg,layer9-17/layer9-17_T2_to_T5.jpg,TT,layer9-17,0.0,20.0,20.0,20.0,,,,,,,,,188.14209123601904,None,2.0,1.8941399180330336,188.14209123601904,None,188.14209123601904,None,188.14209123601904,None,1,2022_Jun_29_1131,Semantic-hierachy,2021.1.2,59.86980246314613,
21,Trial # 22,layer6-8_O2_to_O6.jpg,layer6-8/layer6-8_O2_to_O6.jpg,OO,layer6-8,0.0,21.0,21.0,21.0,,,,,,,,,190.29396262700905,None,2.0,2.589396699971985,190.29396262700905,None,190.29396262700905,None,190.29396262700905,None,1,2022_Jun_29_1131,Semantic-hierachy,2021.1.2,59.86980246314613,
22,Trial # 23,layer9-17_O3_to_T12.jpg,layer9-17/layer9-17_O3_to_T12.jpg,OT,layer9-17,0.0,22.0,22.0,22.0,,,,,,,,,193.06028023501855,None,2.0,1.1206801100051962,193.06028023501855,None,193.06028023501855,None,193.06028023501855,None,1,2022_Jun_29_1131,Semantic-hierachy,2021.1.2,59.86980246314613,
23,Trial # 24,layer0-5_O11_to_O3.jpg,layer0-5/layer0-5_O11_to_O3.jpg,OO,layer0-5,0.0,23.0,23.0,23.0,,,,,,,,,194.39399845100704,None,1.0,1.9108261489891447,194.39399845100704,None,194.39399845100704,None,194.39399845100704,None,1,2022_Jun_29_1131,Semantic-hierachy,2021.1.2,59.86980246314613,
24,Trial # 25,layer6-8_O2_to_O9.jpg,layer6-8/layer6-8_O2_to_O9.jpg,OO,layer6-8,0.0,24.0,24.0,24.0,,,,,,,,,196.62926169700225,None,4.0,2.804438283026684,196.62926169700225,None,196.62926169700225,None,196.62926169700225,None,1,2022_Jun_29_1131,Semantic-hierachy,2021.1.2,59.86980246314613,
25,Trial # 26,layer9-17_O10_to_O8.jpg,layer9-17/layer9-17_O10_to_O8.jpg,OO,layer9-17,0.0,25.0,25.0,25.0,,,,,,,,,199.59533230302625,None,4.0,4.791666629957035,199.59533230302625,None,199.59533230302625,None,199.59533230302625,None,1,2022_Jun_29_1131,Semantic-hierachy,2021.1.2,59.86980246314613,
26,Trial # 27,layer9-17_T4_to_T6.jpg,layer9-17/layer9-17_T4_to_T6.jpg,TT,layer9-17,0.0,26.0,26.0,26.0,,,,,,,,,204.96391086297808,None,2.0,2.047753137012478,204.96391086297808,None,204.96391086297808,None,204.96391086297808,None,1,2022_Jun_29_1131,Semantic-hierachy,2021.1.2,59.86980246314613,
27,Trial # 28,layer6-8_O7_to_T8.jpg,layer6-8/layer6-8_O7_to_T8.jpg,OT,layer6-8,0.0,27.0,27.0,27.0,,,,,,,,,207.23201289202552,None,2.0,1.5898676309734583,207.23201289202552,None,207.23201289202552,None,207.23201289202552,None,1,2022_Jun_29_1131,Semantic-hierachy,2021.1.2,59.86980246314613,
28,Trial # 29,layer6-8_T4_to_T5.jpg,layer6-8/layer6-8_T4_to_T5.jpg,TT,layer6-8,0.0,28.0,28.0,28.0,,,,,,,,,209.06496422097555,None,3.0,4.1023707870044746,209.06496422097555,None,209.06496422097555,None,209.06496422097555,None,1,2022_Jun_29_1131,Semantic-hierachy,2021.1.2,59.86980246314613,
29,Trial # 30,layer6-8_T10_to_T9.jpg,layer6-8/layer6-8_T10_to_T9.jpg,TT,layer6-8,0.0,29.0,29.0,29.0,,,,,,,,,213.44963715597987,None,4.0,3.0500582110253163,213.44963715597987,None,213.44963715597987,None,213.44963715597987,None,1,2022_Jun_29_1131,Semantic-hierachy,2021.1.2,59.86980246314613,
30,Trial # 31,layer9-17_O1_to_O8.jpg,layer9-17/layer9-17_O1_to_O8.jpg,OO,layer9-17,0.0,30.0,30.0,30.0,,,,,,,,,216.8354299860075,None,2.0,2.0707427279558037,216.8354299860075,None,216.8354299860075,None,216.8354299860075,None,1,2022_Jun_29_1131,Semantic-hierachy,2021.1.2,59.86980246314613,
31,Trial # 32,layer9-17_O12_to_O7.jpg,layer9-17/layer9-17_O12_to_O7.jpg,OO,layer9-17,0.0,31.0,31.0,31.0,,,,,,,,,219.23507819802035,None,2.0,1.5120795310358517,219.23507819802035,None,219.23507819802035,None,219.23507819802035,None,1,2022_Jun_29_1131,Semantic-hierachy,2021.1.2,59.86980246314613,
32,Trial # 33,layer9-17_T10_to_T12.jpg,layer9-17/layer9-17_T10_to_T12.jpg,TT,layer9-17,0.0,32.0,32.0,32.0,,,,,,,,,221.08660085697196,None,4.0,2.278216361009981,221.08660085697196,None,221.08660085697196,None,221.08660085697196,None,1,2022_Jun_29_1131,Semantic-hierachy,2021.1.2,59.86980246314613,
33,Trial # 34,layer0-5_T2_to_T6.jpg,layer0-5/layer0-5_T2_to_T6.jpg,TT,layer0-5,0.0,33.0,33.0,33.0,,,,,,,,,223.569614920998,None,1.0,2.689744034956675,223.569614920998,None,223.569614920998,None,223.569614920998,None,1,2022_Jun_29_1131,Semantic-hierachy,2021.1.2,59.86980246314613,
34,Trial # 35,layer6-8_T11_to_T2.jpg,layer6-8/layer6-8_T11_to_T2.jpg,TT,layer6-8,0.0,34.0,34.0,34.0,,,,,,,,,226.58839854301183,None,4.0,2.5156155609874986,226.58839854301183,None,226.58839854301183,None,226.58839854301183,None,1,2022_Jun_29_1131,Semantic-hierachy,2021.1.2,59.86980246314613,
35,Trial # 36,layer6-8_O4_to_T3.jpg,layer6-8/layer6-8_O4_to_T3.jpg,OT,layer6-8,0.0,35.0,35.0,35.0,,,,,,,,,229.33756702201208,None,3.0,2.07935852202354,229.33756702201208,None,229.33756702201208,None,229.33756702201208,None,1,2022_Jun_29_1131,Semantic-hierachy,2021.1.2,59.86980246314613,
36,Trial # 37,layer6-8_O3_to_T11.jpg,layer6-8/layer6-8_O3_to_T11.jpg,OT,layer6-8,0.0,36.0,36.0,36.0,,,,,,,,,231.6225549079827,None,2.0,1.8386502240318805,231.6225549079827,None,231.6225549079827,None,231.6225549079827,None,1,2022_Jun_29_1131,Semantic-hierachy,2021.1.2,59.86980246314613,
37,Trial # 38,layer6-8_T1_to_T2.jpg,layer6-8/layer6-8_T1_to_T2.jpg,TT,layer6-8,0.0,37.0,37.0,37.0,,,,,,,,,233.67312684102217,None,4.0,6.55512658302905,233.67312684102217,None,233.67312684102217,None,233.67312684102217,None,1,2022_Jun_29_1131,Semantic-hierachy,2021.1.2,59.86980246314613,
38,Trial # 39,layer9-17_O2_to_O6.jpg,layer9-17/layer9-17_O2_to_O6.jpg,OO,layer9-17,0.0,38.0,38.0,38.0,,,,,,,,,240.45941281499108,None,4.0,2.973371713014785,240.45941281499108,None,240.45941281499108,None,240.45941281499108,None,1,2022_Jun_29_1131,Semantic-hierachy,2021.1.2,59.86980246314613,
39,Trial # 40,layer9-17_O4_to_T2.jpg,layer9-17/layer9-17_O4_to_T2.jpg,OT,layer9-17,0.0,39.0,39.0,39.0,,,,,,,,,243.5754033710109,None,2.0,2.025575506966561,243.5754033710109,None,243.5754033710109,None,243.5754033710109,None,1,2022_Jun_29_1131,Semantic-hierachy,2021.1.2,59.86980246314613,
40,Trial # 41,layer6-8_O5_to_T3.jpg,layer6-8/layer6-8_O5_to_T3.jpg,OT,layer6-8,0.0,40.0,40.0,40.0,,,,,,,,,245.86007366300328,None,3.0,3.90752963302657,245.86007366300328,None,245.86007366300328,None,245.86007366300328,None,1,2022_Jun_29_1131,Semantic-hierachy,2021.1.2,59.86980246314613,
41,Trial # 42,layer6-8_O2_to_O3.jpg,layer6-8/layer6-8_O2_to_O3.jpg,OO,layer6-8,0.0,41.0,41.0,41.0,,,,,,,,,249.97784341097577,None,4.0,1.9130161890061568,249.97784341097577,None,249.97784341097577,None,249.97784341097577,None,1,2022_Jun_29_1131,Semantic-hierachy,2021.1.2,59.86980246314613,
42,Trial # 43,layer6-8_O1_to_T6.jpg,layer6-8/layer6-8_O1_to_T6.jpg,OT,layer6-8,0.0,42.0,42.0,42.0,,,,,,,,,252.11194519902347,None,2.0,5.4439656879985705,252.11194519902347,None,252.11194519902347,None,252.11194519902347,None,1,2022_Jun_29_1131,Semantic-hierachy,2021.1.2,59.86980246314613,
43,Trial # 44,layer6-8_O2_to_T12.jpg,layer6-8/layer6-8_O2_to_T12.jpg,OT,layer6-8,0.0,43.0,43.0,43.0,,,,,,,,,257.7969935130095,None,3.0,2.672124484030064,257.7969935130095,None,257.7969935130095,None,257.7969935130095,None,1,2022_Jun_29_1131,Semantic-hierachy,2021.1.2,59.86980246314613,
44,Trial # 45,layer9-17_O2_to_O8.jpg,layer9-17/layer9-17_O2_to_O8.jpg,OO,layer9-17,0.0,44.0,44.0,44.0,,,,,,,,,262.3152755239862,None,4.0,2.4931754479766823,262.3152755239862,None,262.3152755239862,None,262.3152755239862,None,1,2022_Jun_29_1131,Semantic-hierachy,2021.1.2,59.86980246314613,
45,Trial # 46,layer9-17_O10_to_O4.jpg,layer9-17/layer9-17_O10_to_O4.jpg,OO,layer9-17,0.0,45.0,45.0,45.0,,,,,,,,,265.0660973690101,None,2.0,5.171253892011009,265.0660973690101,None,265.0660973690101,None,265.0660973690101,None,1,2022_Jun_29_1131,Semantic-hierachy,2021.1.2,59.86980246314613,
46,Trial # 47,layer0-5_O1_to_O4.jpg,layer0-5/layer0-5_O1_to_O4.jpg,OO,layer0-5,0.0,46.0,46.0,46.0,,,,,,,,,270.4020610229927,None,1.0,2.0493223349913023,270.4020610229927,None,270.4020610229927,None,270.4020610229927,None,1,2022_Jun_29_1131,Semantic-hierachy,2021.1.2,59.86980246314613,
47,Trial # 48,layer0-5_T4_to_T5.jpg,layer0-5/layer0-5_T4_to_T5.jpg,TT,layer0-5,0.0,47.0,47.0,47.0,,,,,,,,,272.6845669429749,None,1.0,1.878565122024156,272.6845669429749,None,272.6845669429749,None,272.6845669429749,None,1,2022_Jun_29_1131,Semantic-hierachy,2021.1.2,59.86980246314613,
48,Trial # 49,layer9-17_T12_to_T8.jpg,layer9-17/layer9-17_T12_to_T8.jpg,TT,layer9-17,0.0,48.0,48.0,48.0,,,,,,,,,274.80201379198115,None,2.0,1.726094159996137,274.80201379198115,None,274.80201379198115,None,274.80201379198115,None,1,2022_Jun_29_1131,Semantic-hierachy,2021.1.2,59.86980246314613,
49,Trial # 50,layer0-5_T10_to_T5.jpg,layer0-5/layer0-5_T10_to_T5.jpg,TT,layer0-5,0.0,49.0,49.0,49.0,,,,,,,,,276.8372240299941,None,1.0,2.1444192730123177,276.8372240299941,None,276.8372240299941,None,276.8372240299941,None,1,2022_Jun_29_1131,Semantic-hierachy,2021.1.2,59.86980246314613,
50,Trial # 51,layer6-8_O10_to_O8.jpg,layer6-8/layer6-8_O10_to_O8.jpg,OO,layer6-8,0.0,50.0,50.0,50.0,,,,,,,,,279.20404415397206,None,2.0,3.4604339780053124,279.20404415397206,None,279.20404415397206,None,279.20404415397206,None,1,2022_Jun_29_1131,Semantic-hierachy,2021.1.2,59.86980246314613,
51,Trial # 52,layer9-17_O3_to_O5.jpg,layer9-17/layer9-17_O3_to_O5.jpg,OO,layer9-17,0.0,51.0,51.0,51.0,,,,,,,,,282.80465615401044,None,2.0,0.9958869160036556,282.80465615401044,None,282.80465615401044,None,282.80465615401044,None,1,2022_Jun_29_1131,Semantic-hierachy,2021.1.2,59.86980246314613,
52,Trial # 53,layer6-8_T1_to_T12.jpg,layer6-8/layer6-8_T1_to_T12.jpg,TT,layer6-8,0.0,52.0,52.0,52.0,,,,,,,,,284.0548342150287,None,3.0,1.991003536968492,284.0548342150287,None,284.0548342150287,None,284.0548342150287,None,1,2022_Jun_29_1131,Semantic-hierachy,2021.1.2,59.86980246314613,
53,Trial # 54,layer0-5_O4_to_O9.jpg,layer0-5/layer0-5_O4_to_O9.jpg,OO,layer0-5,0.0,53.0,53.0,53.0,,,,,,,,,286.2728289969964,None,1.0,2.715273256006185,286.2728289969964,None,286.2728289969964,None,286.2728289969964,None,1,2022_Jun_29_1131,Semantic-hierachy,2021.1.2,59.86980246314613,
54,Trial # 55,layer0-5_O5_to_O9.jpg,layer0-5/layer0-5_O5_to_O9.jpg,OO,layer0-5,0.0,54.0,54.0,54.0,,,,,,,,,289.2567183439969,None,1.0,1.814208179013804,289.2567183439969,None,289.2567183439969,None,289.2567183439969,None,1,2022_Jun_29_1131,Semantic-hierachy,2021.1.2,59.86980246314613,
55,Trial # 56,layer0-5_O1_to_O2.jpg,layer0-5/layer0-5_O1_to_O2.jpg,OO,layer0-5,0.0,55.0,55.0,55.0,,,,,,,,,291.2918302949984,None,1.0,1.87589000799926,291.2918302949984,None,291.2918302949984,None,291.2918302949984,None,1,2022_Jun_29_1131,Semantic-hierachy,2021.1.2,59.86980246314613,
56,Trial # 57,layer9-17_T12_to_T3.jpg,layer9-17/layer9-17_T12_to_T3.jpg,TT,layer9-17,0.0,56.0,56.0,56.0,,,,,,,,,293.3754572229809,None,2.0,1.5699472880223766,293.3754572229809,None,293.3754572229809,None,293.3754572229809,None,1,2022_Jun_29_1131,Semantic-hierachy,2021.1.2,59.86980246314613,
57,Trial # 58,layer0-5_O7_to_O9.jpg,layer0-5/layer0-5_O7_to_O9.jpg,OO,layer0-5,0.0,57.0,57.0,57.0,,,,,,,,,295.2098362160032,None,1.0,1.5563395320205018,295.2098362160032,None,295.2098362160032,None,295.2098362160032,None,1,2022_Jun_29_1131,Semantic-hierachy,2021.1.2,59.86980246314613,
58,Trial # 59,layer0-5_T5_to_T9.jpg,layer0-5/layer0-5_T5_to_T9.jpg,TT,layer0-5,0.0,58.0,58.0,58.0,,,,,,,,,297.2091254640254,None,1.0,3.946293068001978,297.2091254640254,None,297.2091254640254,None,297.2091254640254,None,1,2022_Jun_29_1131,Semantic-hierachy,2021.1.2,59.86980246314613,
59,Trial # 60,layer9-17_O1_to_O9.jpg,layer9-17/layer9-17_O1_to_O9.jpg,OO,layer9-17,0.0,59.0,59.0,59.0,,,,,,,,,301.3611310159904,None,4.0,4.157919616030995,301.3611310159904,None,301.3611310159904,None,301.3611310159904,None,1,2022_Jun_29_1131,Semantic-hierachy,2021.1.2,59.86980246314613,
60,Trial # 61,layer0-5_O6_to_O7.jpg,layer0-5/layer0-5_O6_to_O7.jpg,OO,layer0-5,0.0,60.0,60.0,60.0,,,,,,,,,305.7622633459978,None,1.0,1.952887610998005,305.7622633459978,None,305.7622633459978,None,305.7622633459978,None,1,2022_Jun_29_1131,Semantic-hierachy,2021.1.2,59.86980246314613,
61,Trial # 62,layer9-17_T5_to_T6.jpg,layer9-17/layer9-17_T5_to_T6.jpg,TT,layer9-17,0.0,61.0,61.0,61.0,,,,,,,,,307.9957632099977,None,2.0,2.3132253600051627,307.9957632099977,None,307.9957632099977,None,307.9957632099977,None,1,2022_Jun_29_1131,Semantic-hierachy,2021.1.2,59.86980246314613,
62,Trial # 63,layer9-17_T4_to_T9.jpg,layer9-17/layer9-17_T4_to_T9.jpg,TT,layer9-17,0.0,62.0,62.0,62.0,,,,,,,,,310.4977870209841,None,2.0,1.4091879579937086,310.4977870209841,None,310.4977870209841,None,310.4977870209841,None,1,2022_Jun_29_1131,Semantic-hierachy,2021.1.2,59.86980246314613,
63,Trial # 64,layer0-5_O11_to_T1.jpg,layer0-5/layer0-5_O11_to_T1.jpg,OT,layer0-5,0.0,63.0,63.0,63.0,,,,,,,,,312.11376869899686,None,1.0,1.9096486269845627,312.11376869899686,None,312.11376869899686,None,312.11376869899686,None,1,2022_Jun_29_1131,Semantic-hierachy,2021.1.2,59.86980246314613,
64,Trial # 65,layer6-8_T5_to_T9.jpg,layer6-8/layer6-8_T5_to_T9.jpg,TT,layer6-8,0.0,64.0,64.0,64.0,,,,,,,,,314.51439683599165,None,2.0,3.26201124698855,314.51439683599165,None,314.51439683599165,None,314.51439683599165,None,1,2022_Jun_29_1131,Semantic-hierachy,2021.1.2,59.86980246314613,
65,Trial # 66,layer0-5_T4_to_T7.jpg,layer0-5/layer0-5_T4_to_T7.jpg,TT,layer0-5,0.0,65.0,65.0,65.0,,,,,,,,,318.6657875290257,None,1.0,1.7249880590243265,318.6657875290257,None,318.6657875290257,None,318.6657875290257,None,1,2022_Jun_29_1131,Semantic-hierachy,2021.1.2,59.86980246314613,
66,Trial # 67,layer0-5_O2_to_O6.jpg,layer0-5/layer0-5_O2_to_O6.jpg,OO,layer0-5,0.0,66.0,66.0,66.0,,,,,,,,,320.634241147025,None,1.0,1.2737487560370937,320.634241147025,None,320.634241147025,None,320.634241147025,None,1,2022_Jun_29_1131,Semantic-hierachy,2021.1.2,59.86980246314613,
67,Trial # 68,layer9-17_O12_to_T3.jpg,layer9-17/layer9-17_O12_to_T3.jpg,OT,layer9-17,0.0,67.0,67.0,67.0,,,,,,,,,322.31692241999554,None,2.0,1.529070759017486,322.31692241999554,None,322.31692241999554,None,322.31692241999554,None,1,2022_Jun_29_1131,Semantic-hierachy,2021.1.2,59.86980246314613,
68,Trial # 69,layer9-17_O7_to_O9.jpg,layer9-17/layer9-17_O7_to_O9.jpg,OO,layer9-17,0.0,68.0,68.0,68.0,,,,,,,,,324.1508674370125,None,4.0,4.977039964986034,324.1508674370125,None,324.1508674370125,None,324.1508674370125,None,1,2022_Jun_29_1131,Semantic-hierachy,2021.1.2,59.86980246314613,
69,Trial # 70,layer9-17_T1_to_T8.jpg,layer9-17/layer9-17_T1_to_T8.jpg,TT,layer9-17,0.0,69.0,69.0,69.0,,,,,,,,,329.6855807310203,None,3.0,2.377549957949668,329.6855807310203,None,329.6855807310203,None,329.6855807310203,None,1,2022_Jun_29_1131,Semantic-hierachy,2021.1.2,59.86980246314613,
70,Trial # 71,layer0-5_O3_to_T8.jpg,layer0-5/layer0-5_O3_to_T8.jpg,OT,layer0-5,0.0,70.0,70.0,70.0,,,,,,,,,332.3533642219845,None,1.0,1.892604709020816,332.3533642219845,None,332.3533642219845,None,332.3533642219845,None,1,2022_Jun_29_1131,Semantic-hierachy,2021.1.2,59.86980246314613,
71,Trial # 72,layer9-17_O9_to_T2.jpg,layer9-17/layer9-17_O9_to_T2.jpg,OT,layer9-17,0.0,71.0,71.0,71.0,,,,,,,,,334.5040707869921,None,2.0,4.609763899003156,334.5040707869921,None,334.5040707869921,None,334.5040707869921,None,1,2022_Jun_29_1131,Semantic-hierachy,2021.1.2,59.86980246314613,
72,Trial # 73,layer9-17_O5_to_O7.jpg,layer9-17/layer9-17_O5_to_O7.jpg,OO,layer9-17,0.0,72.0,72.0,72.0,,,,,,,,,341.5908416120219,None,2.0,1.6068654080154374,341.5908416120219,None,341.5908416120219,None,341.5908416120219,None,1,2022_Jun_29_1131,Semantic-hierachy,2021.1.2,59.86980246314613,
73,Trial # 74,layer0-5_T11_to_T9.jpg,layer0-5/layer0-5_T11_to_T9.jpg,TT,layer0-5,0.0,73.0,73.0,73.0,,,,,,,,,343.38984170602635,None,1.0,1.86609916301677,343.38984170602635,None,343.38984170602635,None,343.38984170602635,None,1,2022_Jun_29_1131,Semantic-hierachy,2021.1.2,59.86980246314613,
74,Trial # 75,layer0-5_O11_to_T12.jpg,layer0-5/layer0-5_O11_to_T12.jpg,OT,layer0-5,0.0,74.0,74.0,74.0,,,,,,,,,345.5420270630275,None,1.0,1.5927549350308254,345.5420270630275,None,345.5420270630275,None,345.5420270630275,None,1,2022_Jun_29_1131,Semantic-hierachy,2021.1.2,59.86980246314613,
75,Trial # 76,layer9-17_T7_to_T9.jpg,layer9-17/layer9-17_T7_to_T9.jpg,TT,layer9-17,0.0,75.0,75.0,75.0,,,,,,,,,347.3423155709752,None,4.0,4.4606795069994405,347.3423155709752,None,347.3423155709752,None,347.3423155709752,None,1,2022_Jun_29_1131,Semantic-hierachy,2021.1.2,59.86980246314613,
76,Trial # 77,layer6-8_O6_to_T2.jpg,layer6-8/layer6-8_O6_to_T2.jpg,OT,layer6-8,0.0,76.0,76.0,76.0,,,,,,,,,352.00948181800777,None,3.0,2.6930789100006223,352.00948181800777,None,352.00948181800777,None,352.00948181800777,None,1,2022_Jun_29_1131,Semantic-hierachy,2021.1.2,59.86980246314613,
77,Trial # 78,layer9-17_T4_to_T5.jpg,layer9-17/layer9-17_T4_to_T5.jpg,TT,layer9-17,0.0,77.0,77.0,77.0,,,,,,,,,355.228748153022,None,2.0,2.4784887050045654,355.228748153022,None,355.228748153022,None,355.228748153022,None,1,2022_Jun_29_1131,Semantic-hierachy,2021.1.2,59.86980246314613,
78,Trial # 79,layer0-5_T2_to_T4.jpg,layer0-5/layer0-5_T2_to_T4.jpg,TT,layer0-5,0.0,78.0,78.0,78.0,,,,,,,,,357.9610907830065,None,1.0,2.0090237610274926,357.9610907830065,None,357.9610907830065,None,357.9610907830065,None,1,2022_Jun_29_1131,Semantic-hierachy,2021.1.2,59.86980246314613,
79,Trial # 80,layer0-5_T2_to_T8.jpg,layer0-5/layer0-5_T2_to_T8.jpg,TT,layer0-5,0.0,79.0,79.0,79.0,,,,,,,,,360.1466453920002,None,1.0,1.214540169981774,360.1466453920002,None,360.1466453920002,None,360.1466453920002,None,1,2022_Jun_29_1131,Semantic-hierachy,2021.1.2,59.86980246314613,
80,Trial # 81,layer9-17_T3_to_T9.jpg,layer9-17/layer9-17_T3_to_T9.jpg,TT,layer9-17,0.0,80.0,80.0,80.0,,,,,,,,,362.3290746539715,None,2.0,2.3444763810257427,362.3290746539715,None,362.3290746539715,None,362.3290746539715,None,1,2022_Jun_29_1131,Semantic-hierachy,2021.1.2,59.86980246314613,
81,Trial # 82,layer9-17_O2_to_O5.jpg,layer9-17/layer9-17_O2_to_O5.jpg,OO,layer9-17,0.0,81.0,81.0,81.0,,,,,,,,,364.93004699697485,None,2.0,1.4766159470309503,364.93004699697485,None,364.93004699697485,None,364.93004699697485,None,1,2022_Jun_29_1131,Semantic-hierachy,2021.1.2,59.86980246314613,
82,Trial # 83,layer6-8_O6_to_O7.jpg,layer6-8/layer6-8_O6_to_O7.jpg,OO,layer6-8,0.0,82.0,82.0,82.0,,,,,,,,,366.614830075996,None,2.0,1.27363339002477,366.614830075996,None,366.614830075996,None,366.614830075996,None,1,2022_Jun_29_1131,Semantic-hierachy,2021.1.2,59.86980246314613,
83,Trial # 84,layer9-17_O11_to_T1.jpg,layer9-17/layer9-17_O11_to_T1.jpg,OT,layer9-17,0.0,83.0,83.0,83.0,,,,,,,,,368.1309862440103,None,2.0,1.2112891880096868,368.1309862440103,None,368.1309862440103,None,368.1309862440103,None,1,2022_Jun_29_1131,Semantic-hierachy,2021.1.2,59.86980246314613,
84,Trial # 85,layer6-8_O5_to_T12.jpg,layer6-8/layer6-8_O5_to_T12.jpg,OT,layer6-8,0.0,84.0,84.0,84.0,,,,,,,,,369.5315037919791,None,3.0,2.947005196998361,369.5315037919791,None,369.5315037919791,None,369.5315037919791,None,1,2022_Jun_29_1131,Semantic-hierachy,2021.1.2,59.86980246314613,
85,Trial # 86,layer6-8_O4_to_O7.jpg,layer6-8/layer6-8_O4_to_O7.jpg,OO,layer6-8,0.0,85.0,85.0,85.0,,,,,,,,,372.7656316009816,None,2.0,2.491244343982544,372.7656316009816,None,372.7656316009816,None,372.7656316009816,None,1,2022_Jun_29_1131,Semantic-hierachy,2021.1.2,59.86980246314613,
86,Trial # 87,layer6-8_T10_to_T8.jpg,layer6-8/layer6-8_T10_to_T8.jpg,TT,layer6-8,0.0,86.0,86.0,86.0,,,,,,,,,375.9179090859834,None,2.0,1.2876280609634705,375.9179090859834,None,375.9179090859834,None,375.9179090859834,None,1,2022_Jun_29_1131,Semantic-hierachy,2021.1.2,59.86980246314613,
87,Trial # 88,layer6-8_O10_to_T3.jpg,layer6-8/layer6-8_O10_to_T3.jpg,OT,layer6-8,0.0,87.0,87.0,87.0,,,,,,,,,378.00086806499166,None,3.0,2.778127208002843,378.00086806499166,None,378.00086806499166,None,378.00086806499166,None,1,2022_Jun_29_1131,Semantic-hierachy,2021.1.2,59.86980246314613,
88,Trial # 89,layer6-8_O5_to_O9.jpg,layer6-8/layer6-8_O5_to_O9.jpg,OO,layer6-8,0.0,88.0,88.0,88.0,,,,,,,,,381.0696371250088,None,2.0,3.209486276959069,381.0696371250088,None,381.0696371250088,None,381.0696371250088,None,1,2022_Jun_29_1131,Semantic-hierachy,2021.1.2,59.86980246314613,
89,Trial # 90,layer6-8_O10_to_O11.jpg,layer6-8/layer6-8_O10_to_O11.jpg,OO,layer6-8,0.0,89.0,89.0,89.0,,,,,,,,,384.6195352809737,None,3.0,3.3269250380108133,384.6195352809737,None,384.6195352809737,None,384.6195352809737,None,1,2022_Jun_29_1131,Semantic-hierachy,2021.1.2,59.86980246314613,
90,Trial # 91,layer0-5_O4_to_T5.jpg,layer0-5/layer0-5_O4_to_T5.jpg,OT,layer0-5,0.0,90.0,90.0,90.0,,,,,,,,,388.2874063270283,None,1.0,1.9114480569842272,388.2874063270283,None,388.2874063270283,None,388.2874063270283,None,1,2022_Jun_29_1131,Semantic-hierachy,2021.1.2,59.86980246314613,
91,Trial # 92,layer0-5_T11_to_T12.jpg,layer0-5/layer0-5_T11_to_T12.jpg,TT,layer0-5,0.0,91.0,91.0,91.0,,,,,,,,,390.40604822401656,None,1.0,3.2949567129835486,390.40604822401656,None,390.40604822401656,None,390.40604822401656,None,1,2022_Jun_29_1131,Semantic-hierachy,2021.1.2,59.86980246314613,
92,Trial # 93,layer0-5_T10_to_T3.jpg,layer0-5/layer0-5_T10_to_T3.jpg,TT,layer0-5,0.0,92.0,92.0,92.0,,,,,,,,,394.0222441080259,None,1.0,2.1195009620278142,394.0222441080259,None,394.0222441080259,None,394.0222441080259,None,1,2022_Jun_29_1131,Semantic-hierachy,2021.1.2,59.86980246314613,
93,Trial # 94,layer0-5_O2_to_O8.jpg,layer0-5/layer0-5_O2_to_O8.jpg,OO,layer0-5,0.0,93.0,93.0,93.0,,,,,,,,,396.4906684649759,None,1.0,1.230332966952119,396.4906684649759,None,396.4906684649759,None,396.4906684649759,None,1,2022_Jun_29_1131,Semantic-hierachy,2021.1.2,59.86980246314613,
94,Trial # 95,layer0-5_T3_to_T8.jpg,layer0-5/layer0-5_T3_to_T8.jpg,TT,layer0-5,0.0,94.0,94.0,94.0,,,,,,,,,398.2069365379866,None,1.0,1.1250268270378,398.2069365379866,None,398.2069365379866,None,398.2069365379866,None,1,2022_Jun_29_1131,Semantic-hierachy,2021.1.2,59.86980246314613,
95,Trial # 96,layer0-5_O7_to_O8.jpg,layer0-5/layer0-5_O7_to_O8.jpg,OO,layer0-5,0.0,95.0,95.0,95.0,,,,,,,,,399.6404042959912,None,1.0,1.97423221898498,399.6404042959912,None,399.6404042959912,None,399.6404042959912,None,1,2022_Jun_29_1131,Semantic-hierachy,2021.1.2,59.86980246314613,
96,Trial # 97,layer6-8_T10_to_T6.jpg,layer6-8/layer6-8_T10_to_T6.jpg,TT,layer6-8,0.0,96.0,96.0,96.0,,,,,,,,,402.2916529760114,None,2.0,3.2433631120366044,402.2916529760114,None,402.2916529760114,None,402.2916529760114,None,1,2022_Jun_29_1131,Semantic-hierachy,2021.1.2,59.86980246314613,
97,Trial # 98,layer0-5_O1_to_O5.jpg,layer0-5/layer0-5_O1_to_O5.jpg,OO,layer0-5,0.0,97.0,97.0,97.0,,,,,,,,,405.8772765289759,None,1.0,2.205936124024447,405.8772765289759,None,405.8772765289759,None,405.8772765289759,None,1,2022_Jun_29_1131,Semantic-hierachy,2021.1.2,59.86980246314613,
98,Trial # 99,layer6-8_O1_to_O6.jpg,layer6-8/layer6-8_O1_to_O6.jpg,OO,layer6-8,0.0,98.0,98.0,98.0,,,,,,,,,408.3602252519922,None,2.0,4.490613306988962,408.3602252519922,None,408.3602252519922,None,408.3602252519922,None,1,2022_Jun_29_1131,Semantic-hierachy,2021.1.2,59.86980246314613,
99,Trial # 100,layer6-8_O3_to_T1.jpg,layer6-8/layer6-8_O3_to_T1.jpg,OT,layer6-8,0.0,99.0,99.0,99.0,,,,,,,,,413.178347404988,None,3.0,2.09275777899893,413.178347404988,None,413.178347404988,None,413.178347404988,None,1,2022_Jun_29_1131,Semantic-hierachy,2021.1.2,59.86980246314613,
100,Trial # 101,layer6-8_T1_to_T9.jpg,layer6-8/layer6-8_T1_to_T9.jpg,TT,layer6-8,0.0,100.0,100.0,100.0,,,,,,,,,415.5469295919757,None,3.0,4.442221632984001,415.5469295919757,None,415.5469295919757,None,415.5469295919757,None,1,2022_Jun_29_1131,Semantic-hierachy,2021.1.2,59.86980246314613,
101,Trial # 102,layer9-17_O12_to_O6.jpg,layer9-17/layer9-17_O12_to_O6.jpg,OO,layer9-17,0.0,101.0,101.0,101.0,,,,,,,,,420.2308992629987,None,2.0,1.7091747660306282,420.2308992629987,None,420.2308992629987,None,420.2308992629987,None,1,2022_Jun_29_1131,Semantic-hierachy,2021.1.2,59.86980246314613,
102,Trial # 103,layer0-5_T4_to_T9.jpg,layer0-5/layer0-5_T4_to_T9.jpg,TT,layer0-5,0.0,102.0,102.0,102.0,,,,,,,,,422.1657155790017,None,1.0,1.5601524289813824,422.1657155790017,None,422.1657155790017,None,422.1657155790017,None,1,2022_Jun_29_1131,Semantic-hierachy,2021.1.2,59.86980246314613,
103,Trial # 104,layer6-8_O10_to_T1.jpg,layer6-8/layer6-8_O10_to_T1.jpg,OT,layer6-8,0.0,103.0,103.0,103.0,,,,,,,,,423.9649171850178,None,2.0,2.653954362962395,423.9649171850178,None,423.9649171850178,None,423.9649171850178,None,1,2022_Jun_29_1131,Semantic-hierachy,2021.1.2,59.86980246314613,
104,Trial # 105,layer0-5_O6_to_T2.jpg,layer0-5/layer0-5_O6_to_T2.jpg,OT,layer0-5,0.0,104.0,104.0,104.0,,,,,,,,,426.7837182810181,None,1.0,2.0124979310203344,426.7837182810181,None,426.7837182810181,None,426.7837182810181,None,1,2022_Jun_29_1131,Semantic-hierachy,2021.1.2,59.86980246314613,
105,Trial # 106,layer9-17_T11_to_T2.jpg,layer9-17/layer9-17_T11_to_T2.jpg,TT,layer9-17,0.0,105.0,105.0,105.0,,,,,,,,,429.3169904000242,None,2.0,1.971378815011121,429.3169904000242,None,429.3169904000242,None,429.3169904000242,None,1,2022_Jun_29_1131,Semantic-hierachy,2021.1.2,59.86980246314613,
106,Trial # 107,layer9-17_O12_to_O8.jpg,layer9-17/layer9-17_O12_to_O8.jpg,OO,layer9-17,0.0,106.0,106.0,106.0,,,,,,,,,431.5184252469917,None,2.0,1.6086034860345535,431.5184252469917,None,431.5184252469917,None,431.5184252469917,None,1,2022_Jun_29_1131,Semantic-hierachy,2021.1.2,59.86980246314613,
107,Trial # 108,layer0-5_T12_to_T3.jpg,layer0-5/layer0-5_T12_to_T3.jpg,TT,layer0-5,0.0,107.0,107.0,107.0,,,,,,,,,433.40130668197526,None,1.0,3.3407624699757434,433.40130668197526,None,433.40130668197526,None,433.40130668197526,None,1,2022_Jun_29_1131,Semantic-hierachy,2021.1.2,59.86980246314613,
108,Trial # 109,layer0-5_T1_to_T10.jpg,layer0-5/layer0-5_T1_to_T10.jpg,TT,layer0-5,0.0,108.0,108.0,108.0,,,,,,,,,437.00254042597953,None,1.0,1.6612222020048648,437.00254042597953,None,437.00254042597953,None,437.00254042597953,None,1,2022_Jun_29_1131,Semantic-hierachy,2021.1.2,59.86980246314613,
109,Trial # 110,layer6-8_O4_to_T5.jpg,layer6-8/layer6-8_O4_to_T5.jpg,OT,layer6-8,0.0,109.0,109.0,109.0,,,,,,,,,438.8529049120261,None,3.0,2.181926956982352,438.8529049120261,None,438.8529049120261,None,438.8529049120261,None,1,2022_Jun_29_1131,Semantic-hierachy,2021.1.2,59.86980246314613,
110,Trial # 111,layer9-17_O11_to_O7.jpg,layer9-17/layer9-17_O11_to_O7.jpg,OO,layer9-17,0.0,110.0,110.0,110.0,,,,,,,,,441.27106013998855,None,2.0,2.959429229027592,441.27106013998855,None,441.27106013998855,None,441.27106013998855,None,1,2022_Jun_29_1131,Semantic-hierachy,2021.1.2,59.86980246314613,
111,Trial # 112,layer0-5_O5_to_O8.jpg,layer0-5/layer0-5_O5_to_O8.jpg,OO,layer0-5,0.0,111.0,111.0,111.0,,,,,,,,,444.4042285620235,None,1.0,2.3790473269764334,444.4042285620235,None,444.4042285620235,None,444.4042285620235,None,1,2022_Jun_29_1131,Semantic-hierachy,2021.1.2,59.86980246314613,
112,Trial # 113,layer0-5_O10_to_O4.jpg,layer0-5/layer0-5_O10_to_O4.jpg,OO,layer0-5,0.0,112.0,112.0,112.0,,,,,,,,,446.9399786820286,None,1.0,1.5241841669776477,446.9399786820286,None,446.9399786820286,None,446.9399786820286,None,1,2022_Jun_29_1131,Semantic-hierachy,2021.1.2,59.86980246314613,
113,Trial # 114,layer9-17_O4_to_O8.jpg,layer9-17/layer9-17_O4_to_O8.jpg,OO,layer9-17,0.0,113.0,113.0,113.0,,,,,,,,,448.6898841710063,None,2.0,2.225020800018683,448.6898841710063,None,448.6898841710063,None,448.6898841710063,None,1,2022_Jun_29_1131,Semantic-hierachy,2021.1.2,59.86980246314613,
114,Trial # 115,layer0-5_O2_to_T8.jpg,layer0-5/layer0-5_O2_to_T8.jpg,OT,layer0-5,0.0,114.0,114.0,114.0,,,,,,,,,451.2744042010163,None,1.0,1.520120132016018,451.2744042010163,None,451.2744042010163,None,451.2744042010163,None,1,2022_Jun_29_1131,Semantic-hierachy,2021.1.2,59.86980246314613,
115,Trial # 116,layer9-17_T2_to_T3.jpg,layer9-17/layer9-17_T2_to_T3.jpg,TT,layer9-17,0.0,115.0,115.0,115.0,,,,,,,,,453.0237772500259,None,2.0,1.6236581620178183,453.0237772500259,None,453.0237772500259,None,453.0237772500259,None,1,2022_Jun_29_1131,Semantic-hierachy,2021.1.2,59.86980246314613,
116,Trial # 117,layer6-8_O1_to_T10.jpg,layer6-8/layer6-8_O1_to_T10.jpg,OT,layer6-8,0.0,116.0,116.0,116.0,,,,,,,,,455.0908423489891,None,3.0,1.9794500839780085,455.0908423489891,None,455.0908423489891,None,455.0908423489891,None,1,2022_Jun_29_1131,Semantic-hierachy,2021.1.2,59.86980246314613,
117,Trial # 118,layer0-5_T3_to_T7.jpg,layer0-5/layer0-5_T3_to_T7.jpg,TT,layer0-5,0.0,117.0,117.0,117.0,,,,,,,,,457.2920235429774,None,1.0,1.744240580999758,457.2920235429774,None,457.2920235429774,None,457.2920235429774,None,1,2022_Jun_29_1131,Semantic-hierachy,2021.1.2,59.86980246314613,
118,Trial # 119,layer9-17_O1_to_O12.jpg,layer9-17/layer9-17_O1_to_O12.jpg,OO,layer9-17,0.0,118.0,118.0,118.0,,,,,,,,,459.2588321940275,None,2.0,2.7104022639687173,459.2588321940275,None,459.2588321940275,None,459.2588321940275,None,1,2022_Jun_29_1131,Semantic-hierachy,2021.1.2,59.86980246314613,
119,Trial # 120,layer6-8_O12_to_O2.jpg,layer6-8/layer6-8_O12_to_O2.jpg,OO,layer6-8,0.0,119.0,119.0,119.0,,,,,,,,,462.61081173899584,None,3.0,2.9848143690032884,462.61081173899584,None,462.61081173899584,None,462.61081173899584,None,1,2022_Jun_29_1131,Semantic-hierachy,2021.1.2,59.86980246314613,
120,Trial # 121,layer9-17_O10_to_O9.jpg,layer9-17/layer9-17_O10_to_O9.jpg,OO,layer9-17,0.0,120.0,120.0,120.0,,,,,,,,,465.7791869789944,None,2.0,1.577361375966575,465.7791869789944,None,465.7791869789944,None,465.7791869789944,None,1,2022_Jun_29_1131,Semantic-hierachy,2021.1.2,59.86980246314613,
121,Trial # 122,layer6-8_O4_to_T10.jpg,layer6-8/layer6-8_O4_to_T10.jpg,OT,layer6-8,0.0,121.0,121.0,121.0,,,,,,,,,467.578640096006,None,3.0,2.0187855509575456,467.578640096006,None,467.578640096006,None,467.578640096006,None,1,2022_Jun_29_1131,Semantic-hierachy,2021.1.2,59.86980246314613,
122,Trial # 123,layer6-8_O2_to_T3.jpg,layer6-8/layer6-8_O2_to_T3.jpg,OT,layer6-8,0.0,122.0,122.0,122.0,,,,,,,,,469.8623001369997,None,3.0,1.3864998270291835,469.8623001369997,None,469.8623001369997,None,469.8623001369997,None,1,2022_Jun_29_1131,Semantic-hierachy,2021.1.2,59.86980246314613,
123,Trial # 124,layer0-5_O1_to_O7.jpg,layer0-5/layer0-5_O1_to_O7.jpg,OO,layer0-5,0.0,123.0,123.0,123.0,,,,,,,,,471.49719571502646,None,1.0,1.409241967019625,471.49719571502646,None,471.49719571502646,None,471.49719571502646,None,1,2022_Jun_29_1131,Semantic-hierachy,2021.1.2,59.86980246314613,
124,Trial # 125,layer0-5_T8_to_T9.jpg,layer0-5/layer0-5_T8_to_T9.jpg,TT,layer0-5,0.0,124.0,124.0,124.0,,,,,,,,,473.1140779510024,None,1.0,1.7609549629851244,473.1140779510024,None,473.1140779510024,None,473.1140779510024,None,1,2022_Jun_29_1131,Semantic-hierachy,2021.1.2,59.86980246314613,
125,Trial # 126,layer0-5_O12_to_T8.jpg,layer0-5/layer0-5_O12_to_T8.jpg,OT,layer0-5,0.0,125.0,125.0,125.0,,,,,,,,,475.0642520369729,None,1.0,1.5269440930569544,475.0642520369729,None,475.0642520369729,None,475.0642520369729,None,1,2022_Jun_29_1131,Semantic-hierachy,2021.1.2,59.86980246314613,
126,Trial # 127,layer9-17_O4_to_O6.jpg,layer9-17/layer9-17_O4_to_O6.jpg,OO,layer9-17,0.0,126.0,126.0,126.0,,,,,,,,,476.78256315301405,None,4.0,2.3312443179893307,476.78256315301405,None,476.78256315301405,None,476.78256315301405,None,1,2022_Jun_29_1131,Semantic-hierachy,2021.1.2,59.86980246314613,
127,Trial # 128,layer6-8_O12_to_O6.jpg,layer6-8/layer6-8_O12_to_O6.jpg,OO,layer6-8,0.0,127.0,127.0,127.0,,,,,,,,,479.4492092640139,None,4.0,4.274917441012804,479.4492092640139,None,479.4492092640139,None,479.4492092640139,None,1,2022_Jun_29_1131,Semantic-hierachy,2021.1.2,59.86980246314613,
128,Trial # 129,layer0-5_T4_to_T6.jpg,layer0-5/layer0-5_T4_to_T6.jpg,TT,layer0-5,0.0,128.0,128.0,128.0,,,,,,,,,484.83325170498574,None,1.0,1.9964638780220407,484.83325170498574,None,484.83325170498574,None,484.83325170498574,None,1,2022_Jun_29_1131,Semantic-hierachy,2021.1.2,59.86980246314613,
129,Trial # 130,layer9-17_O1_to_O3.jpg,layer9-17/layer9-17_O1_to_O3.jpg,OO,layer9-17,0.0,129.0,129.0,129.0,,,,,,,,,487.0358778050286,None,2.0,1.4787024730467238,487.0358778050286,None,487.0358778050286,None,487.0358778050286,None,1,2022_Jun_29_1131,Semantic-hierachy,2021.1.2,59.86980246314613,
130,Trial # 131,layer9-17_O10_to_O3.jpg,layer9-17/layer9-17_O10_to_O3.jpg,OO,layer9-17,0.0,130.0,130.0,130.0,,,,,,,,,488.75174452801,None,2.0,1.0949780470109545,488.75174452801,None,488.75174452801,None,488.75174452801,None,1,2022_Jun_29_1131,Semantic-hierachy,2021.1.2,59.86980246314613,
131,Trial # 132,layer9-17_O12_to_O3.jpg,layer9-17/layer9-17_O12_to_O3.jpg,OO,layer9-17,0.0,131.0,131.0,131.0,,,,,,,,,490.0521538869944,None,2.0,1.1425144670065492,490.0521538869944,None,490.0521538869944,None,490.0521538869944,None,1,2022_Jun_29_1131,Semantic-hierachy,2021.1.2,59.86980246314613,
132,Trial # 133,layer9-17_O11_to_O4.jpg,layer9-17/layer9-17_O11_to_O4.jpg,OO,layer9-17,0.0,132.0,132.0,132.0,,,,,,,,,491.37033534498187,None,3.0,2.308338440023362,491.37033534498187,None,491.37033534498187,None,491.37033534498187,None,1,2022_Jun_29_1131,Semantic-hierachy,2021.1.2,59.86980246314613,
133,Trial # 134,layer9-17_T4_to_T7.jpg,layer9-17/layer9-17_T4_to_T7.jpg,TT,layer9-17,0.0,133.0,133.0,133.0,,,,,,,,,494.2039009429864,None,2.0,1.6575692660408097,494.2039009429864,None,494.2039009429864,None,494.2039009429864,None,1,2022_Jun_29_1131,Semantic-hierachy,2021.1.2,59.86980246314613,
134,Trial # 135,layer9-17_O1_to_T1.jpg,layer9-17/layer9-17_O1_to_T1.jpg,OT,layer9-17,0.0,134.0,134.0,134.0,,,,,,,,,496.1211542750243,None,2.0,1.2673733240226284,496.1211542750243,None,496.1211542750243,None,496.1211542750243,None,1,2022_Jun_29_1131,Semantic-hierachy,2021.1.2,59.86980246314613,
135,Trial # 136,layer6-8_T2_to_T5.jpg,layer6-8/layer6-8_T2_to_T5.jpg,TT,layer6-8,0.0,135.0,135.0,135.0,,,,,,,,,497.622082750022,None,4.0,3.647001655015629,497.622082750022,None,497.622082750022,None,497.622082750022,None,1,2022_Jun_29_1131,Semantic-hierachy,2021.1.2,59.86980246314613,
136,Trial # 137,layer9-17_T11_to_T7.jpg,layer9-17/layer9-17_T11_to_T7.jpg,TT,layer9-17,0.0,136.0,136.0,136.0,,,,,,,,,501.5897419099929,None,2.0,1.5091933910152877,501.5897419099929,None,501.5897419099929,None,501.5897419099929,None,1,2022_Jun_29_1131,Semantic-hierachy,2021.1.2,59.86980246314613,
137,Trial # 138,layer6-8_O3_to_O8.jpg,layer6-8/layer6-8_O3_to_O8.jpg,OO,layer6-8,0.0,137.0,137.0,137.0,,,,,,,,,503.3892697750125,None,3.0,2.798293377039954,503.3892697750125,None,503.3892697750125,None,503.3892697750125,None,1,2022_Jun_29_1131,Semantic-hierachy,2021.1.2,59.86980246314613,
138,Trial # 139,layer6-8_O1_to_T7.jpg,layer6-8/layer6-8_O1_to_T7.jpg,OT,layer6-8,0.0,138.0,138.0,138.0,,,,,,,,,506.62487943901215,None,3.0,1.5127057890058495,506.62487943901215,None,506.62487943901215,None,506.62487943901215,None,1,2022_Jun_29_1131,Semantic-hierachy,2021.1.2,59.86980246314613,
139,Trial # 140,layer9-17_T1_to_T3.jpg,layer9-17/layer9-17_T1_to_T3.jpg,TT,layer9-17,0.0,139.0,139.0,139.0,,,,,,,,,508.308632655011,None,2.0,2.3593900380074047,508.308632655011,None,508.308632655011,None,508.308632655011,None,1,2022_Jun_29_1131,Semantic-hierachy,2021.1.2,59.86980246314613,
140,Trial # 141,layer6-8_O10_to_O12.jpg,layer6-8/layer6-8_O10_to_O12.jpg,OO,layer6-8,0.0,140.0,140.0,140.0,,,,,,,,,510.9762591160252,None,4.0,3.911714276997373,510.9762591160252,None,510.9762591160252,None,510.9762591160252,None,1,2022_Jun_29_1131,Semantic-hierachy,2021.1.2,59.86980246314613,
141,Trial # 142,layer6-8_O12_to_T11.jpg,layer6-8/layer6-8_O12_to_T11.jpg,OT,layer6-8,0.0,141.0,141.0,141.0,,,,,,,,,515.2442380409921,None,4.0,3.4725506249815226,515.2442380409921,None,515.2442380409921,None,515.2442380409921,None,1,2022_Jun_29_1131,Semantic-hierachy,2021.1.2,59.86980246314613,
142,Trial # 143,layer0-5_O11_to_O5.jpg,layer0-5/layer0-5_O11_to_O5.jpg,OO,layer0-5,0.0,142.0,142.0,142.0,,,,,,,,,518.9276613040129,None,1.0,1.8941907559637912,518.9276613040129,None,518.9276613040129,None,518.9276613040129,None,1,2022_Jun_29_1131,Semantic-hierachy,2021.1.2,59.86980246314613,
143,Trial # 144,layer6-8_O1_to_O8.jpg,layer6-8/layer6-8_O1_to_O8.jpg,OO,layer6-8,0.0,143.0,143.0,143.0,,,,,,,,,521.0296198879951,None,2.0,1.9484912820043971,521.0296198879951,None,521.0296198879951,None,521.0296198879951,None,1,2022_Jun_29_1131,Semantic-hierachy,2021.1.2,59.86980246314613,
144,Trial # 145,layer0-5_T2_to_T5.jpg,layer0-5/layer0-5_T2_to_T5.jpg,TT,layer0-5,0.0,144.0,144.0,144.0,,,,,,,,,523.2288750630105,None,1.0,1.99319785903208,523.2288750630105,None,523.2288750630105,None,523.2288750630105,None,1,2022_Jun_29_1131,Semantic-hierachy,2021.1.2,59.86980246314613,
145,Trial # 146,layer9-17_O8_to_T3.jpg,layer9-17/layer9-17_O8_to_T3.jpg,OT,layer9-17,0.0,145.0,145.0,145.0,,,,,,,,,526.0311327640084,None,2.0,1.207826527999714,526.0311327640084,None,526.0311327640084,None,526.0311327640084,None,1,2022_Jun_29_1131,Semantic-hierachy,2021.1.2,59.86980246314613,
146,Trial # 147,layer9-17_O8_to_T4.jpg,layer9-17/layer9-17_O8_to_T4.jpg,OT,layer9-17,0.0,146.0,146.0,146.0,,,,,,,,,527.5637565130019,None,3.0,3.658792369009461,527.5637565130019,None,527.5637565130019,None,527.5637565130019,None,1,2022_Jun_29_1131,Semantic-hierachy,2021.1.2,59.86980246314613,
147,Trial # 148,layer9-17_O4_to_T9.jpg,layer9-17/layer9-17_O4_to_T9.jpg,OT,layer9-17,0.0,147.0,147.0,147.0,,,,,,,,,531.4161083669751,None,2.0,1.7417976580327377,531.4161083669751,None,531.4161083669751,None,531.4161083669751,None,1,2022_Jun_29_1131,Semantic-hierachy,2021.1.2,59.86980246314613,
148,Trial # 149,layer6-8_O4_to_O8.jpg,layer6-8/layer6-8_O4_to_O8.jpg,OO,layer6-8,0.0,148.0,148.0,148.0,,,,,,,,,533.3988743309746,None,3.0,2.4888697499991395,533.3988743309746,None,533.3988743309746,None,533.3988743309746,None,1,2022_Jun_29_1131,Semantic-hierachy,2021.1.2,59.86980246314613,
149,Trial # 150,layer0-5_O12_to_T7.jpg,layer0-5/layer0-5_O12_to_T7.jpg,OT,layer0-5,0.0,149.0,149.0,149.0,,,,,,,,,536.417580762005,None,1.0,2.007301479985472,536.417580762005,None,536.417580762005,None,536.417580762005,None,1,2022_Jun_29_1131,Semantic-hierachy,2021.1.2,59.86980246314613,
150,Trial # 151,layer6-8_T1_to_T3.jpg,layer6-8/layer6-8_T1_to_T3.jpg,TT,layer6-8,,,,,0.0,0.0,0.0,0.0,,,,,541.8526825970039,None,3.0,3.1772878160118125,541.8526825970039,None,541.8526825970039,None,541.8526825970039,None,1,2022_Jun_29_1131,Semantic-hierachy,2021.1.2,59.86980246314613,
151,Trial # 152,layer0-5_O8_to_O9.jpg,layer0-5/layer0-5_O8_to_O9.jpg,OO,layer0-5,,,,,0.0,1.0,1.0,1.0,,,,,545.3037185210269,None,1.0,1.7938789780018851,545.3037185210269,None,545.3037185210269,None,545.3037185210269,None,1,2022_Jun_29_1131,Semantic-hierachy,2021.1.2,59.86980246314613,
152,Trial # 153,layer9-17_T1_to_T5.jpg,layer9-17/layer9-17_T1_to_T5.jpg,TT,layer9-17,,,,,0.0,2.0,2.0,2.0,,,,,547.4198384130141,None,2.0,1.398565883981064,547.4198384130141,None,547.4198384130141,None,547.4198384130141,None,1,2022_Jun_29_1131,Semantic-hierachy,2021.1.2,59.86980246314613,
153,Trial # 154,layer6-8_T7_to_T9.jpg,layer6-8/layer6-8_T7_to_T9.jpg,TT,layer6-8,,,,,0.0,3.0,3.0,3.0,,,,,549.0537883929792,None,2.0,3.7746117330389097,549.0537883929792,None,549.0537883929792,None,549.0537883929792,None,1,2022_Jun_29_1131,Semantic-hierachy,2021.1.2,59.86980246314613,
154,Trial # 155,layer9-17_T12_to_T7.jpg,layer9-17/layer9-17_T12_to_T7.jpg,TT,layer9-17,,,,,0.0,4.0,4.0,4.0,,,,,553.1049035830074,None,2.0,1.4975828919559715,553.1049035830074,None,553.1049035830074,None,553.1049035830074,None,1,2022_Jun_29_1131,Semantic-hierachy,2021.1.2,59.86980246314613,
155,Trial # 156,layer0-5_O8_to_T11.jpg,layer0-5/layer0-5_O8_to_T11.jpg,OT,layer0-5,,,,,0.0,5.0,5.0,5.0,,,,,555.4568665149854,None,1.0,1.059798642992973,555.4568665149854,None,555.4568665149854,None,555.4568665149854,None,1,2022_Jun_29_1131,Semantic-hierachy,2021.1.2,59.86980246314613,
156,Trial # 157,layer0-5_O1_to_O9.jpg,layer0-5/layer0-5_O1_to_O9.jpg,OO,layer0-5,,,,,0.0,6.0,6.0,6.0,,,,,557.8897071669926,None,1.0,2.279306379961781,557.8897071669926,None,557.8897071669926,None,557.8897071669926,None,1,2022_Jun_29_1131,Semantic-hierachy,2021.1.2,59.86980246314613,
157,Trial # 158,layer0-5_O10_to_O12.jpg,layer0-5/layer0-5_O10_to_O12.jpg,OO,layer0-5,,,,,0.0,7.0,7.0,7.0,,,,,560.3576614250196,None,1.0,1.3821360800066032,560.3576614250196,None,560.3576614250196,None,560.3576614250196,None,1,2022_Jun_29_1131,Semantic-hierachy,2021.1.2,59.86980246314613,
158,Trial # 159,layer6-8_O10_to_T5.jpg,layer6-8/layer6-8_O10_to_T5.jpg,OT,layer6-8,,,,,0.0,8.0,8.0,8.0,,,,,561.9587869310053,None,4.0,3.2625951599911787,561.9587869310053,None,561.9587869310053,None,561.9587869310053,None,1,2022_Jun_29_1131,Semantic-hierachy,2021.1.2,59.86980246314613,
159,Trial # 160,layer6-8_O5_to_O6.jpg,layer6-8/layer6-8_O5_to_O6.jpg,OO,layer6-8,,,,,0.0,9.0,9.0,9.0,,,,,565.5264974639867,None,2.0,2.4979625119594857,565.5264974639867,None,565.5264974639867,None,565.5264974639867,None,1,2022_Jun_29_1131,Semantic-hierachy,2021.1.2,59.86980246314613,
160,Trial # 161,layer6-8_O6_to_T11.jpg,layer6-8/layer6-8_O6_to_T11.jpg,OT,layer6-8,,,,,0.0,10.0,10.0,10.0,,,,,568.2764479489997,None,2.0,2.3929525039857253,568.2764479489997,None,568.2764479489997,None,568.2764479489997,None,1,2022_Jun_29_1131,Semantic-hierachy,2021.1.2,59.86980246314613,
161,Trial # 162,layer9-17_O12_to_O9.jpg,layer9-17/layer9-17_O12_to_O9.jpg,OO,layer9-17,,,,,0.0,11.0,11.0,11.0,,,,,571.9286492359824,None,2.0,1.2312533530057408,571.9286492359824,None,571.9286492359824,None,571.9286492359824,None,1,2022_Jun_29_1131,Semantic-hierachy,2021.1.2,59.86980246314613,
162,Trial # 163,layer6-8_O12_to_T6.jpg,layer6-8/layer6-8_O12_to_T6.jpg,OT,layer6-8,,,,,0.0,12.0,12.0,12.0,,,,,573.7780532140168,None,4.0,2.5981867630034685,573.7780532140168,None,573.7780532140168,None,573.7780532140168,None,1,2022_Jun_29_1131,Semantic-hierachy,2021.1.2,59.86980246314613,
163,Trial # 164,layer0-5_T11_to_T7.jpg,layer0-5/layer0-5_T11_to_T7.jpg,TT,layer0-5,,,,,0.0,13.0,13.0,13.0,,,,,576.6801132790279,None,1.0,2.081272877985612,576.6801132790279,None,576.6801132790279,None,576.6801132790279,None,1,2022_Jun_29_1131,Semantic-hierachy,2021.1.2,59.86980246314613,
164,Trial # 165,layer9-17_O10_to_T5.jpg,layer9-17/layer9-17_O10_to_T5.jpg,OT,layer9-17,,,,,0.0,14.0,14.0,14.0,,,,,579.079352805973,None,4.0,3.407478325010743,579.079352805973,None,579.079352805973,None,579.079352805973,None,1,2022_Jun_29_1131,Semantic-hierachy,2021.1.2,59.86980246314613,
165,Trial # 166,layer9-17_T1_to_T6.jpg,layer9-17/layer9-17_T1_to_T6.jpg,TT,layer9-17,,,,,0.0,15.0,15.0,15.0,,,,,582.8308557400014,None,2.0,1.4885170260095038,582.8308557400014,None,582.8308557400014,None,582.8308557400014,None,1,2022_Jun_29_1131,Semantic-hierachy,2021.1.2,59.86980246314613,
166,Trial # 167,layer0-5_T1_to_T3.jpg,layer0-5/layer0-5_T1_to_T3.jpg,TT,layer0-5,,,,,0.0,16.0,16.0,16.0,,,,,584.4816033749958,None,1.0,1.4887709059985357,584.4816033749958,None,584.4816033749958,None,584.4816033749958,None,1,2022_Jun_29_1131,Semantic-hierachy,2021.1.2,59.86980246314613,
167,Trial # 168,layer0-5_O2_to_O9.jpg,layer0-5/layer0-5_O2_to_O9.jpg,OO,layer0-5,,,,,0.0,17.0,17.0,17.0,,,,,586.149851877999,None,1.0,1.5280584409483708,586.149851877999,None,586.149851877999,None,586.149851877999,None,1,2022_Jun_29_1131,Semantic-hierachy,2021.1.2,59.86980246314613,
168,Trial # 169,layer9-17_O3_to_T4.jpg,layer9-17/layer9-17_O3_to_T4.jpg,OT,layer9-17,,,,,0.0,18.0,18.0,18.0,,,,,587.8823853710201,None,2.0,1.61344425403513,587.8823853710201,None,587.8823853710201,None,587.8823853710201,None,1,2022_Jun_29_1131,Semantic-hierachy,2021.1.2,59.86980246314613,
169,Trial # 170,layer6-8_O11_to_O9.jpg,layer6-8/layer6-8_O11_to_O9.jpg,OO,layer6-8,,,,,0.0,19.0,19.0,19.0,,,,,590.0827294390183,None,3.0,1.794244635035284,590.0827294390183,None,590.0827294390183,None,590.0827294390183,None,1,2022_Jun_29_1131,Semantic-hierachy,2021.1.2,59.86980246314613,
170,Trial # 171,layer9-17_O1_to_O7.jpg,layer9-17/layer9-17_O1_to_O7.jpg,OO,layer9-17,,,,,0.0,20.0,20.0,20.0,,,,,592.4005308820051,None,4.0,5.216562338988297,592.4005308820051,None,592.4005308820051,None,592.4005308820051,None,1,2022_Jun_29_1131,Semantic-hierachy,2021.1.2,59.86980246314613,
171,Trial # 172,layer0-5_T12_to_T4.jpg,layer0-5/layer0-5_T12_to_T4.jpg,TT,layer0-5,,,,,0.0,21.0,21.0,21.0,,,,,597.8021844929899,None,1.0,1.7997453560237773,597.8021844929899,None,597.8021844929899,None,597.8021844929899,None,1,2022_Jun_29_1131,Semantic-hierachy,2021.1.2,59.86980246314613,
172,Trial # 173,layer0-5_O4_to_T4.jpg,layer0-5/layer0-5_O4_to_T4.jpg,OT,layer0-5,,,,,0.0,22.0,22.0,22.0,,,,,599.7856989679858,None,1.0,3.1451772680156864,599.7856989679858,None,599.7856989679858,None,599.7856989679858,None,1,2022_Jun_29_1131,Semantic-hierachy,2021.1.2,59.86980246314613,
173,Trial # 174,layer6-8_T12_to_T5.jpg,layer6-8/layer6-8_T12_to_T5.jpg,TT,layer6-8,,,,,0.0,23.0,23.0,23.0,,,,,603.2705626679817,None,4.0,4.862638664955739,603.2705626679817,None,603.2705626679817,None,603.2705626679817,None,1,2022_Jun_29_1131,Semantic-hierachy,2021.1.2,59.86980246314613,
174,Trial # 175,layer6-8_O11_to_T1.jpg,layer6-8/layer6-8_O11_to_T1.jpg,OT,layer6-8,,,,,0.0,24.0,24.0,24.0,,,,,608.4060493339784,None,4.0,3.83015997800976,608.4060493339784,None,608.4060493339784,None,608.4060493339784,None,1,2022_Jun_29_1131,Semantic-hierachy,2021.1.2,59.86980246314613,
175,Trial # 176,layer0-5_O7_to_T8.jpg,layer0-5/layer0-5_O7_to_T8.jpg,OT,layer0-5,,,,,0.0,25.0,25.0,25.0,,,,,612.4409185720142,None,1.0,1.9147825430263763,612.4409185720142,None,612.4409185720142,None,612.4409185720142,None,1,2022_Jun_29_1131,Semantic-hierachy,2021.1.2,59.86980246314613,
176,Trial # 177,layer0-5_O11_to_T5.jpg,layer0-5/layer0-5_O11_to_T5.jpg,OT,layer0-5,,,,,0.0,26.0,26.0,26.0,,,,,614.5080514869769,None,1.0,1.4788495779503137,614.5080514869769,None,614.5080514869769,None,614.5080514869769,None,1,2022_Jun_29_1131,Semantic-hierachy,2021.1.2,59.86980246314613,
177,Trial # 178,layer9-17_O2_to_T2.jpg,layer9-17/layer9-17_O2_to_T2.jpg,OT,layer9-17,,,,,0.0,27.0,27.0,27.0,,,,,616.4091372539988,None,4.0,7.628680741996504,616.4091372539988,None,616.4091372539988,None,616.4091372539988,None,1,2022_Jun_29_1131,Semantic-hierachy,2021.1.2,59.86980246314613,
178,Trial # 179,layer0-5_O4_to_T9.jpg,layer0-5/layer0-5_O4_to_T9.jpg,OT,layer0-5,,,,,0.0,28.0,28.0,28.0,,,,,624.2441211689729,None,1.0,1.7402391139767133,624.2441211689729,None,624.2441211689729,None,624.2441211689729,None,1,2022_Jun_29_1131,Semantic-hierachy,2021.1.2,59.86980246314613,
179,Trial # 180,layer9-17_T6_to_T8.jpg,layer9-17/layer9-17_T6_to_T8.jpg,TT,layer9-17,,,,,0.0,29.0,29.0,29.0,,,,,626.4121703060227,None,2.0,1.5635730140493251,626.4121703060227,None,626.4121703060227,None,626.4121703060227,None,1,2022_Jun_29_1131,Semantic-hierachy,2021.1.2,59.86980246314613,
180,Trial # 181,layer9-17_O12_to_O5.jpg,layer9-17/layer9-17_O12_to_O5.jpg,OO,layer9-17,,,,,0.0,30.0,30.0,30.0,,,,,628.2291764200199,None,2.0,1.2766274940222502,628.2291764200199,None,628.2291764200199,None,628.2291764200199,None,1,2022_Jun_29_1131,Semantic-hierachy,2021.1.2,59.86980246314613,
181,Trial # 182,layer6-8_O1_to_O7.jpg,layer6-8/layer6-8_O1_to_O7.jpg,OO,layer6-8,,,,,0.0,31.0,31.0,31.0,,,,,629.6784742730088,None,2.0,3.3629072179901414,629.6784742730088,None,629.6784742730088,None,629.6784742730088,None,1,2022_Jun_29_1131,Semantic-hierachy,2021.1.2,59.86980246314613,
182,Trial # 183,layer6-8_O3_to_T10.jpg,layer6-8/layer6-8_O3_to_T10.jpg,OT,layer6-8,,,,,0.0,32.0,32.0,32.0,,,,,633.2465115439845,None,3.0,2.202981660957448,633.2465115439845,None,633.2465115439845,None,633.2465115439845,None,1,2022_Jun_29_1131,Semantic-hierachy,2021.1.2,59.86980246314613,
183,Trial # 184,layer0-5_O1_to_T11.jpg,layer0-5/layer0-5_O1_to_T11.jpg,OT,layer0-5,,,,,0.0,33.0,33.0,33.0,,,,,635.7985796650173,None,1.0,1.876568470033817,635.7985796650173,None,635.7985796650173,None,635.7985796650173,None,1,2022_Jun_29_1131,Semantic-hierachy,2021.1.2,59.86980246314613,
184,Trial # 185,layer6-8_O8_to_O9.jpg,layer6-8/layer6-8_O8_to_O9.jpg,OO,layer6-8,,,,,0.0,34.0,34.0,34.0,,,,,638.348149730009,None,2.0,1.542418732016813,638.348149730009,None,638.348149730009,None,638.348149730009,None,1,2022_Jun_29_1131,Semantic-hierachy,2021.1.2,59.86980246314613,
185,Trial # 186,layer9-17_O4_to_O9.jpg,layer9-17/layer9-17_O4_to_O9.jpg,OO,layer9-17,,,,,0.0,35.0,35.0,35.0,,,,,640.5666083309916,None,2.0,1.7080352610209957,640.5666083309916,None,640.5666083309916,None,640.5666083309916,None,1,2022_Jun_29_1131,Semantic-hierachy,2021.1.2,59.86980246314613,
186,Trial # 187,layer0-5_O12_to_O5.jpg,layer0-5/layer0-5_O12_to_O5.jpg,OO,layer0-5,,,,,0.0,36.0,36.0,36.0,,,,,642.5326639380073,None,1.0,1.8630707869888283,642.5326639380073,None,642.5326639380073,None,642.5326639380073,None,1,2022_Jun_29_1131,Semantic-hierachy,2021.1.2,59.86980246314613,
187,Trial # 188,layer6-8_T12_to_T4.jpg,layer6-8/layer6-8_T12_to_T4.jpg,TT,layer6-8,,,,,0.0,37.0,37.0,37.0,,,,,644.616907019983,None,4.0,4.027536318986677,644.616907019983,None,644.616907019983,None,644.616907019983,None,1,2022_Jun_29_1131,Semantic-hierachy,2021.1.2,59.86980246314613,
188,Trial # 189,layer0-5_T6_to_T8.jpg,layer0-5/layer0-5_T6_to_T8.jpg,TT,layer0-5,,,,,0.0,38.0,38.0,38.0,,,,,648.8510226919898,None,1.0,1.848617278970778,648.8510226919898,None,648.8510226919898,None,648.8510226919898,None,1,2022_Jun_29_1131,Semantic-hierachy,2021.1.2,59.86980246314613,
189,Trial # 190,layer6-8_O11_to_T2.jpg,layer6-8/layer6-8_O11_to_T2.jpg,OT,layer6-8,,,,,0.0,39.0,39.0,39.0,,,,,650.9531435510144,None,3.0,2.5425831970060244,650.9531435510144,None,650.9531435510144,None,650.9531435510144,None,1,2022_Jun_29_1131,Semantic-hierachy,2021.1.2,59.86980246314613,
190,Trial # 191,layer6-8_O1_to_O3.jpg,layer6-8/layer6-8_O1_to_O3.jpg,OO,layer6-8,,,,,0.0,40.0,40.0,40.0,,,,,653.7028313499759,None,4.0,5.47943872702308,653.7028313499759,None,653.7028313499759,None,653.7028313499759,None,1,2022_Jun_29_1131,Semantic-hierachy,2021.1.2,59.86980246314613,
191,Trial # 192,layer0-5_O7_to_T1.jpg,layer0-5/layer0-5_O7_to_T1.jpg,OT,layer0-5,,,,,0.0,41.0,41.0,41.0,,,,,659.321158244973,None,1.0,1.742198274994735,659.321158244973,None,659.321158244973,None,659.321158244973,None,1,2022_Jun_29_1131,Semantic-hierachy,2021.1.2,59.86980246314613,
192,Trial # 193,layer6-8_O3_to_T7.jpg,layer6-8/layer6-8_O3_to_T7.jpg,OT,layer6-8,,,,,0.0,42.0,42.0,42.0,,,,,661.2727968430263,None,3.0,1.7618124940199775,661.2727968430263,None,661.2727968430263,None,661.2727968430263,None,1,2022_Jun_29_1131,Semantic-hierachy,2021.1.2,59.86980246314613,
193,Trial # 194,layer9-17_T10_to_T6.jpg,layer9-17/layer9-17_T10_to_T6.jpg,TT,layer9-17,,,,,0.0,43.0,43.0,43.0,,,,,663.3058571849833,None,2.0,1.5092391540529206,663.3058571849833,None,663.3058571849833,None,663.3058571849833,None,1,2022_Jun_29_1131,Semantic-hierachy,2021.1.2,59.86980246314613,
194,Trial # 195,layer6-8_T2_to_T9.jpg,layer6-8/layer6-8_T2_to_T9.jpg,TT,layer6-8,,,,,0.0,44.0,44.0,44.0,,,,,665.0230261129909,None,4.0,2.139326561009512,665.0230261129909,None,665.0230261129909,None,665.0230261129909,None,1,2022_Jun_29_1131,Semantic-hierachy,2021.1.2,59.86980246314613,
195,Trial # 196,layer0-5_O3_to_T3.jpg,layer0-5/layer0-5_O3_to_T3.jpg,OT,layer0-5,,,,,0.0,45.0,45.0,45.0,,,,,667.5902331830002,None,1.0,1.9374674169812351,667.5902331830002,None,667.5902331830002,None,667.5902331830002,None,1,2022_Jun_29_1131,Semantic-hierachy,2021.1.2,59.86980246314613,
196,Trial # 197,layer9-17_O1_to_O2.jpg,layer9-17/layer9-17_O1_to_O2.jpg,OO,layer9-17,,,,,0.0,46.0,46.0,46.0,,,,,669.7406030480051,None,4.0,7.533717812038958,669.7406030480051,None,669.7406030480051,None,669.7406030480051,None,1,2022_Jun_29_1131,Semantic-hierachy,2021.1.2,59.86980246314613,
197,Trial # 198,layer9-17_T2_to_T9.jpg,layer9-17/layer9-17_T2_to_T9.jpg,TT,layer9-17,,,,,0.0,47.0,47.0,47.0,,,,,677.4772877590149,None,2.0,1.6883180380100384,677.4772877590149,None,677.4772877590149,None,677.4772877590149,None,1,2022_Jun_29_1131,Semantic-hierachy,2021.1.2,59.86980246314613,
198,Trial # 199,layer9-17_O6_to_T10.jpg,layer9-17/layer9-17_O6_to_T10.jpg,OT,layer9-17,,,,,0.0,48.0,48.0,48.0,,,,,679.4110493980115,None,2.0,1.1973035570117645,679.4110493980115,None,679.4110493980115,None,679.4110493980115,None,1,2022_Jun_29_1131,Semantic-hierachy,2021.1.2,59.86980246314613,
199,Trial # 200,layer0-5_T12_to_T5.jpg,layer0-5/layer0-5_T12_to_T5.jpg,TT,layer0-5,,,,,0.0,49.0,49.0,49.0,,,,,680.9292034669779,None,1.0,1.6105471730115823,680.9292034669779,None,680.9292034669779,None,680.9292034669779,None,1,2022_Jun_29_1131,Semantic-hierachy,2021.1.2,59.86980246314613,
200,Trial # 201,layer0-5_O10_to_T10.jpg,layer0-5/layer0-5_O10_to_T10.jpg,OT,layer0-5,,,,,0.0,50.0,50.0,50.0,,,,,682.6949456210132,None,1.0,2.229268416995182,682.6949456210132,None,682.6949456210132,None,682.6949456210132,None,1,2022_Jun_29_1131,Semantic-hierachy,2021.1.2,59.86980246314613,
201,Trial # 202,layer9-17_T11_to_T12.jpg,layer9-17/layer9-17_T11_to_T12.jpg,TT,layer9-17,,,,,0.0,51.0,51.0,51.0,,,,,685.146125143976,None,2.0,1.5953117919852955,685.146125143976,None,685.146125143976,None,685.146125143976,None,1,2022_Jun_29_1131,Semantic-hierachy,2021.1.2,59.86980246314613,
202,Trial # 203,layer6-8_T3_to_T5.jpg,layer6-8/layer6-8_T3_to_T5.jpg,TT,layer6-8,,,,,0.0,52.0,52.0,52.0,,,,,686.9640266339993,None,2.0,2.4205275590065867,686.9640266339993,None,686.9640266339993,None,686.9640266339993,None,1,2022_Jun_29_1131,Semantic-hierachy,2021.1.2,59.86980246314613,
203,Trial # 204,layer0-5_O5_to_T10.jpg,layer0-5/layer0-5_O5_to_T10.jpg,OT,layer0-5,,,,,0.0,53.0,53.0,53.0,,,,,689.6805816679844,None,1.0,2.3123323479667306,689.6805816679844,None,689.6805816679844,None,689.6805816679844,None,1,2022_Jun_29_1131,Semantic-hierachy,2021.1.2,59.86980246314613,
204,Trial # 205,layer0-5_O10_to_O5.jpg,layer0-5/layer0-5_O10_to_O5.jpg,OO,layer0-5,,,,,0.0,54.0,54.0,54.0,,,,,692.182402084989,None,1.0,1.857278149982449,692.182402084989,None,692.182402084989,None,692.182402084989,None,1,2022_Jun_29_1131,Semantic-hierachy,2021.1.2,59.86980246314613,
205,Trial # 206,layer0-5_O5_to_O7.jpg,layer0-5/layer0-5_O5_to_O7.jpg,OO,layer0-5,,,,,0.0,55.0,55.0,55.0,,,,,695.1990367120015,None,1.0,1.7964774860301986,695.1990367120015,None,695.1990367120015,None,695.1990367120015,None,1,2022_Jun_29_1131,Semantic-hierachy,2021.1.2,59.86980246314613,
206,Trial # 207,layer0-5_O3_to_T10.jpg,layer0-5/layer0-5_O3_to_T10.jpg,OT,layer0-5,,,,,0.0,56.0,56.0,56.0,,,,,697.2496800560039,None,1.0,1.926158593967557,697.2496800560039,None,697.2496800560039,None,697.2496800560039,None,1,2022_Jun_29_1131,Semantic-hierachy,2021.1.2,59.86980246314613,
207,Trial # 208,layer0-5_O4_to_O5.jpg,layer0-5/layer0-5_O4_to_O5.jpg,OO,layer0-5,,,,,0.0,57.0,57.0,57.0,,,,,699.5665236479836,None,1.0,1.3601821399643086,699.5665236479836,None,699.5665236479836,None,699.5665236479836,None,1,2022_Jun_29_1131,Semantic-hierachy,2021.1.2,59.86980246314613,
208,Trial # 209,layer6-8_T12_to_T3.jpg,layer6-8/layer6-8_T12_to_T3.jpg,TT,layer6-8,,,,,0.0,58.0,58.0,58.0,,,,,701.134092547989,None,4.0,6.351657660037745,701.134092547989,None,701.134092547989,None,701.134092547989,None,1,2022_Jun_29_1131,Semantic-hierachy,2021.1.2,59.86980246314613,
209,Trial # 210,layer6-8_O7_to_T9.jpg,layer6-8/layer6-8_O7_to_T9.jpg,OT,layer6-8,,,,,0.0,59.0,59.0,59.0,,,,,708.6365176070249,None,3.0,3.5330518650007434,708.6365176070249,None,708.6365176070249,None,708.6365176070249,None,1,2022_Jun_29_1131,Semantic-hierachy,2021.1.2,59.86980246314613,
210,Trial # 211,layer6-8_O1_to_O11.jpg,layer6-8/layer6-8_O1_to_O11.jpg,OO,layer6-8,,,,,0.0,60.0,60.0,60.0,,,,,712.4877248979756,None,2.0,3.3596670890110545,712.4877248979756,None,712.4877248979756,None,712.4877248979756,None,1,2022_Jun_29_1131,Semantic-hierachy,2021.1.2,59.86980246314613,
211,Trial # 212,layer6-8_T2_to_T6.jpg,layer6-8/layer6-8_T2_to_T6.jpg,TT,layer6-8,,,,,0.0,61.0,61.0,61.0,,,,,716.2063499389915,None,4.0,8.051225121947937,716.2063499389915,None,716.2063499389915,None,716.2063499389915,None,1,2022_Jun_29_1131,Semantic-hierachy,2021.1.2,59.86980246314613,
212,Trial # 213,layer6-8_O10_to_O6.jpg,layer6-8/layer6-8_O10_to_O6.jpg,OO,layer6-8,,,,,0.0,62.0,62.0,62.0,,,,,724.4744421439827,None,2.0,1.9139824250014497,724.4744421439827,None,724.4744421439827,None,724.4744421439827,None,1,2022_Jun_29_1131,Semantic-hierachy,2021.1.2,59.86980246314613,
213,Trial # 214,layer9-17_T5_to_T8.jpg,layer9-17/layer9-17_T5_to_T8.jpg,TT,layer9-17,,,,,0.0,63.0,63.0,63.0,,,,,726.8765646769898,None,2.0,1.973502816981636,726.8765646769898,None,726.8765646769898,None,726.8765646769898,None,1,2022_Jun_29_1131,Semantic-hierachy,2021.1.2,59.86980246314613,
214,Trial # 215,layer9-17_O3_to_T10.jpg,layer9-17/layer9-17_O3_to_T10.jpg,OT,layer9-17,,,,,0.0,64.0,64.0,64.0,,,,,729.0925787839806,None,2.0,1.308862139005214,729.0925787839806,None,729.0925787839806,None,729.0925787839806,None,1,2022_Jun_29_1131,Semantic-hierachy,2021.1.2,59.86980246314613,
215,Trial # 216,layer6-8_O12_to_O3.jpg,layer6-8/layer6-8_O12_to_O3.jpg,OO,layer6-8,,,,,0.0,65.0,65.0,65.0,,,,,730.6610907959985,None,3.0,2.426681234035641,730.6610907959985,None,730.6610907959985,None,730.6610907959985,None,1,2022_Jun_29_1131,Semantic-hierachy,2021.1.2,59.86980246314613,
216,Trial # 217,layer0-5_T10_to_T2.jpg,layer0-5/layer0-5_T10_to_T2.jpg,TT,layer0-5,,,,,0.0,66.0,66.0,66.0,,,,,733.411078420002,None,1.0,3.216769486956764,733.411078420002,None,733.411078420002,None,733.411078420002,None,1,2022_Jun_29_1131,Semantic-hierachy,2021.1.2,59.86980246314613,
217,Trial # 218,layer9-17_O10_to_O6.jpg,layer9-17/layer9-17_O10_to_O6.jpg,OO,layer9-17,,,,,0.0,67.0,67.0,67.0,,,,,736.9965356310131,None,3.0,6.042077959980816,736.9965356310131,None,736.9965356310131,None,736.9965356310131,None,1,2022_Jun_29_1131,Semantic-hierachy,2021.1.2,59.86980246314613,
218,Trial # 219,layer6-8_O6_to_O9.jpg,layer6-8/layer6-8_O6_to_O9.jpg,OO,layer6-8,,,,,0.0,68.0,68.0,68.0,,,,,743.2972436239943,None,3.0,2.30699294002261,743.2972436239943,None,743.2972436239943,None,743.2972436239943,None,1,2022_Jun_29_1131,Semantic-hierachy,2021.1.2,59.86980246314613,
219,Trial # 220,layer0-5_O7_to_T2.jpg,layer0-5/layer0-5_O7_to_T2.jpg,OT,layer0-5,,,,,0.0,69.0,69.0,69.0,,,,,745.8150425869972,None,1.0,1.882057785987854,745.8150425869972,None,745.8150425869972,None,745.8150425869972,None,1,2022_Jun_29_1131,Semantic-hierachy,2021.1.2,59.86980246314613,
220,Trial # 221,layer9-17_T12_to_T2.jpg,layer9-17/layer9-17_T12_to_T2.jpg,TT,layer9-17,,,,,0.0,70.0,70.0,70.0,,,,,748.2657315119868,None,2.0,2.002519505971577,748.2657315119868,None,748.2657315119868,None,748.2657315119868,None,1,2022_Jun_29_1131,Semantic-hierachy,2021.1.2,59.86980246314613,
221,Trial # 222,layer9-17_O8_to_T11.jpg,layer9-17/layer9-17_O8_to_T11.jpg,OT,layer9-17,,,,,0.0,71.0,71.0,71.0,,,,,750.8506568269804,None,4.0,2.306151469994802,750.8506568269804,None,750.8506568269804,None,750.8506568269804,None,1,2022_Jun_29_1131,Semantic-hierachy,2021.1.2,59.86980246314613,
222,Trial # 223,layer6-8_O3_to_T9.jpg,layer6-8/layer6-8_O3_to_T9.jpg,OT,layer6-8,,,,,0.0,72.0,72.0,72.0,,,,,753.3834443879896,None,2.0,1.9428332870011216,753.3834443879896,None,753.3834443879896,None,753.3834443879896,None,1,2022_Jun_29_1131,Semantic-hierachy,2021.1.2,59.86980246314613,
223,Trial # 224,layer0-5_O6_to_O9.jpg,layer0-5/layer0-5_O6_to_O9.jpg,OO,layer0-5,,,,,0.0,73.0,73.0,73.0,,,,,756.1023538589943,None,1.0,1.5456287850392982,756.1023538589943,None,756.1023538589943,None,756.1023538589943,None,1,2022_Jun_29_1131,Semantic-hierachy,2021.1.2,59.86980246314613,
224,Trial # 225,layer0-5_O12_to_T1.jpg,layer0-5/layer0-5_O12_to_T1.jpg,OT,layer0-5,,,,,0.0,74.0,74.0,74.0,,,,,757.8188813020242,None,1.0,1.8121528630144892,757.8188813020242,None,757.8188813020242,None,757.8188813020242,None,1,2022_Jun_29_1131,Semantic-hierachy,2021.1.2,59.86980246314613,
225,Trial # 226,layer9-17_O2_to_T8.jpg,layer9-17/layer9-17_O2_to_T8.jpg,OT,layer9-17,,,,,0.0,75.0,75.0,75.0,,,,,759.7856145889964,None,2.0,1.8472914079902691,759.7856145889964,None,759.7856145889964,None,759.7856145889964,None,1,2022_Jun_29_1131,Semantic-hierachy,2021.1.2,59.86980246314613,
226,Trial # 227,layer0-5_T4_to_T8.jpg,layer0-5/layer0-5_T4_to_T8.jpg,TT,layer0-5,,,,,0.0,76.0,76.0,76.0,,,,,761.8033170789713,None,1.0,2.138626604981255,761.8033170789713,None,761.8033170789713,None,761.8033170789713,None,1,2022_Jun_29_1131,Semantic-hierachy,2021.1.2,59.86980246314613,
227,Trial # 228,layer9-17_O2_to_T1.jpg,layer9-17/layer9-17_O2_to_T1.jpg,OT,layer9-17,,,,,0.0,77.0,77.0,77.0,,,,,764.2711321089882,None,4.0,1.930674901988823,764.2711321089882,None,764.2711321089882,None,764.2711321089882,None,1,2022_Jun_29_1131,Semantic-hierachy,2021.1.2,59.86980246314613,
228,Trial # 229,layer0-5_O11_to_O7.jpg,layer0-5/layer0-5_O11_to_O7.jpg,OO,layer0-5,,,,,0.0,78.0,78.0,78.0,,,,,767.189230345015,None,1.0,2.537414730992168,767.189230345015,None,767.189230345015,None,767.189230345015,None,1,2022_Jun_29_1131,Semantic-hierachy,2021.1.2,59.86980246314613,
229,Trial # 230,layer6-8_T2_to_T8.jpg,layer6-8/layer6-8_T2_to_T8.jpg,TT,layer6-8,,,,,0.0,79.0,79.0,79.0,,,,,769.9555760939838,None,2.0,2.4794170029927045,769.9555760939838,None,769.9555760939838,None,769.9555760939838,None,1,2022_Jun_29_1131,Semantic-hierachy,2021.1.2,59.86980246314613,
230,Trial # 231,layer9-17_T4_to_T8.jpg,layer9-17/layer9-17_T4_to_T8.jpg,TT,layer9-17,,,,,0.0,80.0,80.0,80.0,,,,,772.8063844169956,None,2.0,1.3477629640256057,772.8063844169956,None,772.8063844169956,None,772.8063844169956,None,1,2022_Jun_29_1131,Semantic-hierachy,2021.1.2,59.86980246314613,
231,Trial # 232,layer9-17_T11_to_T3.jpg,layer9-17/layer9-17_T11_to_T3.jpg,TT,layer9-17,,,,,0.0,81.0,81.0,81.0,,,,,774.4742197340238,None,2.0,1.0272405289579185,774.4742197340238,None,774.4742197340238,None,774.4742197340238,None,1,2022_Jun_29_1131,Semantic-hierachy,2021.1.2,59.86980246314613,
232,Trial # 233,layer0-5_O3_to_T9.jpg,layer0-5/layer0-5_O3_to_T9.jpg,OT,layer0-5,,,,,0.0,82.0,82.0,82.0,,,,,775.7243015859858,None,1.0,2.2133147689746693,775.7243015859858,None,775.7243015859858,None,775.7243015859858,None,1,2022_Jun_29_1131,Semantic-hierachy,2021.1.2,59.86980246314613,
233,Trial # 234,layer9-17_T7_to_T8.jpg,layer9-17/layer9-17_T7_to_T8.jpg,TT,layer9-17,,,,,0.0,83.0,83.0,83.0,,,,,778.1914109709905,None,2.0,2.8784346869797446,778.1914109709905,None,778.1914109709905,None,778.1914109709905,None,1,2022_Jun_29_1131,Semantic-hierachy,2021.1.2,59.86980246314613,
234,Trial # 235,layer9-17_O3_to_O4.jpg,layer9-17/layer9-17_O3_to_O4.jpg,OO,layer9-17,,,,,0.0,84.0,84.0,84.0,,,,,781.7769894599915,None,2.0,1.5805639749742113,781.7769894599915,None,781.7769894599915,None,781.7769894599915,None,1,2022_Jun_29_1131,Semantic-hierachy,2021.1.2,59.86980246314613,
235,Trial # 236,layer6-8_O8_to_T6.jpg,layer6-8/layer6-8_O8_to_T6.jpg,OT,layer6-8,,,,,0.0,85.0,85.0,85.0,,,,,783.5261024539941,None,3.0,2.382021380006336,783.5261024539941,None,783.5261024539941,None,783.5261024539941,None,1,2022_Jun_29_1131,Semantic-hierachy,2021.1.2,59.86980246314613,
236,Trial # 237,layer9-17_T6_to_T7.jpg,layer9-17/layer9-17_T6_to_T7.jpg,TT,layer9-17,,,,,0.0,86.0,86.0,86.0,,,,,786.1448356449837,None,2.0,1.5252819180022923,786.1448356449837,None,786.1448356449837,None,786.1448356449837,None,1,2022_Jun_29_1131,Semantic-hierachy,2021.1.2,59.86980246314613,
237,Trial # 238,layer0-5_T2_to_T9.jpg,layer0-5/layer0-5_T2_to_T9.jpg,TT,layer0-5,,,,,0.0,87.0,87.0,87.0,,,,,787.8276408779784,None,1.0,1.928790003003087,787.8276408779784,None,787.8276408779784,None,787.8276408779784,None,1,2022_Jun_29_1131,Semantic-hierachy,2021.1.2,59.86980246314613,
238,Trial # 239,layer0-5_O2_to_O5.jpg,layer0-5/layer0-5_O2_to_O5.jpg,OO,layer0-5,,,,,0.0,88.0,88.0,88.0,,,,,789.9781505920109,None,1.0,3.432672669994645,789.9781505920109,None,789.9781505920109,None,789.9781505920109,None,1,2022_Jun_29_1131,Semantic-hierachy,2021.1.2,59.86980246314613,
239,Trial # 240,layer6-8_O1_to_O5.jpg,layer6-8/layer6-8_O1_to_O5.jpg,OO,layer6-8,,,,,0.0,89.0,89.0,89.0,,,,,794.2961917290231,None,4.0,4.510393764998298,794.2961917290231,None,794.2961917290231,None,794.2961917290231,None,1,2022_Jun_29_1131,Semantic-hierachy,2021.1.2,59.86980246314613,
240,Trial # 241,layer9-17_O3_to_O7.jpg,layer9-17/layer9-17_O3_to_O7.jpg,OO,layer9-17,,,,,0.0,90.0,90.0,90.0,,,,,799.0309117209981,None,2.0,1.4902010079822503,799.0309117209981,None,799.0309117209981,None,799.0309117209981,None,1,2022_Jun_29_1131,Semantic-hierachy,2021.1.2,59.86980246314613,
241,Trial # 242,layer6-8_O11_to_O8.jpg,layer6-8/layer6-8_O11_to_O8.jpg,OO,layer6-8,,,,,0.0,91.0,91.0,91.0,,,,,800.9492919680197,None,3.0,2.1512381000211462,800.9492919680197,None,800.9492919680197,None,800.9492919680197,None,1,2022_Jun_29_1131,Semantic-hierachy,2021.1.2,59.86980246314613,
242,Trial # 243,layer9-17_T1_to_T12.jpg,layer9-17/layer9-17_T1_to_T12.jpg,TT,layer9-17,,,,,0.0,92.0,92.0,92.0,,,,,803.3321889989893,None,2.0,2.18780621298356,803.3321889989893,None,803.3321889989893,None,803.3321889989893,None,1,2022_Jun_29_1131,Semantic-hierachy,2021.1.2,59.86980246314613,
243,Trial # 244,layer9-17_O6_to_O8.jpg,layer9-17/layer9-17_O6_to_O8.jpg,OO,layer9-17,,,,,0.0,93.0,93.0,93.0,,,,,805.7344820249709,None,4.0,2.5748920729965903,805.7344820249709,None,805.7344820249709,None,805.7344820249709,None,1,2022_Jun_29_1131,Semantic-hierachy,2021.1.2,59.86980246314613,
244,Trial # 245,layer6-8_O4_to_T11.jpg,layer6-8/layer6-8_O4_to_T11.jpg,OT,layer6-8,,,,,0.0,94.0,94.0,94.0,,,,,808.5007788800285,None,3.0,2.0248282649554312,808.5007788800285,None,808.5007788800285,None,808.5007788800285,None,1,2022_Jun_29_1131,Semantic-hierachy,2021.1.2,59.86980246314613,
245,Trial # 246,layer9-17_T10_to_T3.jpg,layer9-17/layer9-17_T10_to_T3.jpg,TT,layer9-17,,,,,0.0,95.0,95.0,95.0,,,,,810.7360395430005,None,2.0,1.7289021129836328,810.7360395430005,None,810.7360395430005,None,810.7360395430005,None,1,2022_Jun_29_1131,Semantic-hierachy,2021.1.2,59.86980246314613,
246,Trial # 247,layer0-5_O10_to_O8.jpg,layer0-5/layer0-5_O10_to_O8.jpg,OO,layer0-5,,,,,0.0,96.0,96.0,96.0,,,,,812.7353755080258,None,1.0,1.2975326469750144,812.7353755080258,None,812.7353755080258,None,812.7353755080258,None,1,2022_Jun_29_1131,Semantic-hierachy,2021.1.2,59.86980246314613,
247,Trial # 248,layer6-8_O3_to_T12.jpg,layer6-8/layer6-8_O3_to_T12.jpg,OT,layer6-8,,,,,0.0,97.0,97.0,97.0,,,,,814.2188947550021,None,3.0,2.275271307968069,814.2188947550021,None,814.2188947550021,None,814.2188947550021,None,1,2022_Jun_29_1131,Semantic-hierachy,2021.1.2,59.86980246314613,
248,Trial # 249,layer0-5_O12_to_T9.jpg,layer0-5/layer0-5_O12_to_T9.jpg,OT,layer0-5,,,,,0.0,98.0,98.0,98.0,,,,,816.671073052974,None,1.0,1.7153143960167654,816.671073052974,None,816.671073052974,None,816.671073052974,None,1,2022_Jun_29_1131,Semantic-hierachy,2021.1.2,59.86980246314613,
249,Trial # 250,layer9-17_T1_to_T9.jpg,layer9-17/layer9-17_T1_to_T9.jpg,TT,layer9-17,,,,,0.0,99.0,99.0,99.0,,,,,818.6205399950268,None,4.0,3.281443768995814,818.6205399950268,None,818.6205399950268,None,818.6205399950268,None,1,2022_Jun_29_1131,Semantic-hierachy,2021.1.2,59.86980246314613,
250,Trial # 251,layer9-17_T11_to_T8.jpg,layer9-17/layer9-17_T11_to_T8.jpg,TT,layer9-17,,,,,0.0,100.0,100.0,100.0,,,,,822.7719078650116,None,2.0,1.64373033400625,822.7719078650116,None,822.7719078650116,None,822.7719078650116,None,1,2022_Jun_29_1131,Semantic-hierachy,2021.1.2,59.86980246314613,
251,Trial # 252,layer9-17_T11_to_T5.jpg,layer9-17/layer9-17_T11_to_T5.jpg,TT,layer9-17,,,,,0.0,101.0,101.0,101.0,,,,,824.6227084679995,None,4.0,3.82667052996112,824.6227084679995,None,824.6227084679995,None,824.6227084679995,None,1,2022_Jun_29_1131,Semantic-hierachy,2021.1.2,59.86980246314613,
252,Trial # 253,layer6-8_T10_to_T12.jpg,layer6-8/layer6-8_T10_to_T12.jpg,TT,layer6-8,,,,,0.0,102.0,102.0,102.0,,,,,828.6406945930212,None,4.0,3.7602537329657935,828.6406945930212,None,828.6406945930212,None,828.6406945930212,None,1,2022_Jun_29_1131,Semantic-hierachy,2021.1.2,59.86980246314613,
253,Trial # 254,layer9-17_O5_to_T1.jpg,layer9-17/layer9-17_O5_to_T1.jpg,OT,layer9-17,,,,,0.0,103.0,103.0,103.0,,,,,832.6418058110285,None,2.0,1.5951813000137918,832.6418058110285,None,832.6418058110285,None,832.6418058110285,None,1,2022_Jun_29_1131,Semantic-hierachy,2021.1.2,59.86980246314613,
254,Trial # 255,layer6-8_T2_to_T3.jpg,layer6-8/layer6-8_T2_to_T3.jpg,TT,layer6-8,,,,,0.0,104.0,104.0,104.0,,,,,834.55884018098,None,3.0,5.24886572395917,834.55884018098,None,834.55884018098,None,834.55884018098,None,1,2022_Jun_29_1131,Semantic-hierachy,2021.1.2,59.86980246314613,
255,Trial # 256,layer6-8_O2_to_T6.jpg,layer6-8/layer6-8_O2_to_T6.jpg,OT,layer6-8,,,,,0.0,105.0,105.0,105.0,,,,,839.9768622569973,None,3.0,1.246474715997465,839.9768622569973,None,839.9768622569973,None,839.9768622569973,None,1,2022_Jun_29_1131,Semantic-hierachy,2021.1.2,59.86980246314613,
256,Trial # 257,layer6-8_T11_to_T9.jpg,layer6-8/layer6-8_T11_to_T9.jpg,TT,layer6-8,,,,,0.0,106.0,106.0,106.0,,,,,841.3946322330157,None,4.0,2.8245859659509733,841.3946322330157,None,841.3946322330157,None,841.3946322330157,None,1,2022_Jun_29_1131,Semantic-hierachy,2021.1.2,59.86980246314613,
257,Trial # 258,layer6-8_O5_to_T9.jpg,layer6-8/layer6-8_O5_to_T9.jpg,OT,layer6-8,,,,,0.0,107.0,107.0,107.0,,,,,844.4786191959865,None,2.0,3.491408762987703,844.4786191959865,None,844.4786191959865,None,844.4786191959865,None,1,2022_Jun_29_1131,Semantic-hierachy,2021.1.2,59.86980246314613,
258,Trial # 259,layer6-8_O9_to_T8.jpg,layer6-8/layer6-8_O9_to_T8.jpg,OT,layer6-8,,,,,0.0,108.0,108.0,108.0,,,,,848.330476653995,None,3.0,1.763909748988226,848.330476653995,None,848.330476653995,None,848.330476653995,None,1,2022_Jun_29_1131,Semantic-hierachy,2021.1.2,59.86980246314613,
259,Trial # 260,layer6-8_T1_to_T5.jpg,layer6-8/layer6-8_T1_to_T5.jpg,TT,layer6-8,,,,,0.0,109.0,109.0,109.0,,,,,850.3807182859746,None,3.0,3.7327956919907592,850.3807182859746,None,850.3807182859746,None,850.3807182859746,None,1,2022_Jun_29_1131,Semantic-hierachy,2021.1.2,59.86980246314613,
260,Trial # 261,layer0-5_O11_to_T2.jpg,layer0-5/layer0-5_O11_to_T2.jpg,OT,layer0-5,,,,,0.0,110.0,110.0,110.0,,,,,854.2482082989882,None,1.0,1.7641234440379776,854.2482082989882,None,854.2482082989882,None,854.2482082989882,None,1,2022_Jun_29_1131,Semantic-hierachy,2021.1.2,59.86980246314613,
261,Trial # 262,layer0-5_O7_to_T4.jpg,layer0-5/layer0-5_O7_to_T4.jpg,OT,layer0-5,,,,,0.0,111.0,111.0,111.0,,,,,856.2833516019746,None,1.0,1.2516826590290293,856.2833516019746,None,856.2833516019746,None,856.2833516019746,None,1,2022_Jun_29_1131,Semantic-hierachy,2021.1.2,59.86980246314613,
262,Trial # 263,layer6-8_T12_to_T8.jpg,layer6-8/layer6-8_T12_to_T8.jpg,TT,layer6-8,,,,,0.0,112.0,112.0,112.0,,,,,857.7326212950284,None,2.0,4.4700007130159065,857.7326212950284,None,857.7326212950284,None,857.7326212950284,None,1,2022_Jun_29_1131,Semantic-hierachy,2021.1.2,59.86980246314613,
263,Trial # 264,layer6-8_O4_to_O9.jpg,layer6-8/layer6-8_O4_to_O9.jpg,OO,layer6-8,,,,,0.0,113.0,113.0,113.0,,,,,862.3841349530267,None,1.0,2.6324977959739044,862.3841349530267,None,862.3841349530267,None,862.3841349530267,None,1,2022_Jun_29_1131,Semantic-hierachy,2021.1.2,59.86980246314613,
264,Trial # 265,layer0-5_T1_to_T5.jpg,layer0-5/layer0-5_T1_to_T5.jpg,TT,layer0-5,,,,,0.0,114.0,114.0,114.0,,,,,865.2012563379831,None,1.0,1.2286164489923976,865.2012563379831,None,865.2012563379831,None,865.2012563379831,None,1,2022_Jun_29_1131,Semantic-hierachy,2021.1.2,59.86980246314613,
265,Trial # 266,layer0-5_O12_to_O7.jpg,layer0-5/layer0-5_O12_to_O7.jpg,OO,layer0-5,,,,,0.0,115.0,115.0,115.0,,,,,866.636622186983,None,1.0,1.082137463032268,866.636622186983,None,866.636622186983,None,866.636622186983,None,1,2022_Jun_29_1131,Semantic-hierachy,2021.1.2,59.86980246314613,
266,Trial # 267,layer6-8_T8_to_T9.jpg,layer6-8/layer6-8_T8_to_T9.jpg,TT,layer6-8,,,,,0.0,116.0,116.0,116.0,,,,,867.8858591560274,None,2.0,4.66520693001803,867.8858591560274,None,867.8858591560274,None,867.8858591560274,None,1,2022_Jun_29_1131,Semantic-hierachy,2021.1.2,59.86980246314613,
267,Trial # 268,layer9-17_O11_to_T10.jpg,layer9-17/layer9-17_O11_to_T10.jpg,OT,layer9-17,,,,,0.0,117.0,117.0,117.0,,,,,872.9551241910085,None,2.0,1.263112636981532,872.9551241910085,None,872.9551241910085,None,872.9551241910085,None,1,2022_Jun_29_1131,Semantic-hierachy,2021.1.2,59.86980246314613,
268,Trial # 269,layer0-5_O8_to_T9.jpg,layer0-5/layer0-5_O8_to_T9.jpg,OT,layer0-5,,,,,0.0,118.0,118.0,118.0,,,,,874.4044862689916,None,1.0,1.946374883991666,874.4044862689916,None,874.4044862689916,None,874.4044862689916,None,1,2022_Jun_29_1131,Semantic-hierachy,2021.1.2,59.86980246314613,
269,Trial # 270,layer9-17_O10_to_O11.jpg,layer9-17/layer9-17_O10_to_O11.jpg,OO,layer9-17,,,,,0.0,119.0,119.0,119.0,,,,,876.6385432229727,None,2.0,2.1600247959722765,876.6385432229727,None,876.6385432229727,None,876.6385432229727,None,1,2022_Jun_29_1131,Semantic-hierachy,2021.1.2,59.86980246314613,
270,Trial # 271,layer0-5_T1_to_T9.jpg,layer0-5/layer0-5_T1_to_T9.jpg,TT,layer0-5,,,,,0.0,120.0,120.0,120.0,,,,,879.0559550530161,None,1.0,1.5263556549907662,879.0559550530161,None,879.0559550530161,None,879.0559550530161,None,1,2022_Jun_29_1131,Semantic-hierachy,2021.1.2,59.86980246314613,
271,Trial # 272,layer6-8_T11_to_T8.jpg,layer6-8/layer6-8_T11_to_T8.jpg,TT,layer6-8,,,,,0.0,121.0,121.0,121.0,,,,,880.8242155759945,None,4.0,5.971906539984047,880.8242155759945,None,880.8242155759945,None,880.8242155759945,None,1,2022_Jun_29_1131,Semantic-hierachy,2021.1.2,59.86980246314613,
272,Trial # 273,layer9-17_O10_to_O12.jpg,layer9-17/layer9-17_O10_to_O12.jpg,OO,layer9-17,,,,,0.0,122.0,122.0,122.0,,,,,887.0261385050253,None,2.0,1.6921274900087155,887.0261385050253,None,887.0261385050253,None,887.0261385050253,None,1,2022_Jun_29_1131,Semantic-hierachy,2021.1.2,59.86980246314613,
273,Trial # 274,layer0-5_T12_to_T6.jpg,layer0-5/layer0-5_T12_to_T6.jpg,TT,layer0-5,,,,,0.0,123.0,123.0,123.0,,,,,889.3763995919726,None,1.0,1.3972121830447577,889.3763995919726,None,889.3763995919726,None,889.3763995919726,None,1,2022_Jun_29_1131,Semantic-hierachy,2021.1.2,59.86980246314613,
274,Trial # 275,layer9-17_O11_to_O5.jpg,layer9-17/layer9-17_O11_to_O5.jpg,OO,layer9-17,,,,,0.0,124.0,124.0,124.0,,,,,891.6608152950066,None,3.0,3.2054580110125244,891.6608152950066,None,891.6608152950066,None,891.6608152950066,None,1,2022_Jun_29_1131,Semantic-hierachy,2021.1.2,59.86980246314613,
275,Trial # 276,layer9-17_O1_to_O4.jpg,layer9-17/layer9-17_O1_to_O4.jpg,OO,layer9-17,,,,,0.0,125.0,125.0,125.0,,,,,896.8956465399824,None,2.0,1.8892448380356652,896.8956465399824,None,896.8956465399824,None,896.8956465399824,None,1,2022_Jun_29_1131,Semantic-hierachy,2021.1.2,59.86980246314613,
276,Trial # 277,layer6-8_O11_to_O3.jpg,layer6-8/layer6-8_O11_to_O3.jpg,OO,layer6-8,,,,,0.0,126.0,126.0,126.0,,,,,899.1126447520219,None,2.0,2.998150177008938,899.1126447520219,None,899.1126447520219,None,899.1126447520219,None,1,2022_Jun_29_1131,Semantic-hierachy,2021.1.2,59.86980246314613,
277,Trial # 278,layer6-8_T10_to_T11.jpg,layer6-8/layer6-8_T10_to_T11.jpg,TT,layer6-8,,,,,0.0,127.0,127.0,127.0,,,,,902.430968264991,None,2.0,3.539952704042662,902.430968264991,None,902.430968264991,None,902.430968264991,None,1,2022_Jun_29_1131,Semantic-hierachy,2021.1.2,59.86980246314613,
278,Trial # 279,layer0-5_O7_to_T3.jpg,layer0-5/layer0-5_O7_to_T3.jpg,OT,layer0-5,,,,,0.0,128.0,128.0,128.0,,,,,906.1985572599806,None,1.0,1.7400832589482889,906.1985572599806,None,906.1985572599806,None,906.1985572599806,None,1,2022_Jun_29_1131,Semantic-hierachy,2021.1.2,59.86980246314613,
279,Trial # 280,layer9-17_T1_to_T10.jpg,layer9-17/layer9-17_T1_to_T10.jpg,TT,layer9-17,,,,,0.0,129.0,129.0,129.0,,,,,908.114933534991,None,2.0,1.4785283799865283,908.114933534991,None,908.114933534991,None,908.114933534991,None,1,2022_Jun_29_1131,Semantic-hierachy,2021.1.2,59.86980246314613,
280,Trial # 281,layer9-17_O6_to_T7.jpg,layer9-17/layer9-17_O6_to_T7.jpg,OT,layer9-17,,,,,0.0,130.0,130.0,130.0,,,,,910.0155105160084,None,2.0,1.1672120590228587,910.0155105160084,None,910.0155105160084,None,910.0155105160084,None,1,2022_Jun_29_1131,Semantic-hierachy,2021.1.2,59.86980246314613,
281,Trial # 282,layer0-5_O10_to_O7.jpg,layer0-5/layer0-5_O10_to_O7.jpg,OO,layer0-5,,,,,0.0,131.0,131.0,131.0,,,,,911.35048945999,None,1.0,1.672899808967486,911.35048945999,None,911.35048945999,None,911.35048945999,None,1,2022_Jun_29_1131,Semantic-hierachy,2021.1.2,59.86980246314613,
282,Trial # 283,layer0-5_O1_to_O11.jpg,layer0-5/layer0-5_O1_to_O11.jpg,OO,layer0-5,,,,,0.0,132.0,132.0,132.0,,,,,913.2830793239992,None,1.0,1.4922403679811396,913.2830793239992,None,913.2830793239992,None,913.2830793239992,None,1,2022_Jun_29_1131,Semantic-hierachy,2021.1.2,59.86980246314613,
283,Trial # 284,layer6-8_O7_to_O8.jpg,layer6-8/layer6-8_O7_to_O8.jpg,OO,layer6-8,,,,,0.0,133.0,133.0,133.0,,,,,914.9503164020134,None,2.0,1.4642394639668057,914.9503164020134,None,914.9503164020134,None,914.9503164020134,None,1,2022_Jun_29_1131,Semantic-hierachy,2021.1.2,59.86980246314613,
284,Trial # 285,layer0-5_T7_to_T8.jpg,layer0-5/layer0-5_T7_to_T8.jpg,TT,layer0-5,,,,,0.0,134.0,134.0,134.0,,,,,916.6187744039926,None,1.0,2.1216709899599664,916.6187744039926,None,916.6187744039926,None,916.6187744039926,None,1,2022_Jun_29_1131,Semantic-hierachy,2021.1.2,59.86980246314613,
285,Trial # 286,layer9-17_T11_to_T6.jpg,layer9-17/layer9-17_T11_to_T6.jpg,TT,layer9-17,,,,,0.0,135.0,135.0,135.0,,,,,918.984916085028,None,2.0,2.611242238956038,918.984916085028,None,918.984916085028,None,918.984916085028,None,1,2022_Jun_29_1131,Semantic-hierachy,2021.1.2,59.86980246314613,
286,Trial # 287,layer0-5_T2_to_T7.jpg,layer0-5/layer0-5_T2_to_T7.jpg,TT,layer0-5,,,,,0.0,136.0,136.0,136.0,,,,,922.9028303960222,None,1.0,1.4773691600421444,922.9028303960222,None,922.9028303960222,None,922.9028303960222,None,1,2022_Jun_29_1131,Semantic-hierachy,2021.1.2,59.86980246314613,
287,Trial # 288,layer9-17_O10_to_O2.jpg,layer9-17/layer9-17_O10_to_O2.jpg,OO,layer9-17,,,,,0.0,137.0,137.0,137.0,,,,,924.6365039169904,None,2.0,1.7387139979982749,924.6365039169904,None,924.6365039169904,None,924.6365039169904,None,1,2022_Jun_29_1131,Semantic-hierachy,2021.1.2,59.86980246314613,
288,Trial # 289,layer0-5_T10_to_T9.jpg,layer0-5/layer0-5_T10_to_T9.jpg,TT,layer0-5,,,,,0.0,138.0,138.0,138.0,,,,,926.6384504170272,None,1.0,2.2237973710289225,926.6384504170272,None,926.6384504170272,None,926.6384504170272,None,1,2022_Jun_29_1131,Semantic-hierachy,2021.1.2,59.86980246314613,
289,Trial # 290,layer6-8_O11_to_O5.jpg,layer6-8/layer6-8_O11_to_O5.jpg,OO,layer6-8,,,,,0.0,139.0,139.0,139.0,,,,,929.0215212199836,None,2.0,1.646760064002592,929.0215212199836,None,929.0215212199836,None,929.0215212199836,None,1,2022_Jun_29_1131,Semantic-hierachy,2021.1.2,59.86980246314613,
290,Trial # 291,layer6-8_O3_to_O7.jpg,layer6-8/layer6-8_O3_to_O7.jpg,OO,layer6-8,,,,,0.0,140.0,140.0,140.0,,,,,931.0065588859724,None,2.0,1.3750294119818136,931.0065588859724,None,931.0065588859724,None,931.0065588859724,None,1,2022_Jun_29_1131,Semantic-hierachy,2021.1.2,59.86980246314613,
291,Trial # 292,layer9-17_O12_to_T11.jpg,layer9-17/layer9-17_O12_to_T11.jpg,OT,layer9-17,,,,,0.0,141.0,141.0,141.0,,,,,933.0396591760218,None,2.0,1.4813909140066244,933.0396591760218,None,933.0396591760218,None,933.0396591760218,None,1,2022_Jun_29_1131,Semantic-hierachy,2021.1.2,59.86980246314613,
292,Trial # 293,layer9-17_O2_to_O4.jpg,layer9-17/layer9-17_O2_to_O4.jpg,OO,layer9-17,,,,,0.0,142.0,142.0,142.0,,,,,934.6897072879948,None,4.0,2.9610421680263244,934.6897072879948,None,934.6897072879948,None,934.6897072879948,None,1,2022_Jun_29_1131,Semantic-hierachy,2021.1.2,59.86980246314613,
293,Trial # 294,layer6-8_O1_to_T12.jpg,layer6-8/layer6-8_O1_to_T12.jpg,OT,layer6-8,,,,,0.0,143.0,143.0,143.0,,,,,937.8074093969772,None,3.0,2.1431355229578912,937.8074093969772,None,937.8074093969772,None,937.8074093969772,None,1,2022_Jun_29_1131,Semantic-hierachy,2021.1.2,59.86980246314613,
294,Trial # 295,layer9-17_O11_to_T5.jpg,layer9-17/layer9-17_O11_to_T5.jpg,OT,layer9-17,,,,,0.0,144.0,144.0,144.0,,,,,940.1414365610108,None,3.0,1.9982116700266488,940.1414365610108,None,940.1414365610108,None,940.1414365610108,None,1,2022_Jun_29_1131,Semantic-hierachy,2021.1.2,59.86980246314613,
295,Trial # 296,layer0-5_O10_to_O9.jpg,layer0-5/layer0-5_O10_to_O9.jpg,OO,layer0-5,,,,,0.0,145.0,145.0,145.0,,,,,942.3422090939712,None,1.0,1.8113043649937024,942.3422090939712,None,942.3422090939712,None,942.3422090939712,None,1,2022_Jun_29_1131,Semantic-hierachy,2021.1.2,59.86980246314613,
296,Trial # 297,layer6-8_O12_to_T10.jpg,layer6-8/layer6-8_O12_to_T10.jpg,OT,layer6-8,,,,,0.0,146.0,146.0,146.0,,,,,944.376504726999,None,3.0,2.896257269952912,944.376504726999,None,944.376504726999,None,944.376504726999,None,1,2022_Jun_29_1131,Semantic-hierachy,2021.1.2,59.86980246314613,
297,Trial # 298,layer6-8_O3_to_T2.jpg,layer6-8/layer6-8_O3_to_T2.jpg,OT,layer6-8,,,,,0.0,147.0,147.0,147.0,,,,,947.6102991660008,None,2.0,1.5703342179767787,947.6102991660008,None,947.6102991660008,None,947.6102991660008,None,1,2022_Jun_29_1131,Semantic-hierachy,2021.1.2,59.86980246314613,
298,Trial # 299,layer9-17_O2_to_T5.jpg,layer9-17/layer9-17_O2_to_T5.jpg,OT,layer9-17,,,,,0.0,148.0,148.0,148.0,,,,,950.1440473090042,None,4.0,3.176730256993324,950.1440473090042,None,950.1440473090042,None,950.1440473090042,None,1,2022_Jun_29_1131,Semantic-hierachy,2021.1.2,59.86980246314613,
299,Trial # 300,layer0-5_O3_to_T7.jpg,layer0-5/layer0-5_O3_to_T7.jpg,OT,layer0-5,,,,,0.0,149.0,149.0,149.0,,,,,953.5796682909712,None,1.0,1.948937361012213,953.5796682909712,None,953.5796682909712,None,953.5796682909712,None,1,2022_Jun_29_1131,Semantic-hierachy,2021.1.2,59.86980246314613,
300,Trial # 301,layer9-17_O11_to_O6.jpg,layer9-17/layer9-17_O11_to_O6.jpg,OO,layer9-17,,,,,,,,,0.0,0.0,0.0,0.0,957.5144637880148,None,3.0,2.0397384260431863,957.5144637880148,None,957.5144637880148,None,957.5144637880148,None,1,2022_Jun_29_1131,Semantic-hierachy,2021.1.2,59.86980246314613,
301,Trial # 302,layer0-5_O3_to_O7.jpg,layer0-5/layer0-5_O3_to_O7.jpg,OO,layer0-5,,,,,,,,,0.0,1.0,1.0,1.0,959.7147776110214,None,1.0,1.708106370002497,959.7147776110214,None,959.7147776110214,None,959.7147776110214,None,1,2022_Jun_29_1131,Semantic-hierachy,2021.1.2,59.86980246314613,
302,Trial # 303,layer6-8_O11_to_T3.jpg,layer6-8/layer6-8_O11_to_T3.jpg,OT,layer6-8,,,,,,,,,0.0,2.0,2.0,2.0,961.5991235179828,None,3.0,1.5644908460089937,961.5991235179828,None,961.5991235179828,None,961.5991235179828,None,1,2022_Jun_29_1131,Semantic-hierachy,2021.1.2,59.86980246314613,
303,Trial # 304,layer6-8_O2_to_T7.jpg,layer6-8/layer6-8_O2_to_T7.jpg,OT,layer6-8,,,,,,,,,0.0,3.0,3.0,3.0,963.3821263950084,None,3.0,1.2611853249836713,963.3821263950084,None,963.3821263950084,None,963.3821263950084,None,1,2022_Jun_29_1131,Semantic-hierachy,2021.1.2,59.86980246314613,
304,Trial # 305,layer0-5_T1_to_T7.jpg,layer0-5/layer0-5_T1_to_T7.jpg,TT,layer0-5,,,,,,,,,0.0,4.0,4.0,4.0,964.8152570819948,None,1.0,1.724487413011957,964.8152570819948,None,964.8152570819948,None,964.8152570819948,None,1,2022_Jun_29_1131,Semantic-hierachy,2021.1.2,59.86980246314613,
305,Trial # 306,layer6-8_O7_to_T11.jpg,layer6-8/layer6-8_O7_to_T11.jpg,OT,layer6-8,,,,,,,,,0.0,5.0,5.0,5.0,966.8341953200288,None,3.0,2.146455743000842,966.8341953200288,None,966.8341953200288,None,966.8341953200288,None,1,2022_Jun_29_1131,Semantic-hierachy,2021.1.2,59.86980246314613,
306,Trial # 307,layer9-17_O5_to_T5.jpg,layer9-17/layer9-17_O5_to_T5.jpg,OT,layer9-17,,,,,,,,,0.0,6.0,6.0,6.0,969.2671492709778,None,2.0,1.6931124220136553,969.2671492709778,None,969.2671492709778,None,969.2671492709778,None,1,2022_Jun_29_1131,Semantic-hierachy,2021.1.2,59.86980246314613,
307,Trial # 308,layer9-17_T12_to_T5.jpg,layer9-17/layer9-17_T12_to_T5.jpg,TT,layer9-17,,,,,,,,,0.0,7.0,7.0,7.0,971.1689463930088,None,2.0,1.7968813849729486,971.1689463930088,None,971.1689463930088,None,971.1689463930088,None,1,2022_Jun_29_1131,Semantic-hierachy,2021.1.2,59.86980246314613,
308,Trial # 309,layer6-8_O11_to_O2.jpg,layer6-8/layer6-8_O11_to_O2.jpg,OO,layer6-8,,,,,,,,,0.0,8.0,8.0,8.0,973.1350879319943,None,2.0,3.47429630800616,973.1350879319943,None,973.1350879319943,None,973.1350879319943,None,1,2022_Jun_29_1131,Semantic-hierachy,2021.1.2,59.86980246314613,
309,Trial # 310,layer6-8_O10_to_O7.jpg,layer6-8/layer6-8_O10_to_O7.jpg,OO,layer6-8,,,,,,,,,0.0,9.0,9.0,9.0,976.9541430139798,None,4.0,3.992503045010381,976.9541430139798,None,976.9541430139798,None,976.9541430139798,None,1,2022_Jun_29_1131,Semantic-hierachy,2021.1.2,59.86980246314613,
310,Trial # 311,layer9-17_O10_to_T11.jpg,layer9-17/layer9-17_O10_to_T11.jpg,OT,layer9-17,,,,,,,,,0.0,10.0,10.0,10.0,981.1540434720227,None,2.0,4.358032866031863,981.1540434720227,None,981.1540434720227,None,981.1540434720227,None,1,2022_Jun_29_1131,Semantic-hierachy,2021.1.2,59.86980246314613,
311,Trial # 312,layer6-8_O11_to_O12.jpg,layer6-8/layer6-8_O11_to_O12.jpg,OO,layer6-8,,,,,,,,,0.0,11.0,11.0,11.0,985.7732617839938,None,4.0,3.528500829997938,985.7732617839938,None,985.7732617839938,None,985.7732617839938,None,1,2022_Jun_29_1131,Semantic-hierachy,2021.1.2,59.86980246314613,
312,Trial # 313,layer9-17_O9_to_T8.jpg,layer9-17/layer9-17_O9_to_T8.jpg,OT,layer9-17,,,,,,,,,0.0,12.0,12.0,12.0,989.4570963580044,None,4.0,3.979528776020743,989.4570963580044,None,989.4570963580044,None,989.4570963580044,None,1,2022_Jun_29_1131,Semantic-hierachy,2021.1.2,59.86980246314613,
313,Trial # 314,layer0-5_O3_to_T2.jpg,layer0-5/layer0-5_O3_to_T2.jpg,OT,layer0-5,,,,,,,,,0.0,13.0,13.0,13.0,995.9266452110024,None,1.0,1.7304168959963135,995.9266452110024,None,995.9266452110024,None,995.9266452110024,None,1,2022_Jun_29_1131,Semantic-hierachy,2021.1.2,59.86980246314613,
314,Trial # 315,layer9-17_T1_to_T11.jpg,layer9-17/layer9-17_T1_to_T11.jpg,TT,layer9-17,,,,,,,,,0.0,14.0,14.0,14.0,997.942795861978,None,2.0,1.762983965978492,997.942795861978,None,997.942795861978,None,997.942795861978,None,1,2022_Jun_29_1131,Semantic-hierachy,2021.1.2,59.86980246314613,
315,Trial # 316,layer6-8_T10_to_T7.jpg,layer6-8/layer6-8_T10_to_T7.jpg,TT,layer6-8,,,,,,,,,0.0,15.0,15.0,15.0,999.8433930780157,None,3.0,4.477301961975172,999.8433930780157,None,999.8433930780157,None,999.8433930780157,None,1,2022_Jun_29_1131,Semantic-hierachy,2021.1.2,59.86980246314613,
316,Trial # 317,layer0-5_T6_to_T7.jpg,layer0-5/layer0-5_T6_to_T7.jpg,TT,layer0-5,,,,,,,,,0.0,16.0,16.0,16.0,1004.4774809060036,None,1.0,1.7620091519784182,1004.4774809060036,None,1004.4774809060036,None,1004.4774809060036,None,1,2022_Jun_29_1131,Semantic-hierachy,2021.1.2,59.86980246314613,
317,Trial # 318,layer9-17_O1_to_T3.jpg,layer9-17/layer9-17_O1_to_T3.jpg,OT,layer9-17,,,,,,,,,0.0,17.0,17.0,17.0,1006.4297368699918,None,2.0,1.26120465004351,1006.4297368699918,None,1006.4297368699918,None,1006.4297368699918,None,1,2022_Jun_29_1131,Semantic-hierachy,2021.1.2,59.86980246314613,
318,Trial # 319,layer0-5_O2_to_T5.jpg,layer0-5/layer0-5_O2_to_T5.jpg,OT,layer0-5,,,,,,,,,0.0,18.0,18.0,18.0,1008.2628408320016,None,1.0,1.6927906529745087,1008.2628408320016,None,1008.2628408320016,None,1008.2628408320016,None,1,2022_Jun_29_1131,Semantic-hierachy,2021.1.2,59.86980246314613,
319,Trial # 320,layer6-8_O7_to_T10.jpg,layer6-8/layer6-8_O7_to_T10.jpg,OT,layer6-8,,,,,,,,,0.0,19.0,19.0,19.0,1010.1464534149854,None,3.0,2.993524012970738,1010.1464534149854,None,1010.1464534149854,None,1010.1464534149854,None,1,2022_Jun_29_1131,Semantic-hierachy,2021.1.2,59.86980246314613,
320,Trial # 321,layer0-5_O5_to_O6.jpg,layer0-5/layer0-5_O5_to_O6.jpg,OO,layer0-5,,,,,,,,,0.0,20.0,20.0,20.0,1013.5474997289712,None,1.0,1.763381952943746,1013.5474997289712,None,1013.5474997289712,None,1013.5474997289712,None,1,2022_Jun_29_1131,Semantic-hierachy,2021.1.2,59.86980246314613,
321,Trial # 322,layer9-17_O5_to_T4.jpg,layer9-17/layer9-17_O5_to_T4.jpg,OT,layer9-17,,,,,,,,,0.0,21.0,21.0,21.0,1015.5160698120015,None,2.0,1.7297982330201194,1015.5160698120015,None,1015.5160698120015,None,1015.5160698120015,None,1,2022_Jun_29_1131,Semantic-hierachy,2021.1.2,59.86980246314613,
322,Trial # 323,layer0-5_T12_to_T2.jpg,layer0-5/layer0-5_T12_to_T2.jpg,TT,layer0-5,,,,,,,,,0.0,22.0,22.0,22.0,1017.4988461339964,None,1.0,1.5933340259944089,1017.4988461339964,None,1017.4988461339964,None,1017.4988461339964,None,1,2022_Jun_29_1131,Semantic-hierachy,2021.1.2,59.86980246314613,
323,Trial # 324,layer0-5_O2_to_O4.jpg,layer0-5/layer0-5_O2_to_O4.jpg,OO,layer0-5,,,,,,,,,0.0,23.0,23.0,23.0,1019.2822889789824,None,1.0,1.7483475279877894,1019.2822889789824,None,1019.2822889789824,None,1019.2822889789824,None,1,2022_Jun_29_1131,Semantic-hierachy,2021.1.2,59.86980246314613,
324,Trial # 325,layer6-8_O1_to_O9.jpg,layer6-8/layer6-8_O1_to_O9.jpg,OO,layer6-8,,,,,,,,,0.0,24.0,24.0,24.0,1021.6342759149848,None,4.0,2.511010445014108,1021.6342759149848,None,1021.6342759149848,None,1021.6342759149848,None,1,2022_Jun_29_1131,Semantic-hierachy,2021.1.2,59.86980246314613,
325,Trial # 326,layer0-5_T3_to_T5.jpg,layer0-5/layer0-5_T3_to_T5.jpg,TT,layer0-5,,,,,,,,,0.0,25.0,25.0,25.0,1024.7343330340227,None,1.0,1.7623274070210757,1024.7343330340227,None,1024.7343330340227,None,1024.7343330340227,None,1,2022_Jun_29_1131,Semantic-hierachy,2021.1.2,59.86980246314613,
326,Trial # 327,layer6-8_O8_to_T12.jpg,layer6-8/layer6-8_O8_to_T12.jpg,OT,layer6-8,,,,,,,,,0.0,26.0,26.0,26.0,1026.6692331780214,None,2.0,1.5823669800302014,1026.6692331780214,None,1026.6692331780214,None,1026.6692331780214,None,1,2022_Jun_29_1131,Semantic-hierachy,2021.1.2,59.86980246314613,
327,Trial # 328,layer9-17_T11_to_T4.jpg,layer9-17/layer9-17_T11_to_T4.jpg,TT,layer9-17,,,,,,,,,0.0,27.0,27.0,27.0,1028.5521909830277,None,2.0,1.7287628950434737,1028.5521909830277,None,1028.5521909830277,None,1028.5521909830277,None,1,2022_Jun_29_1131,Semantic-hierachy,2021.1.2,59.86980246314613,
328,Trial # 329,layer9-17_O6_to_T2.jpg,layer9-17/layer9-17_O6_to_T2.jpg,OT,layer9-17,,,,,,,,,0.0,28.0,28.0,28.0,1030.6031241180026,None,2.0,1.096185231988784,1030.6031241180026,None,1030.6031241180026,None,1030.6031241180026,None,1,2022_Jun_29_1131,Semantic-hierachy,2021.1.2,59.86980246314613,
329,Trial # 330,layer9-17_T10_to_T9.jpg,layer9-17/layer9-17_T10_to_T9.jpg,TT,layer9-17,,,,,,,,,0.0,29.0,29.0,29.0,1031.937787790026,None,2.0,2.6766147920279764,1031.937787790026,None,1031.937787790026,None,1031.937787790026,None,1,2022_Jun_29_1131,Semantic-hierachy,2021.1.2,59.86980246314613,
330,Trial # 331,layer0-5_O2_to_O3.jpg,layer0-5/layer0-5_O2_to_O3.jpg,OO,layer0-5,,,,,,,,,0.0,30.0,30.0,30.0,1035.0873206179822,None,1.0,1.4827215480036102,1035.0873206179822,None,1035.0873206179822,None,1035.0873206179822,None,1,2022_Jun_29_1131,Semantic-hierachy,2021.1.2,59.86980246314613,
331,Trial # 332,layer6-8_O1_to_O12.jpg,layer6-8/layer6-8_O1_to_O12.jpg,OO,layer6-8,,,,,,,,,0.0,31.0,31.0,31.0,1036.8223048889777,None,2.0,3.816319944977295,1036.8223048889777,None,1036.8223048889777,None,1036.8223048889777,None,1,2022_Jun_29_1131,Semantic-hierachy,2021.1.2,59.86980246314613,
332,Trial # 333,layer0-5_O5_to_T12.jpg,layer0-5/layer0-5_O5_to_T12.jpg,OT,layer0-5,,,,,,,,,0.0,32.0,32.0,32.0,1040.8233423610218,None,1.0,1.815830581006594,1040.8233423610218,None,1040.8233423610218,None,1040.8233423610218,None,1,2022_Jun_29_1131,Semantic-hierachy,2021.1.2,59.86980246314613,
333,Trial # 334,layer9-17_O11_to_T6.jpg,layer9-17/layer9-17_O11_to_T6.jpg,OT,layer9-17,,,,,,,,,0.0,33.0,33.0,33.0,1042.8737873469945,None,4.0,4.479927007982042,1042.8737873469945,None,1042.8737873469945,None,1042.8737873469945,None,1,2022_Jun_29_1131,Semantic-hierachy,2021.1.2,59.86980246314613,
334,Trial # 335,layer0-5_O4_to_T1.jpg,layer0-5/layer0-5_O4_to_T1.jpg,OT,layer0-5,,,,,,,,,0.0,34.0,34.0,34.0,1047.607805792999,None,1.0,1.9845254679676143,1047.607805792999,None,1047.607805792999,None,1047.607805792999,None,1,2022_Jun_29_1131,Semantic-hierachy,2021.1.2,59.86980246314613,
335,Trial # 336,layer6-8_T1_to_T6.jpg,layer6-8/layer6-8_T1_to_T6.jpg,TT,layer6-8,,,,,,,,,0.0,35.0,35.0,35.0,1050.9095081940177,None,4.0,4.6642517619766295,1050.9095081940177,None,1050.9095081940177,None,1050.9095081940177,None,1,2022_Jun_29_1131,Semantic-hierachy,2021.1.2,59.86980246314613,
336,Trial # 337,layer0-5_O12_to_O6.jpg,layer0-5/layer0-5_O12_to_O6.jpg,OO,layer0-5,,,,,,,,,0.0,36.0,36.0,36.0,1055.7449200419942,None,1.0,1.876778811973054,1055.7449200419942,None,1055.7449200419942,None,1055.7449200419942,None,1,2022_Jun_29_1131,Semantic-hierachy,2021.1.2,59.86980246314613,
337,Trial # 338,layer0-5_O1_to_O10.jpg,layer0-5/layer0-5_O1_to_O10.jpg,OO,layer0-5,,,,,,,,,0.0,37.0,37.0,37.0,1058.511271204974,None,1.0,1.7467658889945596,1058.511271204974,None,1058.511271204974,None,1058.511271204974,None,1,2022_Jun_29_1131,Semantic-hierachy,2021.1.2,59.86980246314613,
338,Trial # 339,layer0-5_O9_to_T9.jpg,layer0-5/layer0-5_O9_to_T9.jpg,OT,layer0-5,,,,,,,,,0.0,38.0,38.0,38.0,1060.5462174739805,None,1.0,1.097749752982054,1060.5462174739805,None,1060.5462174739805,None,1060.5462174739805,None,1,2022_Jun_29_1131,Semantic-hierachy,2021.1.2,59.86980246314613,
339,Trial # 340,layer6-8_O6_to_T10.jpg,layer6-8/layer6-8_O6_to_T10.jpg,OT,layer6-8,,,,,,,,,0.0,39.0,39.0,39.0,1062.0970171390218,None,3.0,1.911183346004691,1062.0970171390218,None,1062.0970171390218,None,1062.0970171390218,None,1,2022_Jun_29_1131,Semantic-hierachy,2021.1.2,59.86980246314613,
340,Trial # 341,layer9-17_O3_to_T3.jpg,layer9-17/layer9-17_O3_to_T3.jpg,OT,layer9-17,,,,,,,,,0.0,40.0,40.0,40.0,1064.2302667020122,None,2.0,1.5610779109993018,1064.2302667020122,None,1064.2302667020122,None,1064.2302667020122,None,1,2022_Jun_29_1131,Semantic-hierachy,2021.1.2,59.86980246314613,
341,Trial # 342,layer0-5_O8_to_T8.jpg,layer0-5/layer0-5_O8_to_T8.jpg,OT,layer0-5,,,,,,,,,0.0,41.0,41.0,41.0,1066.0144667609711,None,1.0,2.19065468601184,1066.0144667609711,None,1066.0144667609711,None,1066.0144667609711,None,1,2022_Jun_29_1131,Semantic-hierachy,2021.1.2,59.86980246314613,
