,Trial_num,image_name,image_path,pair_type,layers,block1.thisRepN,block1.thisTrialN,block1.thisN,block1.thisIndex,block2.thisRepN,block2.thisTrialN,block2.thisN,block2.thisIndex,block3.thisRepN,block3.thisTrialN,block3.thisN,block3.thisIndex,image_8.started,image_8.stopped,selected_semantic.response,selected_semantic.rt,selected_semantic.started,selected_semantic.stopped,Instruction.started,Instruction.stopped,Trial_number.started,Trial_number.stopped,session,date,expName,psychopyVersion,frameRate,Unnamed: 33
0,Trial # 1,layer0-5_O2_to_T1.jpg,layer0-5/layer0-5_O2_to_T1.jpg,OT,layer0-5,0.0,0.0,0.0,0.0,,,,,,,,,42.136028681881726,None,1.0,65.0360615318641,42.136028681881726,None,42.136028681881726,None,42.136028681881726,None,1,2022_Apr_22_1446,Semantic-hierachy,2021.1.2,60.08168589156998,
1,Trial # 2,layer0-5_O11_to_T7.jpg,layer0-5/layer0-5_O11_to_T7.jpg,OT,layer0-5,0.0,1.0,1.0,1.0,,,,,,,,,110.40572783793324,None,1.0,15.558217026060449,110.40572783793324,None,110.40572783793324,None,110.40572783793324,None,1,2022_Apr_22_1446,Semantic-hierachy,2021.1.2,60.08168589156998,
2,Trial # 3,layer6-8_O3_to_O5.jpg,layer6-8/layer6-8_O3_to_O5.jpg,OO,layer6-8,0.0,2.0,2.0,2.0,,,,,,,,,129.1952047299128,None,4.0,6.744053390109912,129.1952047299128,None,129.1952047299128,None,129.1952047299128,None,1,2022_Apr_22_1446,Semantic-hierachy,2021.1.2,60.08168589156998,
3,Trial # 4,layer6-8_O11_to_O4.jpg,layer6-8/layer6-8_O11_to_O4.jpg,OO,layer6-8,0.0,3.0,3.0,3.0,,,,,,,,,137.9976700549014,None,3.0,4.994541173102334,137.9976700549014,None,137.9976700549014,None,137.9976700549014,None,1,2022_Apr_22_1446,Semantic-hierachy,2021.1.2,60.08168589156998,
4,Trial # 5,layer6-8_O8_to_T8.jpg,layer6-8/layer6-8_O8_to_T8.jpg,OT,layer6-8,0.0,4.0,4.0,4.0,,,,,,,,,144.3672630728688,None,4.0,3.941246439004317,144.3672630728688,None,144.3672630728688,None,144.3672630728688,None,1,2022_Apr_22_1446,Semantic-hierachy,2021.1.2,60.08168589156998,
5,Trial # 6,layer0-5_O11_to_O8.jpg,layer0-5/layer0-5_O11_to_O8.jpg,OO,layer0-5,0.0,5.0,5.0,5.0,,,,,,,,,149.8015012878459,None,1.0,6.3290389778558165,149.8015012878459,None,149.8015012878459,None,149.8015012878459,None,1,2022_Apr_22_1446,Semantic-hierachy,2021.1.2,60.08168589156998,
6,Trial # 7,layer0-5_T10_to_T11.jpg,layer0-5/layer0-5_T10_to_T11.jpg,TT,layer0-5,0.0,6.0,6.0,6.0,,,,,,,,,156.4879520968534,None,1.0,4.940028863027692,156.4879520968534,None,156.4879520968534,None,156.4879520968534,None,1,2022_Apr_22_1446,Semantic-hierachy,2021.1.2,60.08168589156998,
7,Trial # 8,layer9-17_O6_to_O9.jpg,layer9-17/layer9-17_O6_to_O9.jpg,OO,layer9-17,0.0,7.0,7.0,7.0,,,,,,,,,161.9062352848705,None,2.0,2.5855521399062127,161.9062352848705,None,161.9062352848705,None,161.9062352848705,None,1,2022_Apr_22_1446,Semantic-hierachy,2021.1.2,60.08168589156998,
8,Trial # 9,layer6-8_O12_to_O9.jpg,layer6-8/layer6-8_O12_to_O9.jpg,OO,layer6-8,0.0,8.0,8.0,8.0,,,,,,,,,164.87322035082616,None,3.0,2.5505187739618123,164.87322035082616,None,164.87322035082616,None,164.87322035082616,None,1,2022_Apr_22_1446,Semantic-hierachy,2021.1.2,60.08168589156998,
9,Trial # 10,layer0-5_O10_to_T2.jpg,layer0-5/layer0-5_O10_to_T2.jpg,OT,layer0-5,0.0,9.0,9.0,9.0,,,,,,,,,167.758084962843,None,4.0,3.3854808979667723,167.758084962843,None,167.758084962843,None,167.758084962843,None,1,2022_Apr_22_1446,Semantic-hierachy,2021.1.2,60.08168589156998,
10,Trial # 11,layer9-17_T10_to_T2.jpg,layer9-17/layer9-17_T10_to_T2.jpg,TT,layer9-17,0.0,10.0,10.0,10.0,,,,,,,,,172.30908544478007,None,3.0,16.809724733931944,172.30908544478007,None,172.30908544478007,None,172.30908544478007,None,1,2022_Apr_22_1446,Semantic-hierachy,2021.1.2,60.08168589156998,
11,Trial # 12,layer6-8_T6_to_T7.jpg,layer6-8/layer6-8_T6_to_T7.jpg,TT,layer6-8,0.0,11.0,11.0,11.0,,,,,,,,,190.33047797181644,None,3.0,2.7893074231687933,190.33047797181644,None,190.33047797181644,None,190.33047797181644,None,1,2022_Apr_22_1446,Semantic-hierachy,2021.1.2,60.08168589156998,
12,Trial # 13,layer9-17_O10_to_T2.jpg,layer9-17/layer9-17_O10_to_T2.jpg,OT,layer9-17,0.0,12.0,12.0,12.0,,,,,,,,,193.59876314294524,None,2.0,1.8909616370219735,193.59876314294524,None,193.59876314294524,None,193.59876314294524,None,1,2022_Apr_22_1446,Semantic-hierachy,2021.1.2,60.08168589156998,
13,Trial # 14,layer6-8_T4_to_T7.jpg,layer6-8/layer6-8_T4_to_T7.jpg,TT,layer6-8,0.0,13.0,13.0,13.0,,,,,,,,,195.76557060377672,None,4.0,8.037537682102993,195.76557060377672,None,195.76557060377672,None,195.76557060377672,None,1,2022_Apr_22_1446,Semantic-hierachy,2021.1.2,60.08168589156998,
14,Trial # 15,layer9-17_O8_to_T2.jpg,layer9-17/layer9-17_O8_to_T2.jpg,OT,layer9-17,0.0,14.0,14.0,14.0,,,,,,,,,205.51827126485296,None,2.0,2.319696706952527,205.51827126485296,None,205.51827126485296,None,205.51827126485296,None,1,2022_Apr_22_1446,Semantic-hierachy,2021.1.2,60.08168589156998,
15,Trial # 16,layer0-5_T6_to_T9.jpg,layer0-5/layer0-5_T6_to_T9.jpg,TT,layer0-5,0.0,15.0,15.0,15.0,,,,,,,,,208.1694945958443,None,1.0,4.171825258992612,208.1694945958443,None,208.1694945958443,None,208.1694945958443,None,1,2022_Apr_22_1446,Semantic-hierachy,2021.1.2,60.08168589156998,
16,Trial # 17,layer0-5_O11_to_O12.jpg,layer0-5/layer0-5_O11_to_O12.jpg,OO,layer0-5,0.0,16.0,16.0,16.0,,,,,,,,,212.72209391277283,None,1.0,1.602798192994669,212.72209391277283,None,212.72209391277283,None,212.72209391277283,None,1,2022_Apr_22_1446,Semantic-hierachy,2021.1.2,60.08168589156998,
17,Trial # 18,layer0-5_T11_to_T5.jpg,layer0-5/layer0-5_T11_to_T5.jpg,TT,layer0-5,0.0,17.0,17.0,17.0,,,,,,,,,214.7379209289793,None,1.0,2.425068187061697,214.7379209289793,None,214.7379209289793,None,214.7379209289793,None,1,2022_Apr_22_1446,Semantic-hierachy,2021.1.2,60.08168589156998,
18,Trial # 19,layer0-5_O6_to_T12.jpg,layer0-5/layer0-5_O6_to_T12.jpg,OT,layer0-5,0.0,18.0,18.0,18.0,,,,,,,,,217.52257517981343,None,1.0,1.935106460005045,217.52257517981343,None,217.52257517981343,None,217.52257517981343,None,1,2022_Apr_22_1446,Semantic-hierachy,2021.1.2,60.08168589156998,
19,Trial # 20,layer6-8_T6_to_T8.jpg,layer6-8/layer6-8_T6_to_T8.jpg,TT,layer6-8,0.0,19.0,19.0,19.0,,,,,,,,,219.7229132577777,None,4.0,2.4898368469439447,219.7229132577777,None,219.7229132577777,None,219.7229132577777,None,1,2022_Apr_22_1446,Semantic-hierachy,2021.1.2,60.08168589156998,
20,Trial # 21,layer9-17_T2_to_T5.jpg,layer9-17/layer9-17_T2_to_T5.jpg,TT,layer9-17,0.0,20.0,20.0,20.0,,,,,,,,,222.52442155592144,None,2.0,3.2589229219593108,222.52442155592144,None,222.52442155592144,None,222.52442155592144,None,1,2022_Apr_22_1446,Semantic-hierachy,2021.1.2,60.08168589156998,
21,Trial # 22,layer6-8_O2_to_O6.jpg,layer6-8/layer6-8_O2_to_O6.jpg,OO,layer6-8,0.0,21.0,21.0,21.0,,,,,,,,,226.1600136898924,None,3.0,2.3373418948613107,226.1600136898924,None,226.1600136898924,None,226.1600136898924,None,1,2022_Apr_22_1446,Semantic-hierachy,2021.1.2,60.08168589156998,
22,Trial # 23,layer9-17_O3_to_T12.jpg,layer9-17/layer9-17_O3_to_T12.jpg,OT,layer9-17,0.0,22.0,22.0,22.0,,,,,,,,,228.85968404379676,None,2.0,2.3706236600410198,228.85968404379676,None,228.85968404379676,None,228.85968404379676,None,1,2022_Apr_22_1446,Semantic-hierachy,2021.1.2,60.08168589156998,
23,Trial # 24,layer0-5_O11_to_O3.jpg,layer0-5/layer0-5_O11_to_O3.jpg,OO,layer0-5,0.0,23.0,23.0,23.0,,,,,,,,,231.57766629895195,None,1.0,2.150647238828242,231.57766629895195,None,231.57766629895195,None,231.57766629895195,None,1,2022_Apr_22_1446,Semantic-hierachy,2021.1.2,60.08168589156998,
24,Trial # 25,layer6-8_O2_to_O9.jpg,layer6-8/layer6-8_O2_to_O9.jpg,OO,layer6-8,0.0,24.0,24.0,24.0,,,,,,,,,234.11099032289349,None,4.0,3.354855962097645,234.11099032289349,None,234.11099032289349,None,234.11099032289349,None,1,2022_Apr_22_1446,Semantic-hierachy,2021.1.2,60.08168589156998,
25,Trial # 26,layer9-17_O10_to_O8.jpg,layer9-17/layer9-17_O10_to_O8.jpg,OO,layer9-17,0.0,25.0,25.0,25.0,,,,,,,,,237.89592198492028,None,4.0,3.136370426043868,237.89592198492028,None,237.89592198492028,None,237.89592198492028,None,1,2022_Apr_22_1446,Semantic-hierachy,2021.1.2,60.08168589156998,
26,Trial # 27,layer9-17_T4_to_T6.jpg,layer9-17/layer9-17_T4_to_T6.jpg,TT,layer9-17,0.0,26.0,26.0,26.0,,,,,,,,,241.41335596190768,None,2.0,2.1474624960683286,241.41335596190768,None,241.41335596190768,None,241.41335596190768,None,1,2022_Apr_22_1446,Semantic-hierachy,2021.1.2,60.08168589156998,
27,Trial # 28,layer6-8_O7_to_T8.jpg,layer6-8/layer6-8_O7_to_T8.jpg,OT,layer6-8,0.0,27.0,27.0,27.0,,,,,,,,,243.91470093489625,None,3.0,2.3393492409959435,243.91470093489625,None,243.91470093489625,None,243.91470093489625,None,1,2022_Apr_22_1446,Semantic-hierachy,2021.1.2,60.08168589156998,
28,Trial # 29,layer6-8_T4_to_T5.jpg,layer6-8/layer6-8_T4_to_T5.jpg,TT,layer6-8,0.0,28.0,28.0,28.0,,,,,,,,,246.54896829184145,None,3.0,3.6010163801256567,246.54896829184145,None,246.54896829184145,None,246.54896829184145,None,1,2022_Apr_22_1446,Semantic-hierachy,2021.1.2,60.08168589156998,
29,Trial # 30,layer6-8_T10_to_T9.jpg,layer6-8/layer6-8_T10_to_T9.jpg,TT,layer6-8,0.0,29.0,29.0,29.0,,,,,,,,,250.56644991296344,None,3.0,1.872425362933427,250.56644991296344,None,250.56644991296344,None,250.56644991296344,None,1,2022_Apr_22_1446,Semantic-hierachy,2021.1.2,60.08168589156998,
30,Trial # 31,layer9-17_O1_to_O8.jpg,layer9-17/layer9-17_O1_to_O8.jpg,OO,layer9-17,0.0,30.0,30.0,30.0,,,,,,,,,252.8505334758665,None,2.0,2.067823196062818,252.8505334758665,None,252.8505334758665,None,252.8505334758665,None,1,2022_Apr_22_1446,Semantic-hierachy,2021.1.2,60.08168589156998,
31,Trial # 32,layer9-17_O12_to_O7.jpg,layer9-17/layer9-17_O12_to_O7.jpg,OO,layer9-17,0.0,31.0,31.0,31.0,,,,,,,,,255.4172636338044,None,3.0,1.9779979242011905,255.4172636338044,None,255.4172636338044,None,255.4172636338044,None,1,2022_Apr_22_1446,Semantic-hierachy,2021.1.2,60.08168589156998,
32,Trial # 33,layer9-17_T10_to_T12.jpg,layer9-17/layer9-17_T10_to_T12.jpg,TT,layer9-17,0.0,32.0,32.0,32.0,,,,,,,,,257.7519042699132,None,3.0,2.3507412341423333,257.7519042699132,None,257.7519042699132,None,257.7519042699132,None,1,2022_Apr_22_1446,Semantic-hierachy,2021.1.2,60.08168589156998,
33,Trial # 34,layer0-5_T2_to_T6.jpg,layer0-5/layer0-5_T2_to_T6.jpg,TT,layer0-5,0.0,33.0,33.0,33.0,,,,,,,,,260.4524125228636,None,3.0,2.418009155895561,260.4524125228636,None,260.4524125228636,None,260.4524125228636,None,1,2022_Apr_22_1446,Semantic-hierachy,2021.1.2,60.08168589156998,
34,Trial # 35,layer6-8_T11_to_T2.jpg,layer6-8/layer6-8_T11_to_T2.jpg,TT,layer6-8,0.0,34.0,34.0,34.0,,,,,,,,,264.3210465419106,None,3.0,3.0529990969225764,264.3210465419106,None,264.3210465419106,None,264.3210465419106,None,1,2022_Apr_22_1446,Semantic-hierachy,2021.1.2,60.08168589156998,
35,Trial # 36,layer6-8_O4_to_T3.jpg,layer6-8/layer6-8_O4_to_T3.jpg,OT,layer6-8,0.0,35.0,35.0,35.0,,,,,,,,,267.85573276598006,None,3.0,3.0355292500462383,267.85573276598006,None,267.85573276598006,None,267.85573276598006,None,1,2022_Apr_22_1446,Semantic-hierachy,2021.1.2,60.08168589156998,
36,Trial # 37,layer6-8_O3_to_T11.jpg,layer6-8/layer6-8_O3_to_T11.jpg,OT,layer6-8,0.0,36.0,36.0,36.0,,,,,,,,,271.2561479569413,None,2.0,2.0691808508709078,271.2561479569413,None,271.2561479569413,None,271.2561479569413,None,1,2022_Apr_22_1446,Semantic-hierachy,2021.1.2,60.08168589156998,
37,Trial # 38,layer6-8_T1_to_T2.jpg,layer6-8/layer6-8_T1_to_T2.jpg,TT,layer6-8,0.0,37.0,37.0,37.0,,,,,,,,,273.7234963469673,None,3.0,3.108237532898784,273.7234963469673,None,273.7234963469673,None,273.7234963469673,None,1,2022_Apr_22_1446,Semantic-hierachy,2021.1.2,60.08168589156998,
38,Trial # 39,layer9-17_O2_to_O6.jpg,layer9-17/layer9-17_O2_to_O6.jpg,OO,layer9-17,0.0,38.0,38.0,38.0,,,,,,,,,277.20796394487843,None,4.0,5.237710946938023,277.20796394487843,None,277.20796394487843,None,277.20796394487843,None,1,2022_Apr_22_1446,Semantic-hierachy,2021.1.2,60.08168589156998,
39,Trial # 40,layer9-17_O4_to_T2.jpg,layer9-17/layer9-17_O4_to_T2.jpg,OT,layer9-17,0.0,39.0,39.0,39.0,,,,,,,,,282.8093469748273,None,2.0,1.837986320024356,282.8093469748273,None,282.8093469748273,None,282.8093469748273,None,1,2022_Apr_22_1446,Semantic-hierachy,2021.1.2,60.08168589156998,
40,Trial # 41,layer6-8_O5_to_T3.jpg,layer6-8/layer6-8_O5_to_T3.jpg,OT,layer6-8,0.0,40.0,40.0,40.0,,,,,,,,,284.91036322293803,None,3.0,1.7880723518319428,284.91036322293803,None,284.91036322293803,None,284.91036322293803,None,1,2022_Apr_22_1446,Semantic-hierachy,2021.1.2,60.08168589156998,
41,Trial # 42,layer6-8_O2_to_O3.jpg,layer6-8/layer6-8_O2_to_O3.jpg,OO,layer6-8,0.0,41.0,41.0,41.0,,,,,,,,,286.9613426618744,None,2.0,6.043633382068947,286.9613426618744,None,286.9613426618744,None,286.9613426618744,None,1,2022_Apr_22_1446,Semantic-hierachy,2021.1.2,60.08168589156998,
42,Trial # 43,layer6-8_O1_to_T6.jpg,layer6-8/layer6-8_O1_to_T6.jpg,OT,layer6-8,0.0,42.0,42.0,42.0,,,,,,,,,293.3132586448919,None,2.0,1.871757801156491,293.3132586448919,None,293.3132586448919,None,293.3132586448919,None,1,2022_Apr_22_1446,Semantic-hierachy,2021.1.2,60.08168589156998,
43,Trial # 44,layer6-8_O2_to_T12.jpg,layer6-8/layer6-8_O2_to_T12.jpg,OT,layer6-8,0.0,43.0,43.0,43.0,,,,,,,,,295.529744082829,None,3.0,2.5545489590149373,295.529744082829,None,295.529744082829,None,295.529744082829,None,1,2022_Apr_22_1446,Semantic-hierachy,2021.1.2,60.08168589156998,
44,Trial # 45,layer9-17_O2_to_O8.jpg,layer9-17/layer9-17_O2_to_O8.jpg,OO,layer9-17,0.0,44.0,44.0,44.0,,,,,,,,,298.4307515148539,None,2.0,2.242742747068405,298.4307515148539,None,298.4307515148539,None,298.4307515148539,None,1,2022_Apr_22_1446,Semantic-hierachy,2021.1.2,60.08168589156998,
45,Trial # 46,layer9-17_O10_to_O4.jpg,layer9-17/layer9-17_O10_to_O4.jpg,OO,layer9-17,0.0,45.0,45.0,45.0,,,,,,,,,301.21512494189665,None,3.0,2.6764242600183934,301.21512494189665,None,301.21512494189665,None,301.21512494189665,None,1,2022_Apr_22_1446,Semantic-hierachy,2021.1.2,60.08168589156998,
46,Trial # 47,layer0-5_O1_to_O4.jpg,layer0-5/layer0-5_O1_to_O4.jpg,OO,layer0-5,0.0,46.0,46.0,46.0,,,,,,,,,304.58223699987866,None,1.0,2.784742802847177,304.58223699987866,None,304.58223699987866,None,304.58223699987866,None,1,2022_Apr_22_1446,Semantic-hierachy,2021.1.2,60.08168589156998,
47,Trial # 48,layer0-5_T4_to_T5.jpg,layer0-5/layer0-5_T4_to_T5.jpg,TT,layer0-5,0.0,47.0,47.0,47.0,,,,,,,,,308.3505508909002,None,1.0,2.7184799739625305,308.3505508909002,None,308.3505508909002,None,308.3505508909002,None,1,2022_Apr_22_1446,Semantic-hierachy,2021.1.2,60.08168589156998,
48,Trial # 49,layer9-17_T12_to_T8.jpg,layer9-17/layer9-17_T12_to_T8.jpg,TT,layer9-17,0.0,48.0,48.0,48.0,,,,,,,,,311.60262232786044,None,2.0,2.232481191167608,311.60262232786044,None,311.60262232786044,None,311.60262232786044,None,1,2022_Apr_22_1446,Semantic-hierachy,2021.1.2,60.08168589156998,
49,Trial # 50,layer0-5_T10_to_T5.jpg,layer0-5/layer0-5_T10_to_T5.jpg,TT,layer0-5,0.0,49.0,49.0,49.0,,,,,,,,,314.169208467938,None,1.0,4.540399502962828,314.169208467938,None,314.169208467938,None,314.169208467938,None,1,2022_Apr_22_1446,Semantic-hierachy,2021.1.2,60.08168589156998,
50,Trial # 51,layer6-8_O10_to_O8.jpg,layer6-8/layer6-8_O10_to_O8.jpg,OO,layer6-8,0.0,50.0,50.0,50.0,,,,,,,,,319.0370172939729,None,2.0,5.373868440045044,319.0370172939729,None,319.0370172939729,None,319.0370172939729,None,1,2022_Apr_22_1446,Semantic-hierachy,2021.1.2,60.08168589156998,
51,Trial # 52,layer9-17_O3_to_O5.jpg,layer9-17/layer9-17_O3_to_O5.jpg,OO,layer9-17,0.0,51.0,51.0,51.0,,,,,,,,,324.67182479891926,None,2.0,1.886879547033459,324.67182479891926,None,324.67182479891926,None,324.67182479891926,None,1,2022_Apr_22_1446,Semantic-hierachy,2021.1.2,60.08168589156998,
52,Trial # 53,layer6-8_T1_to_T12.jpg,layer6-8/layer6-8_T1_to_T12.jpg,TT,layer6-8,0.0,52.0,52.0,52.0,,,,,,,,,326.973120525945,None,3.0,1.940315525978804,326.973120525945,None,326.973120525945,None,326.973120525945,None,1,2022_Apr_22_1446,Semantic-hierachy,2021.1.2,60.08168589156998,
53,Trial # 54,layer0-5_O4_to_O9.jpg,layer0-5/layer0-5_O4_to_O9.jpg,OO,layer0-5,0.0,53.0,53.0,53.0,,,,,,,,,329.20661590690725,None,1.0,6.116103091044352,329.20661590690725,None,329.20661590690725,None,329.20661590690725,None,1,2022_Apr_22_1446,Semantic-hierachy,2021.1.2,60.08168589156998,
54,Trial # 55,layer0-5_O5_to_O9.jpg,layer0-5/layer0-5_O5_to_O9.jpg,OO,layer0-5,0.0,54.0,54.0,54.0,,,,,,,,,335.6757362168282,None,1.0,2.7447452030610293,335.6757362168282,None,335.6757362168282,None,335.6757362168282,None,1,2022_Apr_22_1446,Semantic-hierachy,2021.1.2,60.08168589156998,
55,Trial # 56,layer0-5_O1_to_O2.jpg,layer0-5/layer0-5_O1_to_O2.jpg,OO,layer0-5,0.0,55.0,55.0,55.0,,,,,,,,,339.14392260299064,None,1.0,2.4869112779852003,339.14392260299064,None,339.14392260299064,None,339.14392260299064,None,1,2022_Apr_22_1446,Semantic-hierachy,2021.1.2,60.08168589156998,
56,Trial # 57,layer9-17_T12_to_T3.jpg,layer9-17/layer9-17_T12_to_T3.jpg,TT,layer9-17,0.0,56.0,56.0,56.0,,,,,,,,,342.54528526379727,None,2.0,1.6036979330237957,342.54528526379727,None,342.54528526379727,None,342.54528526379727,None,1,2022_Apr_22_1446,Semantic-hierachy,2021.1.2,60.08168589156998,
57,Trial # 58,layer0-5_O7_to_O9.jpg,layer0-5/layer0-5_O7_to_O9.jpg,OO,layer0-5,0.0,57.0,57.0,57.0,,,,,,,,,344.46149673778564,None,1.0,1.6382955031003803,344.46149673778564,None,344.46149673778564,None,344.46149673778564,None,1,2022_Apr_22_1446,Semantic-hierachy,2021.1.2,60.08168589156998,
58,Trial # 59,layer0-5_T5_to_T9.jpg,layer0-5/layer0-5_T5_to_T9.jpg,TT,layer0-5,0.0,58.0,58.0,58.0,,,,,,,,,346.34654664993286,None,1.0,2.1788438090588897,346.34654664993286,None,346.34654664993286,None,346.34654664993286,None,1,2022_Apr_22_1446,Semantic-hierachy,2021.1.2,60.08168589156998,
59,Trial # 60,layer9-17_O1_to_O9.jpg,layer9-17/layer9-17_O1_to_O9.jpg,OO,layer9-17,0.0,59.0,59.0,59.0,,,,,,,,,348.9463099478744,None,4.0,4.935889398911968,348.9463099478744,None,348.9463099478744,None,348.9463099478744,None,1,2022_Apr_22_1446,Semantic-hierachy,2021.1.2,60.08168589156998,
60,Trial # 61,layer0-5_O6_to_O7.jpg,layer0-5/layer0-5_O6_to_O7.jpg,OO,layer0-5,0.0,60.0,60.0,60.0,,,,,,,,,355.61538866185583,None,1.0,2.535745054949075,355.61538866185583,None,355.61538866185583,None,355.61538866185583,None,1,2022_Apr_22_1446,Semantic-hierachy,2021.1.2,60.08168589156998,
61,Trial # 62,layer9-17_T5_to_T6.jpg,layer9-17/layer9-17_T5_to_T6.jpg,TT,layer9-17,0.0,61.0,61.0,61.0,,,,,,,,,358.46698585990816,None,3.0,5.19093658705242,358.46698585990816,None,358.46698585990816,None,358.46698585990816,None,1,2022_Apr_22_1446,Semantic-hierachy,2021.1.2,60.08168589156998,
62,Trial # 63,layer9-17_T4_to_T9.jpg,layer9-17/layer9-17_T4_to_T9.jpg,TT,layer9-17,0.0,62.0,62.0,62.0,,,,,,,,,363.9517478079069,None,2.0,2.000642758095637,363.9517478079069,None,363.9517478079069,None,363.9517478079069,None,1,2022_Apr_22_1446,Semantic-hierachy,2021.1.2,60.08168589156998,
63,Trial # 64,layer0-5_O11_to_T1.jpg,layer0-5/layer0-5_O11_to_T1.jpg,OT,layer0-5,0.0,63.0,63.0,63.0,,,,,,,,,366.23597627179697,None,1.0,1.815813103923574,366.23597627179697,None,366.23597627179697,None,366.23597627179697,None,1,2022_Apr_22_1446,Semantic-hierachy,2021.1.2,60.08168589156998,
64,Trial # 65,layer6-8_T5_to_T9.jpg,layer6-8/layer6-8_T5_to_T9.jpg,TT,layer6-8,0.0,64.0,64.0,64.0,,,,,,,,,368.3692301157862,None,3.0,3.948925493983552,368.3692301157862,None,368.3692301157862,None,368.3692301157862,None,1,2022_Apr_22_1446,Semantic-hierachy,2021.1.2,60.08168589156998,
65,Trial # 66,layer0-5_T4_to_T7.jpg,layer0-5/layer0-5_T4_to_T7.jpg,TT,layer0-5,0.0,65.0,65.0,65.0,,,,,,,,,372.65479738777503,None,1.0,2.6838274251203984,372.65479738777503,None,372.65479738777503,None,372.65479738777503,None,1,2022_Apr_22_1446,Semantic-hierachy,2021.1.2,60.08168589156998,
66,Trial # 67,layer0-5_O2_to_O6.jpg,layer0-5/layer0-5_O2_to_O6.jpg,OO,layer0-5,0.0,66.0,66.0,66.0,,,,,,,,,375.6881908529904,None,1.0,1.603141444036737,375.6881908529904,None,375.6881908529904,None,375.6881908529904,None,1,2022_Apr_22_1446,Semantic-hierachy,2021.1.2,60.08168589156998,
67,Trial # 68,layer9-17_O12_to_T3.jpg,layer9-17/layer9-17_O12_to_T3.jpg,OT,layer9-17,0.0,67.0,67.0,67.0,,,,,,,,,377.6057487949729,None,2.0,1.5516371259000152,377.6057487949729,None,377.6057487949729,None,377.6057487949729,None,1,2022_Apr_22_1446,Semantic-hierachy,2021.1.2,60.08168589156998,
68,Trial # 69,layer9-17_O7_to_O9.jpg,layer9-17/layer9-17_O7_to_O9.jpg,OO,layer9-17,0.0,68.0,68.0,68.0,,,,,,,,,379.3887724049855,None,4.0,2.562606896040961,379.3887724049855,None,379.3887724049855,None,379.3887724049855,None,1,2022_Apr_22_1446,Semantic-hierachy,2021.1.2,60.08168589156998,
69,Trial # 70,layer9-17_T1_to_T8.jpg,layer9-17/layer9-17_T1_to_T8.jpg,TT,layer9-17,0.0,69.0,69.0,69.0,,,,,,,,,382.2240912169218,None,3.0,3.9018602170981462,382.2240912169218,None,382.2240912169218,None,382.2240912169218,None,1,2022_Apr_22_1446,Semantic-hierachy,2021.1.2,60.08168589156998,
70,Trial # 71,layer0-5_O3_to_T8.jpg,layer0-5/layer0-5_O3_to_T8.jpg,OT,layer0-5,0.0,70.0,70.0,70.0,,,,,,,,,386.5918999388814,None,1.0,1.9099141431506723,386.5918999388814,None,386.5918999388814,None,386.5918999388814,None,1,2022_Apr_22_1446,Semantic-hierachy,2021.1.2,60.08168589156998,
71,Trial # 72,layer9-17_O9_to_T2.jpg,layer9-17/layer9-17_O9_to_T2.jpg,OT,layer9-17,0.0,71.0,71.0,71.0,,,,,,,,,388.7587784728967,None,2.0,1.9577137799933555,388.7587784728967,None,388.7587784728967,None,388.7587784728967,None,1,2022_Apr_22_1446,Semantic-hierachy,2021.1.2,60.08168589156998,
72,Trial # 73,layer9-17_O5_to_O7.jpg,layer9-17/layer9-17_O5_to_O7.jpg,OO,layer9-17,0.0,72.0,72.0,72.0,,,,,,,,,391.02668934781104,None,2.0,1.6905892780050635,391.02668934781104,None,391.02668934781104,None,391.02668934781104,None,1,2022_Apr_22_1446,Semantic-hierachy,2021.1.2,60.08168589156998,
73,Trial # 74,layer0-5_T11_to_T9.jpg,layer0-5/layer0-5_T11_to_T9.jpg,TT,layer0-5,0.0,73.0,73.0,73.0,,,,,,,,,393.06056770985015,None,1.0,1.8354404841084035,393.06056770985015,None,393.06056770985015,None,393.06056770985015,None,1,2022_Apr_22_1446,Semantic-hierachy,2021.1.2,60.08168589156998,
74,Trial # 75,layer0-5_O11_to_T12.jpg,layer0-5/layer0-5_O11_to_T12.jpg,OT,layer0-5,0.0,74.0,74.0,74.0,,,,,,,,,395.2936584698036,None,1.0,1.4703814899548888,395.2936584698036,None,395.2936584698036,None,395.2936584698036,None,1,2022_Apr_22_1446,Semantic-hierachy,2021.1.2,60.08168589156998,
75,Trial # 76,layer9-17_T7_to_T9.jpg,layer9-17/layer9-17_T7_to_T9.jpg,TT,layer9-17,0.0,75.0,75.0,75.0,,,,,,,,,397.21151002682745,None,4.0,4.258293823804706,397.21151002682745,None,397.21151002682745,None,397.21151002682745,None,1,2022_Apr_22_1446,Semantic-hierachy,2021.1.2,60.08168589156998,
76,Trial # 77,layer6-8_O6_to_T2.jpg,layer6-8/layer6-8_O6_to_T2.jpg,OT,layer6-8,0.0,76.0,76.0,76.0,,,,,,,,,404.93089283281006,None,4.0,4.2196478061378,404.93089283281006,None,404.93089283281006,None,404.93089283281006,None,1,2022_Apr_22_1446,Semantic-hierachy,2021.1.2,60.08168589156998,
77,Trial # 78,layer9-17_T4_to_T5.jpg,layer9-17/layer9-17_T4_to_T5.jpg,TT,layer9-17,0.0,77.0,77.0,77.0,,,,,,,,,409.4983444709797,None,2.0,2.136712186038494,409.4983444709797,None,409.4983444709797,None,409.4983444709797,None,1,2022_Apr_22_1446,Semantic-hierachy,2021.1.2,60.08168589156998,
78,Trial # 79,layer0-5_T2_to_T4.jpg,layer0-5/layer0-5_T2_to_T4.jpg,TT,layer0-5,0.0,78.0,78.0,78.0,,,,,,,,,411.866546977777,None,1.0,2.901999791851267,411.866546977777,None,411.866546977777,None,411.866546977777,None,1,2022_Apr_22_1446,Semantic-hierachy,2021.1.2,60.08168589156998,
79,Trial # 80,layer0-5_T2_to_T8.jpg,layer0-5/layer0-5_T2_to_T8.jpg,TT,layer0-5,0.0,79.0,79.0,79.0,,,,,,,,,415.1174261458218,None,1.0,1.4044528498779982,415.1174261458218,None,415.1174261458218,None,415.1174261458218,None,1,2022_Apr_22_1446,Semantic-hierachy,2021.1.2,60.08168589156998,
80,Trial # 81,layer9-17_T3_to_T9.jpg,layer9-17/layer9-17_T3_to_T9.jpg,TT,layer9-17,0.0,80.0,80.0,80.0,,,,,,,,,416.8841655908618,None,2.0,1.9332207900006324,416.8841655908618,None,416.8841655908618,None,416.8841655908618,None,1,2022_Apr_22_1446,Semantic-hierachy,2021.1.2,60.08168589156998,
81,Trial # 82,layer9-17_O2_to_O5.jpg,layer9-17/layer9-17_O2_to_O5.jpg,OO,layer9-17,0.0,81.0,81.0,81.0,,,,,,,,,419.1175877349451,None,2.0,4.493312309961766,419.1175877349451,None,419.1175877349451,None,419.1175877349451,None,1,2022_Apr_22_1446,Semantic-hierachy,2021.1.2,60.08168589156998,
82,Trial # 83,layer6-8_O6_to_O7.jpg,layer6-8/layer6-8_O6_to_O7.jpg,OO,layer6-8,0.0,82.0,82.0,82.0,,,,,,,,,424.0368370858487,None,4.0,2.301179228117689,424.0368370858487,None,424.0368370858487,None,424.0368370858487,None,1,2022_Apr_22_1446,Semantic-hierachy,2021.1.2,60.08168589156998,
83,Trial # 84,layer9-17_O11_to_T1.jpg,layer9-17/layer9-17_O11_to_T1.jpg,OT,layer9-17,0.0,83.0,83.0,83.0,,,,,,,,,426.6035571449902,None,2.0,2.1589424409903586,426.6035571449902,None,426.6035571449902,None,426.6035571449902,None,1,2022_Apr_22_1446,Semantic-hierachy,2021.1.2,60.08168589156998,
84,Trial # 85,layer6-8_O5_to_T12.jpg,layer6-8/layer6-8_O5_to_T12.jpg,OT,layer6-8,0.0,84.0,84.0,84.0,,,,,,,,,429.0205261749216,None,3.0,1.8015441328752784,429.0205261749216,None,429.0205261749216,None,429.0205261749216,None,1,2022_Apr_22_1446,Semantic-hierachy,2021.1.2,60.08168589156998,
85,Trial # 86,layer6-8_O4_to_O7.jpg,layer6-8/layer6-8_O4_to_O7.jpg,OO,layer6-8,0.0,85.0,85.0,85.0,,,,,,,,,431.1227568618488,None,2.0,4.691961186937988,431.1227568618488,None,431.1227568618488,None,431.1227568618488,None,1,2022_Apr_22_1446,Semantic-hierachy,2021.1.2,60.08168589156998,
86,Trial # 87,layer6-8_T10_to_T8.jpg,layer6-8/layer6-8_T10_to_T8.jpg,TT,layer6-8,0.0,86.0,86.0,86.0,,,,,,,,,436.27327131386846,None,2.0,2.5383406612090766,436.27327131386846,None,436.27327131386846,None,436.27327131386846,None,1,2022_Apr_22_1446,Semantic-hierachy,2021.1.2,60.08168589156998,
87,Trial # 88,layer6-8_O10_to_T3.jpg,layer6-8/layer6-8_O10_to_T3.jpg,OT,layer6-8,0.0,87.0,87.0,87.0,,,,,,,,,439.1238446338102,None,3.0,2.1948021980933845,439.1238446338102,None,439.1238446338102,None,439.1238446338102,None,1,2022_Apr_22_1446,Semantic-hierachy,2021.1.2,60.08168589156998,
88,Trial # 89,layer6-8_O5_to_O9.jpg,layer6-8/layer6-8_O5_to_O9.jpg,OO,layer6-8,0.0,88.0,88.0,88.0,,,,,,,,,441.6094031508546,None,2.0,2.490303511964157,441.6094031508546,None,441.6094031508546,None,441.6094031508546,None,1,2022_Apr_22_1446,Semantic-hierachy,2021.1.2,60.08168589156998,
89,Trial # 90,layer6-8_O10_to_O11.jpg,layer6-8/layer6-8_O10_to_O11.jpg,OO,layer6-8,0.0,89.0,89.0,89.0,,,,,,,,,444.5096832087729,None,3.0,1.8762869671918447,444.5096832087729,None,444.5096832087729,None,444.5096832087729,None,1,2022_Apr_22_1446,Semantic-hierachy,2021.1.2,60.08168589156998,
90,Trial # 91,layer0-5_O4_to_T5.jpg,layer0-5/layer0-5_O4_to_T5.jpg,OT,layer0-5,0.0,90.0,90.0,90.0,,,,,,,,,447.6112070668023,None,1.0,3.3122720571700484,447.6112070668023,None,447.6112070668023,None,447.6112070668023,None,1,2022_Apr_22_1446,Semantic-hierachy,2021.1.2,60.08168589156998,
91,Trial # 92,layer0-5_T11_to_T12.jpg,layer0-5/layer0-5_T11_to_T12.jpg,TT,layer0-5,0.0,91.0,91.0,91.0,,,,,,,,,451.762763118837,None,1.0,1.9743144439999012,451.762763118837,None,451.762763118837,None,451.762763118837,None,1,2022_Apr_22_1446,Semantic-hierachy,2021.1.2,60.08168589156998,
92,Trial # 93,layer0-5_T10_to_T3.jpg,layer0-5/layer0-5_T10_to_T3.jpg,TT,layer0-5,0.0,92.0,92.0,92.0,,,,,,,,,454.02894087089226,None,1.0,1.9220665469765663,454.02894087089226,None,454.02894087089226,None,454.02894087089226,None,1,2022_Apr_22_1446,Semantic-hierachy,2021.1.2,60.08168589156998,
93,Trial # 94,layer0-5_O2_to_O8.jpg,layer0-5/layer0-5_O2_to_O8.jpg,OO,layer0-5,0.0,93.0,93.0,93.0,,,,,,,,,456.8977901129984,None,1.0,1.95652114902623,456.8977901129984,None,456.8977901129984,None,456.8977901129984,None,1,2022_Apr_22_1446,Semantic-hierachy,2021.1.2,60.08168589156998,
94,Trial # 95,layer0-5_T3_to_T8.jpg,layer0-5/layer0-5_T3_to_T8.jpg,TT,layer0-5,0.0,94.0,94.0,94.0,,,,,,,,,459.04681077599525,None,1.0,1.8216195108834652,459.04681077599525,None,459.04681077599525,None,459.04681077599525,None,1,2022_Apr_22_1446,Semantic-hierachy,2021.1.2,60.08168589156998,
95,Trial # 96,layer0-5_O7_to_O8.jpg,layer0-5/layer0-5_O7_to_O8.jpg,OO,layer0-5,0.0,95.0,95.0,95.0,,,,,,,,,461.33168845786713,None,1.0,2.051705298013985,461.33168845786713,None,461.33168845786713,None,461.33168845786713,None,1,2022_Apr_22_1446,Semantic-hierachy,2021.1.2,60.08168589156998,
96,Trial # 97,layer6-8_T10_to_T6.jpg,layer6-8/layer6-8_T10_to_T6.jpg,TT,layer6-8,0.0,96.0,96.0,96.0,,,,,,,,,464.14872312778607,None,2.0,2.8751715070102364,464.14872312778607,None,464.14872312778607,None,464.14872312778607,None,1,2022_Apr_22_1446,Semantic-hierachy,2021.1.2,60.08168589156998,
97,Trial # 98,layer0-5_O1_to_O5.jpg,layer0-5/layer0-5_O1_to_O5.jpg,OO,layer0-5,0.0,97.0,97.0,97.0,,,,,,,,,467.2667501489632,None,1.0,2.8484442641492933,467.2667501489632,None,467.2667501489632,None,467.2667501489632,None,1,2022_Apr_22_1446,Semantic-hierachy,2021.1.2,60.08168589156998,
98,Trial # 99,layer6-8_O1_to_O6.jpg,layer6-8/layer6-8_O1_to_O6.jpg,OO,layer6-8,0.0,98.0,98.0,98.0,,,,,,,,,471.5354858369101,None,2.0,3.4032395048998296,471.5354858369101,None,471.5354858369101,None,471.5354858369101,None,1,2022_Apr_22_1446,Semantic-hierachy,2021.1.2,60.08168589156998,
99,Trial # 100,layer6-8_O3_to_T1.jpg,layer6-8/layer6-8_O3_to_T1.jpg,OT,layer6-8,0.0,99.0,99.0,99.0,,,,,,,,,475.2181810119655,None,2.0,2.7913165679201484,475.2181810119655,None,475.2181810119655,None,475.2181810119655,None,1,2022_Apr_22_1446,Semantic-hierachy,2021.1.2,60.08168589156998,
100,Trial # 101,layer6-8_T1_to_T9.jpg,layer6-8/layer6-8_T1_to_T9.jpg,TT,layer6-8,0.0,100.0,100.0,100.0,,,,,,,,,478.3027691529133,None,4.0,3.2027602451853454,478.3027691529133,None,478.3027691529133,None,478.3027691529133,None,1,2022_Apr_22_1446,Semantic-hierachy,2021.1.2,60.08168589156998,
101,Trial # 102,layer9-17_O12_to_O6.jpg,layer9-17/layer9-17_O12_to_O6.jpg,OO,layer9-17,0.0,101.0,101.0,101.0,,,,,,,,,481.7885167328641,None,2.0,2.9189753520768136,481.7885167328641,None,481.7885167328641,None,481.7885167328641,None,1,2022_Apr_22_1446,Semantic-hierachy,2021.1.2,60.08168589156998,
102,Trial # 103,layer0-5_T4_to_T9.jpg,layer0-5/layer0-5_T4_to_T9.jpg,TT,layer0-5,0.0,102.0,102.0,102.0,,,,,,,,,484.92120023886673,None,1.0,1.83483162894845,484.92120023886673,None,484.92120023886673,None,484.92120023886673,None,1,2022_Apr_22_1446,Semantic-hierachy,2021.1.2,60.08168589156998,
103,Trial # 104,layer6-8_O10_to_T1.jpg,layer6-8/layer6-8_O10_to_T1.jpg,OT,layer6-8,0.0,103.0,103.0,103.0,,,,,,,,,487.0058765897993,None,3.0,5.2560269720852375,487.0058765897993,None,487.0058765897993,None,487.0058765897993,None,1,2022_Apr_22_1446,Semantic-hierachy,2021.1.2,60.08168589156998,
104,Trial # 105,layer0-5_O6_to_T2.jpg,layer0-5/layer0-5_O6_to_T2.jpg,OT,layer0-5,0.0,104.0,104.0,104.0,,,,,,,,,492.6586755758617,None,1.0,2.2507994279731065,492.6586755758617,None,492.6586755758617,None,492.6586755758617,None,1,2022_Apr_22_1446,Semantic-hierachy,2021.1.2,60.08168589156998,
105,Trial # 106,layer9-17_T11_to_T2.jpg,layer9-17/layer9-17_T11_to_T2.jpg,TT,layer9-17,0.0,105.0,105.0,105.0,,,,,,,,,495.17541924281977,None,2.0,2.5604474749416117,495.17541924281977,None,495.17541924281977,None,495.17541924281977,None,1,2022_Apr_22_1446,Semantic-hierachy,2021.1.2,60.08168589156998,
106,Trial # 107,layer9-17_O12_to_O8.jpg,layer9-17/layer9-17_O12_to_O8.jpg,OO,layer9-17,0.0,106.0,106.0,106.0,,,,,,,,,498.2756199447904,None,2.0,2.423839580034837,498.2756199447904,None,498.2756199447904,None,498.2756199447904,None,1,2022_Apr_22_1446,Semantic-hierachy,2021.1.2,60.08168589156998,
107,Trial # 108,layer0-5_T12_to_T3.jpg,layer0-5/layer0-5_T12_to_T3.jpg,TT,layer0-5,0.0,107.0,107.0,107.0,,,,,,,,,501.2102865439374,None,1.0,2.1573139471001923,501.2102865439374,None,501.2102865439374,None,501.2102865439374,None,1,2022_Apr_22_1446,Semantic-hierachy,2021.1.2,60.08168589156998,
108,Trial # 109,layer0-5_T1_to_T10.jpg,layer0-5/layer0-5_T1_to_T10.jpg,TT,layer0-5,0.0,108.0,108.0,108.0,,,,,,,,,504.19455961184576,None,1.0,1.533835181966424,504.19455961184576,None,504.19455961184576,None,504.19455961184576,None,1,2022_Apr_22_1446,Semantic-hierachy,2021.1.2,60.08168589156998,
109,Trial # 110,layer6-8_O4_to_T5.jpg,layer6-8/layer6-8_O4_to_T5.jpg,OT,layer6-8,0.0,109.0,109.0,109.0,,,,,,,,,506.195640594,None,3.0,2.206493879901245,506.195640594,None,506.195640594,None,506.195640594,None,1,2022_Apr_22_1446,Semantic-hierachy,2021.1.2,60.08168589156998,
110,Trial # 111,layer9-17_O11_to_O7.jpg,layer9-17/layer9-17_O11_to_O7.jpg,OO,layer9-17,0.0,110.0,110.0,110.0,,,,,,,,,508.7119187279605,None,2.0,1.6540663938503712,508.7119187279605,None,508.7119187279605,None,508.7119187279605,None,1,2022_Apr_22_1446,Semantic-hierachy,2021.1.2,60.08168589156998,
111,Trial # 112,layer0-5_O5_to_O8.jpg,layer0-5/layer0-5_O5_to_O8.jpg,OO,layer0-5,0.0,111.0,111.0,111.0,,,,,,,,,510.6125132108573,None,1.0,1.4380436460487545,510.6125132108573,None,510.6125132108573,None,510.6125132108573,None,1,2022_Apr_22_1446,Semantic-hierachy,2021.1.2,60.08168589156998,
112,Trial # 113,layer0-5_O10_to_O4.jpg,layer0-5/layer0-5_O10_to_O4.jpg,OO,layer0-5,0.0,112.0,112.0,112.0,,,,,,,,,512.4639029440004,None,1.0,2.3711478419136256,512.4639029440004,None,512.4639029440004,None,512.4639029440004,None,1,2022_Apr_22_1446,Semantic-hierachy,2021.1.2,60.08168589156998,
113,Trial # 114,layer9-17_O4_to_O8.jpg,layer9-17/layer9-17_O4_to_O8.jpg,OO,layer9-17,0.0,113.0,113.0,113.0,,,,,,,,,515.1303811939433,None,2.0,1.722892896970734,515.1303811939433,None,515.1303811939433,None,515.1303811939433,None,1,2022_Apr_22_1446,Semantic-hierachy,2021.1.2,60.08168589156998,
114,Trial # 115,layer0-5_O2_to_T8.jpg,layer0-5/layer0-5_O2_to_T8.jpg,OT,layer0-5,0.0,114.0,114.0,114.0,,,,,,,,,517.0817034258507,None,1.0,1.6867733129765838,517.0817034258507,None,517.0817034258507,None,517.0817034258507,None,1,2022_Apr_22_1446,Semantic-hierachy,2021.1.2,60.08168589156998,
115,Trial # 116,layer9-17_T2_to_T3.jpg,layer9-17/layer9-17_T2_to_T3.jpg,TT,layer9-17,0.0,115.0,115.0,115.0,,,,,,,,,519.0490765718278,None,2.0,2.633004494011402,519.0490765718278,None,519.0490765718278,None,519.0490765718278,None,1,2022_Apr_22_1446,Semantic-hierachy,2021.1.2,60.08168589156998,
116,Trial # 117,layer6-8_O1_to_T10.jpg,layer6-8/layer6-8_O1_to_T10.jpg,OT,layer6-8,0.0,116.0,116.0,116.0,,,,,,,,,522.0174891368952,None,3.0,2.0292774469126016,522.0174891368952,None,522.0174891368952,None,522.0174891368952,None,1,2022_Apr_22_1446,Semantic-hierachy,2021.1.2,60.08168589156998,
117,Trial # 118,layer0-5_T3_to_T7.jpg,layer0-5/layer0-5_T3_to_T7.jpg,TT,layer0-5,0.0,117.0,117.0,117.0,,,,,,,,,524.4004499400035,None,1.0,3.378790349001065,524.4004499400035,None,524.4004499400035,None,524.4004499400035,None,1,2022_Apr_22_1446,Semantic-hierachy,2021.1.2,60.08168589156998,
118,Trial # 119,layer9-17_O1_to_O12.jpg,layer9-17/layer9-17_O1_to_O12.jpg,OO,layer9-17,0.0,118.0,118.0,118.0,,,,,,,,,528.1194542387966,None,2.0,1.534910547081381,528.1194542387966,None,528.1194542387966,None,528.1194542387966,None,1,2022_Apr_22_1446,Semantic-hierachy,2021.1.2,60.08168589156998,
119,Trial # 120,layer6-8_O12_to_O2.jpg,layer6-8/layer6-8_O12_to_O2.jpg,OO,layer6-8,0.0,119.0,119.0,119.0,,,,,,,,,529.8853857819922,None,3.0,2.6178599121049047,529.8853857819922,None,529.8853857819922,None,529.8853857819922,None,1,2022_Apr_22_1446,Semantic-hierachy,2021.1.2,60.08168589156998,
120,Trial # 121,layer9-17_O10_to_O9.jpg,layer9-17/layer9-17_O10_to_O9.jpg,OO,layer9-17,0.0,120.0,120.0,120.0,,,,,,,,,532.7532172449864,None,2.0,2.9113436629995704,532.7532172449864,None,532.7532172449864,None,532.7532172449864,None,1,2022_Apr_22_1446,Semantic-hierachy,2021.1.2,60.08168589156998,
121,Trial # 122,layer6-8_O4_to_T10.jpg,layer6-8/layer6-8_O4_to_T10.jpg,OT,layer6-8,0.0,121.0,121.0,121.0,,,,,,,,,535.9376302429009,None,3.0,1.6893509838264436,535.9376302429009,None,535.9376302429009,None,535.9376302429009,None,1,2022_Apr_22_1446,Semantic-hierachy,2021.1.2,60.08168589156998,
122,Trial # 123,layer6-8_O2_to_T3.jpg,layer6-8/layer6-8_O2_to_T3.jpg,OT,layer6-8,0.0,122.0,122.0,122.0,,,,,,,,,537.9883616149891,None,3.0,1.357165589928627,537.9883616149891,None,537.9883616149891,None,537.9883616149891,None,1,2022_Apr_22_1446,Semantic-hierachy,2021.1.2,60.08168589156998,
123,Trial # 124,layer0-5_O1_to_O7.jpg,layer0-5/layer0-5_O1_to_O7.jpg,OO,layer0-5,0.0,123.0,123.0,123.0,,,,,,,,,539.6723064519465,None,1.0,1.4601186029613018,539.6723064519465,None,539.6723064519465,None,539.6723064519465,None,1,2022_Apr_22_1446,Semantic-hierachy,2021.1.2,60.08168589156998,
124,Trial # 125,layer0-5_T8_to_T9.jpg,layer0-5/layer0-5_T8_to_T9.jpg,TT,layer0-5,0.0,124.0,124.0,124.0,,,,,,,,,541.4397103928495,None,1.0,2.9110711831599474,541.4397103928495,None,541.4397103928495,None,541.4397103928495,None,1,2022_Apr_22_1446,Semantic-hierachy,2021.1.2,60.08168589156998,
125,Trial # 126,layer0-5_O12_to_T8.jpg,layer0-5/layer0-5_O12_to_T8.jpg,OT,layer0-5,0.0,125.0,125.0,125.0,,,,,,,,,544.7900362308137,None,1.0,1.54524956503883,544.7900362308137,None,544.7900362308137,None,544.7900362308137,None,1,2022_Apr_22_1446,Semantic-hierachy,2021.1.2,60.08168589156998,
126,Trial # 127,layer9-17_O4_to_O6.jpg,layer9-17/layer9-17_O4_to_O6.jpg,OO,layer9-17,0.0,126.0,126.0,126.0,,,,,,,,,546.6413260698318,None,2.0,2.154815488029272,546.6413260698318,None,546.6413260698318,None,546.6413260698318,None,1,2022_Apr_22_1446,Semantic-hierachy,2021.1.2,60.08168589156998,
127,Trial # 128,layer6-8_O12_to_O6.jpg,layer6-8/layer6-8_O12_to_O6.jpg,OO,layer6-8,0.0,127.0,127.0,127.0,,,,,,,,,549.0579921358731,None,2.0,1.9587387430947276,549.0579921358731,None,549.0579921358731,None,549.0579921358731,None,1,2022_Apr_22_1446,Semantic-hierachy,2021.1.2,60.08168589156998,
128,Trial # 129,layer0-5_T4_to_T6.jpg,layer0-5/layer0-5_T4_to_T6.jpg,TT,layer0-5,0.0,128.0,128.0,128.0,,,,,,,,,551.5760171408765,None,1.0,2.2395812708418816,551.5760171408765,None,551.5760171408765,None,551.5760171408765,None,1,2022_Apr_22_1446,Semantic-hierachy,2021.1.2,60.08168589156998,
129,Trial # 130,layer9-17_O1_to_O3.jpg,layer9-17/layer9-17_O1_to_O3.jpg,OO,layer9-17,0.0,129.0,129.0,129.0,,,,,,,,,554.1433571300004,None,2.0,1.66419709706679,554.1433571300004,None,554.1433571300004,None,554.1433571300004,None,1,2022_Apr_22_1446,Semantic-hierachy,2021.1.2,60.08168589156998,
130,Trial # 131,layer9-17_O10_to_O3.jpg,layer9-17/layer9-17_O10_to_O3.jpg,OO,layer9-17,0.0,130.0,130.0,130.0,,,,,,,,,556.0613714498468,None,2.0,2.01261314493604,556.0613714498468,None,556.0613714498468,None,556.0613714498468,None,1,2022_Apr_22_1446,Semantic-hierachy,2021.1.2,60.08168589156998,
131,Trial # 132,layer9-17_O12_to_O3.jpg,layer9-17/layer9-17_O12_to_O3.jpg,OO,layer9-17,0.0,131.0,131.0,131.0,,,,,,,,,558.4120738587808,None,2.0,1.144657880999148,558.4120738587808,None,558.4120738587808,None,558.4120738587808,None,1,2022_Apr_22_1446,Semantic-hierachy,2021.1.2,60.08168589156998,
132,Trial # 133,layer9-17_O11_to_O4.jpg,layer9-17/layer9-17_O11_to_O4.jpg,OO,layer9-17,0.0,132.0,132.0,132.0,,,,,,,,,559.8283357068431,None,4.0,3.5394642578903586,559.8283357068431,None,559.8283357068431,None,559.8283357068431,None,1,2022_Apr_22_1446,Semantic-hierachy,2021.1.2,60.08168589156998,
133,Trial # 134,layer9-17_T4_to_T7.jpg,layer9-17/layer9-17_T4_to_T7.jpg,TT,layer9-17,0.0,133.0,133.0,133.0,,,,,,,,,564.530292479787,None,2.0,1.6580569511279464,564.530292479787,None,564.530292479787,None,564.530292479787,None,1,2022_Apr_22_1446,Semantic-hierachy,2021.1.2,60.08168589156998,
134,Trial # 135,layer9-17_O1_to_T1.jpg,layer9-17/layer9-17_O1_to_T1.jpg,OT,layer9-17,0.0,134.0,134.0,134.0,,,,,,,,,566.5479982888792,None,2.0,1.6361516371835023,566.5479982888792,None,566.5479982888792,None,566.5479982888792,None,1,2022_Apr_22_1446,Semantic-hierachy,2021.1.2,60.08168589156998,
135,Trial # 136,layer6-8_T2_to_T5.jpg,layer6-8/layer6-8_T2_to_T5.jpg,TT,layer6-8,0.0,135.0,135.0,135.0,,,,,,,,,568.3976728888229,None,4.0,2.754945409949869,568.3976728888229,None,568.3976728888229,None,568.3976728888229,None,1,2022_Apr_22_1446,Semantic-hierachy,2021.1.2,60.08168589156998,
136,Trial # 137,layer9-17_T11_to_T7.jpg,layer9-17/layer9-17_T11_to_T7.jpg,TT,layer9-17,0.0,136.0,136.0,136.0,,,,,,,,,571.4997188379057,None,2.0,2.7566981420386583,571.4997188379057,None,571.4997188379057,None,571.4997188379057,None,1,2022_Apr_22_1446,Semantic-hierachy,2021.1.2,60.08168589156998,
137,Trial # 138,layer6-8_O3_to_O8.jpg,layer6-8/layer6-8_O3_to_O8.jpg,OO,layer6-8,0.0,137.0,137.0,137.0,,,,,,,,,574.6157255219296,None,3.0,3.291144917020574,574.6157255219296,None,574.6157255219296,None,574.6157255219296,None,1,2022_Apr_22_1446,Semantic-hierachy,2021.1.2,60.08168589156998,
138,Trial # 139,layer6-8_O1_to_T7.jpg,layer6-8/layer6-8_O1_to_T7.jpg,OT,layer6-8,0.0,138.0,138.0,138.0,,,,,,,,,578.201435607858,None,3.0,2.2860315789002925,578.201435607858,None,578.201435607858,None,578.201435607858,None,1,2022_Apr_22_1446,Semantic-hierachy,2021.1.2,60.08168589156998,
139,Trial # 140,layer9-17_T1_to_T3.jpg,layer9-17/layer9-17_T1_to_T3.jpg,TT,layer9-17,0.0,139.0,139.0,139.0,,,,,,,,,580.8842617059126,None,4.0,3.4385496811009943,580.8842617059126,None,580.8842617059126,None,580.8842617059126,None,1,2022_Apr_22_1446,Semantic-hierachy,2021.1.2,60.08168589156998,
140,Trial # 141,layer6-8_O10_to_O12.jpg,layer6-8/layer6-8_O10_to_O12.jpg,OO,layer6-8,0.0,140.0,140.0,140.0,,,,,,,,,584.5357744100038,None,4.0,3.7635121748317033,584.5357744100038,None,584.5357744100038,None,584.5357744100038,None,1,2022_Apr_22_1446,Semantic-hierachy,2021.1.2,60.08168589156998,
141,Trial # 142,layer6-8_O12_to_T11.jpg,layer6-8/layer6-8_O12_to_T11.jpg,OT,layer6-8,0.0,141.0,141.0,141.0,,,,,,,,,588.6378135757986,None,4.0,2.7807006440125406,588.6378135757986,None,588.6378135757986,None,588.6378135757986,None,1,2022_Apr_22_1446,Semantic-hierachy,2021.1.2,60.08168589156998,
142,Trial # 143,layer0-5_O11_to_O5.jpg,layer0-5/layer0-5_O11_to_O5.jpg,OO,layer0-5,0.0,142.0,142.0,142.0,,,,,,,,,591.771742887795,None,1.0,1.6130266461987048,591.771742887795,None,591.771742887795,None,591.771742887795,None,1,2022_Apr_22_1446,Semantic-hierachy,2021.1.2,60.08168589156998,
143,Trial # 144,layer6-8_O1_to_O8.jpg,layer6-8/layer6-8_O1_to_O8.jpg,OO,layer6-8,0.0,143.0,143.0,143.0,,,,,,,,,593.7051745047793,None,2.0,1.806063307914883,593.7051745047793,None,593.7051745047793,None,593.7051745047793,None,1,2022_Apr_22_1446,Semantic-hierachy,2021.1.2,60.08168589156998,
144,Trial # 145,layer0-5_T2_to_T5.jpg,layer0-5/layer0-5_T2_to_T5.jpg,TT,layer0-5,0.0,144.0,144.0,144.0,,,,,,,,,595.872258124873,None,1.0,3.19614736479707,595.872258124873,None,595.872258124873,None,595.872258124873,None,1,2022_Apr_22_1446,Semantic-hierachy,2021.1.2,60.08168589156998,
145,Trial # 146,layer9-17_O8_to_T3.jpg,layer9-17/layer9-17_O8_to_T3.jpg,OT,layer9-17,0.0,145.0,145.0,145.0,,,,,,,,,599.3401600269135,None,2.0,2.306172126205638,599.3401600269135,None,599.3401600269135,None,599.3401600269135,None,1,2022_Apr_22_1446,Semantic-hierachy,2021.1.2,60.08168589156998,
146,Trial # 147,layer9-17_O8_to_T4.jpg,layer9-17/layer9-17_O8_to_T4.jpg,OT,layer9-17,0.0,146.0,146.0,146.0,,,,,,,,,601.8754430748522,None,4.0,2.577630363870412,601.8754430748522,None,601.8754430748522,None,601.8754430748522,None,1,2022_Apr_22_1446,Semantic-hierachy,2021.1.2,60.08168589156998,
147,Trial # 148,layer9-17_O4_to_T9.jpg,layer9-17/layer9-17_O4_to_T9.jpg,OT,layer9-17,0.0,147.0,147.0,147.0,,,,,,,,,605.0589246549644,None,2.0,2.3783958351705223,605.0589246549644,None,605.0589246549644,None,605.0589246549644,None,1,2022_Apr_22_1446,Semantic-hierachy,2021.1.2,60.08168589156998,
148,Trial # 149,layer6-8_O4_to_O8.jpg,layer6-8/layer6-8_O4_to_O8.jpg,OO,layer6-8,0.0,148.0,148.0,148.0,,,,,,,,,607.8433554219082,None,2.0,1.966942637925968,607.8433554219082,None,607.8433554219082,None,607.8433554219082,None,1,2022_Apr_22_1446,Semantic-hierachy,2021.1.2,60.08168589156998,
149,Trial # 150,layer0-5_O12_to_T7.jpg,layer0-5/layer0-5_O12_to_T7.jpg,OT,layer0-5,0.0,149.0,149.0,149.0,,,,,,,,,610.1267733448185,None,1.0,2.344407284865156,610.1267733448185,None,610.1267733448185,None,610.1267733448185,None,1,2022_Apr_22_1446,Semantic-hierachy,2021.1.2,60.08168589156998,
150,Trial # 151,layer6-8_T1_to_T3.jpg,layer6-8/layer6-8_T1_to_T3.jpg,TT,layer6-8,,,,,0.0,0.0,0.0,0.0,,,,,615.9454713528976,None,4.0,8.90742652816698,615.9454713528976,None,615.9454713528976,None,615.9454713528976,None,1,2022_Apr_22_1446,Semantic-hierachy,2021.1.2,60.08168589156998,
151,Trial # 152,layer0-5_O8_to_O9.jpg,layer0-5/layer0-5_O8_to_O9.jpg,OO,layer0-5,,,,,0.0,1.0,1.0,1.0,,,,,625.1988438088447,None,1.0,2.610730226850137,625.1988438088447,None,625.1988438088447,None,625.1988438088447,None,1,2022_Apr_22_1446,Semantic-hierachy,2021.1.2,60.08168589156998,
152,Trial # 153,layer9-17_T1_to_T5.jpg,layer9-17/layer9-17_T1_to_T5.jpg,TT,layer9-17,,,,,0.0,2.0,2.0,2.0,,,,,628.399446742842,None,2.0,1.6929491590708494,628.399446742842,None,628.399446742842,None,628.399446742842,None,1,2022_Apr_22_1446,Semantic-hierachy,2021.1.2,60.08168589156998,
153,Trial # 154,layer6-8_T7_to_T9.jpg,layer6-8/layer6-8_T7_to_T9.jpg,TT,layer6-8,,,,,0.0,3.0,3.0,3.0,,,,,630.4334725509398,None,4.0,4.523962287930772,630.4334725509398,None,630.4334725509398,None,630.4334725509398,None,1,2022_Apr_22_1446,Semantic-hierachy,2021.1.2,60.08168589156998,
154,Trial # 155,layer9-17_T12_to_T7.jpg,layer9-17/layer9-17_T12_to_T7.jpg,TT,layer9-17,,,,,0.0,4.0,4.0,4.0,,,,,635.4346520958934,None,2.0,1.556248010136187,635.4346520958934,None,635.4346520958934,None,635.4346520958934,None,1,2022_Apr_22_1446,Semantic-hierachy,2021.1.2,60.08168589156998,
155,Trial # 156,layer0-5_O8_to_T11.jpg,layer0-5/layer0-5_O8_to_T11.jpg,OT,layer0-5,,,,,0.0,5.0,5.0,5.0,,,,,637.2527458749246,None,1.0,2.287952090846374,637.2527458749246,None,637.2527458749246,None,637.2527458749246,None,1,2022_Apr_22_1446,Semantic-hierachy,2021.1.2,60.08168589156998,
156,Trial # 157,layer0-5_O1_to_O9.jpg,layer0-5/layer0-5_O1_to_O9.jpg,OO,layer0-5,,,,,0.0,6.0,6.0,6.0,,,,,639.9192266957834,None,1.0,2.2153946720063686,639.9192266957834,None,639.9192266957834,None,639.9192266957834,None,1,2022_Apr_22_1446,Semantic-hierachy,2021.1.2,60.08168589156998,
157,Trial # 158,layer0-5_O10_to_O12.jpg,layer0-5/layer0-5_O10_to_O12.jpg,OO,layer0-5,,,,,0.0,7.0,7.0,7.0,,,,,642.4539091268089,None,1.0,2.259091509971768,642.4539091268089,None,642.4539091268089,None,642.4539091268089,None,1,2022_Apr_22_1446,Semantic-hierachy,2021.1.2,60.08168589156998,
158,Trial # 159,layer6-8_O10_to_T5.jpg,layer6-8/layer6-8_O10_to_T5.jpg,OT,layer6-8,,,,,0.0,8.0,8.0,8.0,,,,,645.0041297147982,None,4.0,3.3160546999424696,645.0041297147982,None,645.0041297147982,None,645.0041297147982,None,1,2022_Apr_22_1446,Semantic-hierachy,2021.1.2,60.08168589156998,
159,Trial # 160,layer6-8_O5_to_O6.jpg,layer6-8/layer6-8_O5_to_O6.jpg,OO,layer6-8,,,,,0.0,9.0,9.0,9.0,,,,,648.8057243609801,None,2.0,5.584557014051825,648.8057243609801,None,648.8057243609801,None,648.8057243609801,None,1,2022_Apr_22_1446,Semantic-hierachy,2021.1.2,60.08168589156998,
160,Trial # 161,layer6-8_O6_to_T11.jpg,layer6-8/layer6-8_O6_to_T11.jpg,OT,layer6-8,,,,,0.0,10.0,10.0,10.0,,,,,654.7241599459667,None,3.0,2.402938434155658,654.7241599459667,None,654.7241599459667,None,654.7241599459667,None,1,2022_Apr_22_1446,Semantic-hierachy,2021.1.2,60.08168589156998,
161,Trial # 162,layer9-17_O12_to_O9.jpg,layer9-17/layer9-17_O12_to_O9.jpg,OO,layer9-17,,,,,0.0,11.0,11.0,11.0,,,,,657.575892965775,None,2.0,3.644101907033473,657.575892965775,None,657.575892965775,None,657.575892965775,None,1,2022_Apr_22_1446,Semantic-hierachy,2021.1.2,60.08168589156998,
162,Trial # 163,layer6-8_O12_to_T6.jpg,layer6-8/layer6-8_O12_to_T6.jpg,OT,layer6-8,,,,,0.0,12.0,12.0,12.0,,,,,661.54373905994,None,4.0,2.3423857181333005,661.54373905994,None,661.54373905994,None,661.54373905994,None,1,2022_Apr_22_1446,Semantic-hierachy,2021.1.2,60.08168589156998,
163,Trial # 164,layer0-5_T11_to_T7.jpg,layer0-5/layer0-5_T11_to_T7.jpg,TT,layer0-5,,,,,0.0,13.0,13.0,13.0,,,,,664.1603233558126,None,1.0,1.9266458300407976,664.1603233558126,None,664.1603233558126,None,664.1603233558126,None,1,2022_Apr_22_1446,Semantic-hierachy,2021.1.2,60.08168589156998,
164,Trial # 165,layer9-17_O10_to_T5.jpg,layer9-17/layer9-17_O10_to_T5.jpg,OT,layer9-17,,,,,0.0,14.0,14.0,14.0,,,,,666.4454380259849,None,4.0,2.5533058538567275,666.4454380259849,None,666.4454380259849,None,666.4454380259849,None,1,2022_Apr_22_1446,Semantic-hierachy,2021.1.2,60.08168589156998,
165,Trial # 166,layer9-17_T1_to_T6.jpg,layer9-17/layer9-17_T1_to_T6.jpg,TT,layer9-17,,,,,0.0,15.0,15.0,15.0,,,,,669.9293859119061,None,2.0,2.093657169956714,669.9293859119061,None,669.9293859119061,None,669.9293859119061,None,1,2022_Apr_22_1446,Semantic-hierachy,2021.1.2,60.08168589156998,
166,Trial # 167,layer0-5_T1_to_T3.jpg,layer0-5/layer0-5_T1_to_T3.jpg,TT,layer0-5,,,,,0.0,16.0,16.0,16.0,,,,,672.279992072843,None,1.0,1.6608175181318074,672.279992072843,None,672.279992072843,None,672.279992072843,None,1,2022_Apr_22_1446,Semantic-hierachy,2021.1.2,60.08168589156998,
167,Trial # 168,layer0-5_O2_to_O9.jpg,layer0-5/layer0-5_O2_to_O9.jpg,OO,layer0-5,,,,,0.0,17.0,17.0,17.0,,,,,674.1640980029479,None,1.0,1.8728347048163412,674.1640980029479,None,674.1640980029479,None,674.1640980029479,None,1,2022_Apr_22_1446,Semantic-hierachy,2021.1.2,60.08168589156998,
168,Trial # 169,layer9-17_O3_to_T4.jpg,layer9-17/layer9-17_O3_to_T4.jpg,OT,layer9-17,,,,,0.0,18.0,18.0,18.0,,,,,676.2815218209289,None,2.0,1.2263949969783423,676.2815218209289,None,676.2815218209289,None,676.2815218209289,None,1,2022_Apr_22_1446,Semantic-hierachy,2021.1.2,60.08168589156998,
169,Trial # 170,layer6-8_O11_to_O9.jpg,layer6-8/layer6-8_O11_to_O9.jpg,OO,layer6-8,,,,,0.0,19.0,19.0,19.0,,,,,677.731906849891,None,2.0,2.113270875066519,677.731906849891,None,677.731906849891,None,677.731906849891,None,1,2022_Apr_22_1446,Semantic-hierachy,2021.1.2,60.08168589156998,
170,Trial # 171,layer9-17_O1_to_O7.jpg,layer9-17/layer9-17_O1_to_O7.jpg,OO,layer9-17,,,,,0.0,20.0,20.0,20.0,,,,,681.2004370528739,None,4.0,2.836994885001332,681.2004370528739,None,681.2004370528739,None,681.2004370528739,None,1,2022_Apr_22_1446,Semantic-hierachy,2021.1.2,60.08168589156998,
171,Trial # 172,layer0-5_T12_to_T4.jpg,layer0-5/layer0-5_T12_to_T4.jpg,TT,layer0-5,,,,,0.0,21.0,21.0,21.0,,,,,684.3340643749107,None,1.0,2.344386579003185,684.3340643749107,None,684.3340643749107,None,684.3340643749107,None,1,2022_Apr_22_1446,Semantic-hierachy,2021.1.2,60.08168589156998,
172,Trial # 173,layer0-5_O4_to_T4.jpg,layer0-5/layer0-5_O4_to_T4.jpg,OT,layer0-5,,,,,0.0,22.0,22.0,22.0,,,,,687.0518442429602,None,1.0,9.107721182052046,687.0518442429602,None,687.0518442429602,None,687.0518442429602,None,1,2022_Apr_22_1446,Semantic-hierachy,2021.1.2,60.08168589156998,
173,Trial # 174,layer6-8_T12_to_T5.jpg,layer6-8/layer6-8_T12_to_T5.jpg,TT,layer6-8,,,,,0.0,23.0,23.0,23.0,,,,,696.6549427078571,None,4.0,3.024850687943399,696.6549427078571,None,696.6549427078571,None,696.6549427078571,None,1,2022_Apr_22_1446,Semantic-hierachy,2021.1.2,60.08168589156998,
174,Trial # 175,layer6-8_O11_to_T1.jpg,layer6-8/layer6-8_O11_to_T1.jpg,OT,layer6-8,,,,,0.0,24.0,24.0,24.0,,,,,699.9550008948427,None,4.0,3.774511734955013,699.9550008948427,None,699.9550008948427,None,699.9550008948427,None,1,2022_Apr_22_1446,Semantic-hierachy,2021.1.2,60.08168589156998,
175,Trial # 176,layer0-5_O7_to_T8.jpg,layer0-5/layer0-5_O7_to_T8.jpg,OT,layer0-5,,,,,0.0,25.0,25.0,25.0,,,,,703.9897333628032,None,1.0,1.6714691310189664,703.9897333628032,None,703.9897333628032,None,703.9897333628032,None,1,2022_Apr_22_1446,Semantic-hierachy,2021.1.2,60.08168589156998,
176,Trial # 177,layer0-5_O11_to_T5.jpg,layer0-5/layer0-5_O11_to_T5.jpg,OT,layer0-5,,,,,0.0,26.0,26.0,26.0,,,,,706.041055316804,None,1.0,1.7896188341546804,706.041055316804,None,706.041055316804,None,706.041055316804,None,1,2022_Apr_22_1446,Semantic-hierachy,2021.1.2,60.08168589156998,
177,Trial # 178,layer9-17_O2_to_T2.jpg,layer9-17/layer9-17_O2_to_T2.jpg,OT,layer9-17,,,,,0.0,27.0,27.0,27.0,,,,,708.2581524478737,None,4.0,4.858611222822219,708.2581524478737,None,708.2581524478737,None,708.2581524478737,None,1,2022_Apr_22_1446,Semantic-hierachy,2021.1.2,60.08168589156998,
178,Trial # 179,layer0-5_O4_to_T9.jpg,layer0-5/layer0-5_O4_to_T9.jpg,OT,layer0-5,,,,,0.0,28.0,28.0,28.0,,,,,713.6928290368523,None,1.0,1.7354083880782127,713.6928290368523,None,713.6928290368523,None,713.6928290368523,None,1,2022_Apr_22_1446,Semantic-hierachy,2021.1.2,60.08168589156998,
179,Trial # 180,layer9-17_T6_to_T8.jpg,layer9-17/layer9-17_T6_to_T8.jpg,TT,layer9-17,,,,,0.0,29.0,29.0,29.0,,,,,715.7757681149524,None,2.0,2.4261630489490926,715.7757681149524,None,715.7757681149524,None,715.7757681149524,None,1,2022_Apr_22_1446,Semantic-hierachy,2021.1.2,60.08168589156998,
180,Trial # 181,layer9-17_O12_to_O5.jpg,layer9-17/layer9-17_O12_to_O5.jpg,OO,layer9-17,,,,,0.0,30.0,30.0,30.0,,,,,718.5447345538996,None,2.0,2.9649529331363738,718.5447345538996,None,718.5447345538996,None,718.5447345538996,None,1,2022_Apr_22_1446,Semantic-hierachy,2021.1.2,60.08168589156998,
181,Trial # 182,layer6-8_O1_to_O7.jpg,layer6-8/layer6-8_O1_to_O7.jpg,OO,layer6-8,,,,,0.0,31.0,31.0,31.0,,,,,721.9626350479666,None,4.0,1.8076819798443464,721.9626350479666,None,721.9626350479666,None,721.9626350479666,None,1,2022_Apr_22_1446,Semantic-hierachy,2021.1.2,60.08168589156998,
182,Trial # 183,layer6-8_O3_to_T10.jpg,layer6-8/layer6-8_O3_to_T10.jpg,OT,layer6-8,,,,,0.0,32.0,32.0,32.0,,,,,724.2621789739933,None,3.0,2.0548500451259315,724.2621789739933,None,724.2621789739933,None,724.2621789739933,None,1,2022_Apr_22_1446,Semantic-hierachy,2021.1.2,60.08168589156998,
183,Trial # 184,layer0-5_O1_to_T11.jpg,layer0-5/layer0-5_O1_to_T11.jpg,OT,layer0-5,,,,,0.0,33.0,33.0,33.0,,,,,726.5805206347723,None,1.0,2.319367405027151,726.5805206347723,None,726.5805206347723,None,726.5805206347723,None,1,2022_Apr_22_1446,Semantic-hierachy,2021.1.2,60.08168589156998,
184,Trial # 185,layer6-8_O8_to_O9.jpg,layer6-8/layer6-8_O8_to_O9.jpg,OO,layer6-8,,,,,0.0,34.0,34.0,34.0,,,,,729.1983085838147,None,2.0,2.8937772281933576,729.1983085838147,None,729.1983085838147,None,729.1983085838147,None,1,2022_Apr_22_1446,Semantic-hierachy,2021.1.2,60.08168589156998,
185,Trial # 186,layer9-17_O4_to_O9.jpg,layer9-17/layer9-17_O4_to_O9.jpg,OO,layer9-17,,,,,0.0,35.0,35.0,35.0,,,,,732.3661201768555,None,2.0,2.372895912034437,732.3661201768555,None,732.3661201768555,None,732.3661201768555,None,1,2022_Apr_22_1446,Semantic-hierachy,2021.1.2,60.08168589156998,
186,Trial # 187,layer0-5_O12_to_O5.jpg,layer0-5/layer0-5_O12_to_O5.jpg,OO,layer0-5,,,,,0.0,36.0,36.0,36.0,,,,,735.0989467459731,None,1.0,2.5772079380694777,735.0989467459731,None,735.0989467459731,None,735.0989467459731,None,1,2022_Apr_22_1446,Semantic-hierachy,2021.1.2,60.08168589156998,
187,Trial # 188,layer6-8_T12_to_T4.jpg,layer6-8/layer6-8_T12_to_T4.jpg,TT,layer6-8,,,,,0.0,37.0,37.0,37.0,,,,,737.9666368069593,None,4.0,3.138999397866428,737.9666368069593,None,737.9666368069593,None,737.9666368069593,None,1,2022_Apr_22_1446,Semantic-hierachy,2021.1.2,60.08168589156998,
188,Trial # 189,layer0-5_T6_to_T8.jpg,layer0-5/layer0-5_T6_to_T8.jpg,TT,layer0-5,,,,,0.0,38.0,38.0,38.0,,,,,741.6689951277804,None,1.0,1.562100088922307,741.6689951277804,None,741.6689951277804,None,741.6689951277804,None,1,2022_Apr_22_1446,Semantic-hierachy,2021.1.2,60.08168589156998,
189,Trial # 190,layer6-8_O11_to_T2.jpg,layer6-8/layer6-8_O11_to_T2.jpg,OT,layer6-8,,,,,0.0,39.0,39.0,39.0,,,,,743.7354662038852,None,3.0,2.240824919892475,743.7354662038852,None,743.7354662038852,None,743.7354662038852,None,1,2022_Apr_22_1446,Semantic-hierachy,2021.1.2,60.08168589156998,
190,Trial # 191,layer6-8_O1_to_O3.jpg,layer6-8/layer6-8_O1_to_O3.jpg,OO,layer6-8,,,,,0.0,40.0,40.0,40.0,,,,,746.2535655549727,None,4.0,2.5427873509470373,746.2535655549727,None,746.2535655549727,None,746.2535655549727,None,1,2022_Apr_22_1446,Semantic-hierachy,2021.1.2,60.08168589156998,
191,Trial # 192,layer0-5_O7_to_T1.jpg,layer0-5/layer0-5_O7_to_T1.jpg,OT,layer0-5,,,,,0.0,41.0,41.0,41.0,,,,,749.0875162708107,None,1.0,1.7943162380252031,749.0875162708107,None,749.0875162708107,None,749.0875162708107,None,1,2022_Apr_22_1446,Semantic-hierachy,2021.1.2,60.08168589156998,
192,Trial # 193,layer6-8_O3_to_T7.jpg,layer6-8/layer6-8_O3_to_T7.jpg,OT,layer6-8,,,,,0.0,42.0,42.0,42.0,,,,,751.238027661806,None,3.0,5.742254789918661,751.238027661806,None,751.238027661806,None,751.238027661806,None,1,2022_Apr_22_1446,Semantic-hierachy,2021.1.2,60.08168589156998,
193,Trial # 194,layer9-17_T10_to_T6.jpg,layer9-17/layer9-17_T10_to_T6.jpg,TT,layer9-17,,,,,0.0,43.0,43.0,43.0,,,,,757.3068371717818,None,2.0,2.198285853024572,757.3068371717818,None,757.3068371717818,None,757.3068371717818,None,1,2022_Apr_22_1446,Semantic-hierachy,2021.1.2,60.08168589156998,
194,Trial # 195,layer6-8_T2_to_T9.jpg,layer6-8/layer6-8_T2_to_T9.jpg,TT,layer6-8,,,,,0.0,44.0,44.0,44.0,,,,,759.8232057378627,None,4.0,2.9013812779448926,759.8232057378627,None,759.8232057378627,None,759.8232057378627,None,1,2022_Apr_22_1446,Semantic-hierachy,2021.1.2,60.08168589156998,
195,Trial # 196,layer0-5_O3_to_T3.jpg,layer0-5/layer0-5_O3_to_T3.jpg,OT,layer0-5,,,,,0.0,45.0,45.0,45.0,,,,,763.0411738608964,None,1.0,1.7750399438664315,763.0411738608964,None,763.0411738608964,None,763.0411738608964,None,1,2022_Apr_22_1446,Semantic-hierachy,2021.1.2,60.08168589156998,
196,Trial # 197,layer9-17_O1_to_O2.jpg,layer9-17/layer9-17_O1_to_O2.jpg,OO,layer9-17,,,,,0.0,46.0,46.0,46.0,,,,,765.191915195901,None,4.0,1.877598647028208,765.191915195901,None,765.191915195901,None,765.191915195901,None,1,2022_Apr_22_1446,Semantic-hierachy,2021.1.2,60.08168589156998,
197,Trial # 198,layer9-17_T2_to_T9.jpg,layer9-17/layer9-17_T2_to_T9.jpg,TT,layer9-17,,,,,0.0,47.0,47.0,47.0,,,,,767.3599803268444,None,2.0,3.7524867879692474,767.3599803268444,None,767.3599803268444,None,767.3599803268444,None,1,2022_Apr_22_1446,Semantic-hierachy,2021.1.2,60.08168589156998,
198,Trial # 199,layer9-17_O6_to_T10.jpg,layer9-17/layer9-17_O6_to_T10.jpg,OT,layer9-17,,,,,0.0,48.0,48.0,48.0,,,,,771.3282423447818,None,2.0,1.2032941218931228,771.3282423447818,None,771.3282423447818,None,771.3282423447818,None,1,2022_Apr_22_1446,Semantic-hierachy,2021.1.2,60.08168589156998,
199,Trial # 200,layer0-5_T12_to_T5.jpg,layer0-5/layer0-5_T12_to_T5.jpg,TT,layer0-5,,,,,0.0,49.0,49.0,49.0,,,,,772.778274601791,None,1.0,1.9027089020237329,772.778274601791,None,772.778274601791,None,772.778274601791,None,1,2022_Apr_22_1446,Semantic-hierachy,2021.1.2,60.08168589156998,
200,Trial # 201,layer0-5_O10_to_T10.jpg,layer0-5/layer0-5_O10_to_T10.jpg,OT,layer0-5,,,,,0.0,50.0,50.0,50.0,,,,,774.9616551517975,None,1.0,2.3410010950174183,774.9616551517975,None,774.9616551517975,None,774.9616551517975,None,1,2022_Apr_22_1446,Semantic-hierachy,2021.1.2,60.08168589156998,
201,Trial # 202,layer9-17_T11_to_T12.jpg,layer9-17/layer9-17_T11_to_T12.jpg,TT,layer9-17,,,,,0.0,51.0,51.0,51.0,,,,,777.9121318489779,None,2.0,1.939079162897542,777.9121318489779,None,777.9121318489779,None,777.9121318489779,None,1,2022_Apr_22_1446,Semantic-hierachy,2021.1.2,60.08168589156998,
202,Trial # 203,layer6-8_T3_to_T5.jpg,layer6-8/layer6-8_T3_to_T5.jpg,TT,layer6-8,,,,,0.0,52.0,52.0,52.0,,,,,780.1128019308671,None,3.0,2.5599059080705047,780.1128019308671,None,780.1128019308671,None,780.1128019308671,None,1,2022_Apr_22_1446,Semantic-hierachy,2021.1.2,60.08168589156998,
203,Trial # 204,layer0-5_O5_to_T10.jpg,layer0-5/layer0-5_O5_to_T10.jpg,OT,layer0-5,,,,,0.0,53.0,53.0,53.0,,,,,783.0148646750022,None,1.0,4.88983577513136,783.0148646750022,None,783.0148646750022,None,783.0148646750022,None,1,2022_Apr_22_1446,Semantic-hierachy,2021.1.2,60.08168589156998,
204,Trial # 205,layer0-5_O10_to_O5.jpg,layer0-5/layer0-5_O10_to_O5.jpg,OO,layer0-5,,,,,0.0,54.0,54.0,54.0,,,,,788.2154477939475,None,1.0,5.68142855190672,788.2154477939475,None,788.2154477939475,None,788.2154477939475,None,1,2022_Apr_22_1446,Semantic-hierachy,2021.1.2,60.08168589156998,
205,Trial # 206,layer0-5_O5_to_O7.jpg,layer0-5/layer0-5_O5_to_O7.jpg,OO,layer0-5,,,,,0.0,55.0,55.0,55.0,,,,,794.1506122988649,None,1.0,1.9041647580452263,794.1506122988649,None,794.1506122988649,None,794.1506122988649,None,1,2022_Apr_22_1446,Semantic-hierachy,2021.1.2,60.08168589156998,
206,Trial # 207,layer0-5_O3_to_T10.jpg,layer0-5/layer0-5_O3_to_T10.jpg,OT,layer0-5,,,,,0.0,56.0,56.0,56.0,,,,,796.3359422779176,None,4.0,7.190404827008024,796.3359422779176,None,796.3359422779176,None,796.3359422779176,None,1,2022_Apr_22_1446,Semantic-hierachy,2021.1.2,60.08168589156998,
207,Trial # 208,layer0-5_O4_to_O5.jpg,layer0-5/layer0-5_O4_to_O5.jpg,OO,layer0-5,,,,,0.0,57.0,57.0,57.0,,,,,804.0877720159478,None,1.0,2.0396665651351213,804.0877720159478,None,804.0877720159478,None,804.0877720159478,None,1,2022_Apr_22_1446,Semantic-hierachy,2021.1.2,60.08168589156998,
208,Trial # 209,layer6-8_T12_to_T3.jpg,layer6-8/layer6-8_T12_to_T3.jpg,TT,layer6-8,,,,,0.0,58.0,58.0,58.0,,,,,806.3887821179815,None,4.0,3.1956224518362437,806.3887821179815,None,806.3887821179815,None,806.3887821179815,None,1,2022_Apr_22_1446,Semantic-hierachy,2021.1.2,60.08168589156998,
209,Trial # 210,layer6-8_O7_to_T9.jpg,layer6-8/layer6-8_O7_to_T9.jpg,OT,layer6-8,,,,,0.0,59.0,59.0,59.0,,,,,809.9720918028615,None,3.0,2.043699162080884,809.9720918028615,None,809.9720918028615,None,809.9720918028615,None,1,2022_Apr_22_1446,Semantic-hierachy,2021.1.2,60.08168589156998,
210,Trial # 211,layer6-8_O1_to_O11.jpg,layer6-8/layer6-8_O1_to_O11.jpg,OO,layer6-8,,,,,0.0,60.0,60.0,60.0,,,,,812.1897585899569,None,2.0,1.830294059822336,812.1897585899569,None,812.1897585899569,None,812.1897585899569,None,1,2022_Apr_22_1446,Semantic-hierachy,2021.1.2,60.08168589156998,
211,Trial # 212,layer6-8_T2_to_T6.jpg,layer6-8/layer6-8_T2_to_T6.jpg,TT,layer6-8,,,,,0.0,61.0,61.0,61.0,,,,,814.2569397587795,None,4.0,5.874030745821074,814.2569397587795,None,814.2569397587795,None,814.2569397587795,None,1,2022_Apr_22_1446,Semantic-hierachy,2021.1.2,60.08168589156998,
212,Trial # 213,layer6-8_O10_to_O6.jpg,layer6-8/layer6-8_O10_to_O6.jpg,OO,layer6-8,,,,,0.0,62.0,62.0,62.0,,,,,820.9927226919681,None,4.0,3.1947928490117192,820.9927226919681,None,820.9927226919681,None,820.9927226919681,None,1,2022_Apr_22_1446,Semantic-hierachy,2021.1.2,60.08168589156998,
213,Trial # 214,layer9-17_T5_to_T8.jpg,layer9-17/layer9-17_T5_to_T8.jpg,TT,layer9-17,,,,,0.0,63.0,63.0,63.0,,,,,824.4101870087907,None,2.0,1.1871412228792906,824.4101870087907,None,824.4101870087907,None,824.4101870087907,None,1,2022_Apr_22_1446,Semantic-hierachy,2021.1.2,60.08168589156998,
214,Trial # 215,layer9-17_O3_to_T10.jpg,layer9-17/layer9-17_O3_to_T10.jpg,OT,layer9-17,,,,,0.0,64.0,64.0,64.0,,,,,826.0609598238952,None,2.0,1.8533479520119729,826.0609598238952,None,826.0609598238952,None,826.0609598238952,None,1,2022_Apr_22_1446,Semantic-hierachy,2021.1.2,60.08168589156998,
215,Trial # 216,layer6-8_O12_to_O3.jpg,layer6-8/layer6-8_O12_to_O3.jpg,OO,layer6-8,,,,,0.0,65.0,65.0,65.0,,,,,828.1119864869397,None,3.0,1.9403545488603413,828.1119864869397,None,828.1119864869397,None,828.1119864869397,None,1,2022_Apr_22_1446,Semantic-hierachy,2021.1.2,60.08168589156998,
216,Trial # 217,layer0-5_T10_to_T2.jpg,layer0-5/layer0-5_T10_to_T2.jpg,TT,layer0-5,,,,,0.0,66.0,66.0,66.0,,,,,830.2620260159019,None,1.0,2.4132851138710976,830.2620260159019,None,830.2620260159019,None,830.2620260159019,None,1,2022_Apr_22_1446,Semantic-hierachy,2021.1.2,60.08168589156998,
217,Trial # 218,layer9-17_O10_to_O6.jpg,layer9-17/layer9-17_O10_to_O6.jpg,OO,layer9-17,,,,,0.0,67.0,67.0,67.0,,,,,833.0800413968973,None,4.0,2.4784343771170825,833.0800413968973,None,833.0800413968973,None,833.0800413968973,None,1,2022_Apr_22_1446,Semantic-hierachy,2021.1.2,60.08168589156998,
218,Trial # 219,layer6-8_O6_to_O9.jpg,layer6-8/layer6-8_O6_to_O9.jpg,OO,layer6-8,,,,,0.0,68.0,68.0,68.0,,,,,835.8134441729635,None,3.0,1.717630425002426,835.8134441729635,None,835.8134441729635,None,835.8134441729635,None,1,2022_Apr_22_1446,Semantic-hierachy,2021.1.2,60.08168589156998,
219,Trial # 220,layer0-5_O7_to_T2.jpg,layer0-5/layer0-5_O7_to_T2.jpg,OT,layer0-5,,,,,0.0,69.0,69.0,69.0,,,,,837.8641408628318,None,1.0,1.6522124439943582,837.8641408628318,None,837.8641408628318,None,837.8641408628318,None,1,2022_Apr_22_1446,Semantic-hierachy,2021.1.2,60.08168589156998,
220,Trial # 221,layer9-17_T12_to_T2.jpg,layer9-17/layer9-17_T12_to_T2.jpg,TT,layer9-17,,,,,0.0,70.0,70.0,70.0,,,,,839.7979453599546,None,2.0,2.290932958945632,839.7979453599546,None,839.7979453599546,None,839.7979453599546,None,1,2022_Apr_22_1446,Semantic-hierachy,2021.1.2,60.08168589156998,
221,Trial # 222,layer9-17_O8_to_T11.jpg,layer9-17/layer9-17_O8_to_T11.jpg,OT,layer9-17,,,,,0.0,71.0,71.0,71.0,,,,,842.383376687998,None,4.0,2.0703964000567794,842.383376687998,None,842.383376687998,None,842.383376687998,None,1,2022_Apr_22_1446,Semantic-hierachy,2021.1.2,60.08168589156998,
222,Trial # 223,layer6-8_O3_to_T9.jpg,layer6-8/layer6-8_O3_to_T9.jpg,OT,layer6-8,,,,,0.0,72.0,72.0,72.0,,,,,844.7829752778634,None,2.0,1.964794725878164,844.7829752778634,None,844.7829752778634,None,844.7829752778634,None,1,2022_Apr_22_1446,Semantic-hierachy,2021.1.2,60.08168589156998,
223,Trial # 224,layer0-5_O6_to_O9.jpg,layer0-5/layer0-5_O6_to_O9.jpg,OO,layer0-5,,,,,0.0,73.0,73.0,73.0,,,,,847.0675587148871,None,1.0,2.1695618708617985,847.0675587148871,None,847.0675587148871,None,847.0675587148871,None,1,2022_Apr_22_1446,Semantic-hierachy,2021.1.2,60.08168589156998,
224,Trial # 225,layer0-5_O12_to_T1.jpg,layer0-5/layer0-5_O12_to_T1.jpg,OT,layer0-5,,,,,0.0,74.0,74.0,74.0,,,,,849.5010141488165,None,1.0,5.256406320957467,849.5010141488165,None,849.5010141488165,None,849.5010141488165,None,1,2022_Apr_22_1446,Semantic-hierachy,2021.1.2,60.08168589156998,
225,Trial # 226,layer9-17_O2_to_T8.jpg,layer9-17/layer9-17_O2_to_T8.jpg,OT,layer9-17,,,,,0.0,75.0,75.0,75.0,,,,,856.3204460358247,None,2.0,2.374256002018228,856.3204460358247,None,856.3204460358247,None,856.3204460358247,None,1,2022_Apr_22_1446,Semantic-hierachy,2021.1.2,60.08168589156998,
226,Trial # 227,layer0-5_T4_to_T8.jpg,layer0-5/layer0-5_T4_to_T8.jpg,TT,layer0-5,,,,,0.0,76.0,76.0,76.0,,,,,858.9704295848496,None,1.0,2.617310364963487,858.9704295848496,None,858.9704295848496,None,858.9704295848496,None,1,2022_Apr_22_1446,Semantic-hierachy,2021.1.2,60.08168589156998,
227,Trial # 228,layer9-17_O2_to_T1.jpg,layer9-17/layer9-17_O2_to_T1.jpg,OT,layer9-17,,,,,0.0,77.0,77.0,77.0,,,,,861.8223844238091,None,4.0,2.669279825175181,861.8223844238091,None,861.8223844238091,None,861.8223844238091,None,1,2022_Apr_22_1446,Semantic-hierachy,2021.1.2,60.08168589156998,
228,Trial # 229,layer0-5_O11_to_O7.jpg,layer0-5/layer0-5_O11_to_O7.jpg,OO,layer0-5,,,,,0.0,78.0,78.0,78.0,,,,,864.8058034959249,None,1.0,3.991550805978477,864.8058034959249,None,864.8058034959249,None,864.8058034959249,None,1,2022_Apr_22_1446,Semantic-hierachy,2021.1.2,60.08168589156998,
229,Trial # 230,layer6-8_T2_to_T8.jpg,layer6-8/layer6-8_T2_to_T8.jpg,TT,layer6-8,,,,,0.0,79.0,79.0,79.0,,,,,869.0906659478787,None,2.0,2.2174933219794184,869.0906659478787,None,869.0906659478787,None,869.0906659478787,None,1,2022_Apr_22_1446,Semantic-hierachy,2021.1.2,60.08168589156998,
230,Trial # 231,layer9-17_T4_to_T8.jpg,layer9-17/layer9-17_T4_to_T8.jpg,TT,layer9-17,,,,,0.0,80.0,80.0,80.0,,,,,871.6422665768769,None,2.0,1.1454152001533655,871.6422665768769,None,871.6422665768769,None,871.6422665768769,None,1,2022_Apr_22_1446,Semantic-hierachy,2021.1.2,60.08168589156998,
231,Trial # 232,layer9-17_T11_to_T3.jpg,layer9-17/layer9-17_T11_to_T3.jpg,TT,layer9-17,,,,,0.0,81.0,81.0,81.0,,,,,873.0260664168745,None,2.0,2.1093633628915995,873.0260664168745,None,873.0260664168745,None,873.0260664168745,None,1,2022_Apr_22_1446,Semantic-hierachy,2021.1.2,60.08168589156998,
232,Trial # 233,layer0-5_O3_to_T9.jpg,layer0-5/layer0-5_O3_to_T9.jpg,OT,layer0-5,,,,,0.0,82.0,82.0,82.0,,,,,875.4093454519752,None,1.0,1.90167256211862,875.4093454519752,None,875.4093454519752,None,875.4093454519752,None,1,2022_Apr_22_1446,Semantic-hierachy,2021.1.2,60.08168589156998,
233,Trial # 234,layer9-17_T7_to_T8.jpg,layer9-17/layer9-17_T7_to_T8.jpg,TT,layer9-17,,,,,0.0,83.0,83.0,83.0,,,,,877.6606537739281,None,4.0,5.289298593997955,877.6606537739281,None,877.6606537739281,None,877.6606537739281,None,1,2022_Apr_22_1446,Semantic-hierachy,2021.1.2,60.08168589156998,
234,Trial # 235,layer9-17_O3_to_O4.jpg,layer9-17/layer9-17_O3_to_O4.jpg,OO,layer9-17,,,,,0.0,84.0,84.0,84.0,,,,,883.2621612439398,None,2.0,1.6783329409081489,883.2621612439398,None,883.2621612439398,None,883.2621612439398,None,1,2022_Apr_22_1446,Semantic-hierachy,2021.1.2,60.08168589156998,
235,Trial # 236,layer6-8_O8_to_T6.jpg,layer6-8/layer6-8_O8_to_T6.jpg,OT,layer6-8,,,,,0.0,85.0,85.0,85.0,,,,,885.1290902378969,None,1.0,2.426692793844268,885.1290902378969,None,885.1290902378969,None,885.1290902378969,None,1,2022_Apr_22_1446,Semantic-hierachy,2021.1.2,60.08168589156998,
236,Trial # 237,layer9-17_T6_to_T7.jpg,layer9-17/layer9-17_T6_to_T7.jpg,TT,layer9-17,,,,,0.0,86.0,86.0,86.0,,,,,887.9967757689301,None,2.0,1.3374897199682891,887.9967757689301,None,887.9967757689301,None,887.9967757689301,None,1,2022_Apr_22_1446,Semantic-hierachy,2021.1.2,60.08168589156998,
237,Trial # 238,layer0-5_T2_to_T9.jpg,layer0-5/layer0-5_T2_to_T9.jpg,TT,layer0-5,,,,,0.0,87.0,87.0,87.0,,,,,889.6300309149083,None,1.0,2.476228519110009,889.6300309149083,None,889.6300309149083,None,889.6300309149083,None,1,2022_Apr_22_1446,Semantic-hierachy,2021.1.2,60.08168589156998,
238,Trial # 239,layer0-5_O2_to_O5.jpg,layer0-5/layer0-5_O2_to_O5.jpg,OO,layer0-5,,,,,0.0,88.0,88.0,88.0,,,,,892.3648511699867,None,1.0,2.479663085192442,892.3648511699867,None,892.3648511699867,None,892.3648511699867,None,1,2022_Apr_22_1446,Semantic-hierachy,2021.1.2,60.08168589156998,
239,Trial # 240,layer6-8_O1_to_O5.jpg,layer6-8/layer6-8_O1_to_O5.jpg,OO,layer6-8,,,,,0.0,89.0,89.0,89.0,,,,,895.0984092198778,None,4.0,5.6735046450048685,895.0984092198778,None,895.0984092198778,None,895.0984092198778,None,1,2022_Apr_22_1446,Semantic-hierachy,2021.1.2,60.08168589156998,
240,Trial # 241,layer9-17_O3_to_O7.jpg,layer9-17/layer9-17_O3_to_O7.jpg,OO,layer9-17,,,,,0.0,90.0,90.0,90.0,,,,,901.0168582359328,None,2.0,1.6530431669671088,901.0168582359328,None,901.0168582359328,None,901.0168582359328,None,1,2022_Apr_22_1446,Semantic-hierachy,2021.1.2,60.08168589156998,
241,Trial # 242,layer6-8_O11_to_O8.jpg,layer6-8/layer6-8_O11_to_O8.jpg,OO,layer6-8,,,,,0.0,91.0,91.0,91.0,,,,,903.0010475257876,None,4.0,4.421862279996276,903.0010475257876,None,903.0010475257876,None,903.0010475257876,None,1,2022_Apr_22_1446,Semantic-hierachy,2021.1.2,60.08168589156998,
242,Trial # 243,layer9-17_T1_to_T12.jpg,layer9-17/layer9-17_T1_to_T12.jpg,TT,layer9-17,,,,,0.0,92.0,92.0,92.0,,,,,907.6862587637734,None,2.0,1.7300213878042996,907.6862587637734,None,907.6862587637734,None,907.6862587637734,None,1,2022_Apr_22_1446,Semantic-hierachy,2021.1.2,60.08168589156998,
243,Trial # 244,layer9-17_O6_to_O8.jpg,layer9-17/layer9-17_O6_to_O8.jpg,OO,layer9-17,,,,,0.0,93.0,93.0,93.0,,,,,909.6857505578082,None,4.0,2.969993819948286,909.6857505578082,None,909.6857505578082,None,909.6857505578082,None,1,2022_Apr_22_1446,Semantic-hierachy,2021.1.2,60.08168589156998,
244,Trial # 245,layer6-8_O4_to_T11.jpg,layer6-8/layer6-8_O4_to_T11.jpg,OT,layer6-8,,,,,0.0,94.0,94.0,94.0,,,,,912.9216136299074,None,3.0,2.3387523028068244,912.9216136299074,None,912.9216136299074,None,912.9216136299074,None,1,2022_Apr_22_1446,Semantic-hierachy,2021.1.2,60.08168589156998,
245,Trial # 246,layer9-17_T10_to_T3.jpg,layer9-17/layer9-17_T10_to_T3.jpg,TT,layer9-17,,,,,0.0,95.0,95.0,95.0,,,,,915.5046423189342,None,2.0,1.695082803023979,915.5046423189342,None,915.5046423189342,None,915.5046423189342,None,1,2022_Apr_22_1446,Semantic-hierachy,2021.1.2,60.08168589156998,
246,Trial # 247,layer0-5_O10_to_O8.jpg,layer0-5/layer0-5_O10_to_O8.jpg,OO,layer0-5,,,,,0.0,96.0,96.0,96.0,,,,,917.4719929539132,None,1.0,1.8281749449670317,917.4719929539132,None,917.4719929539132,None,917.4719929539132,None,1,2022_Apr_22_1446,Semantic-hierachy,2021.1.2,60.08168589156998,
247,Trial # 248,layer6-8_O3_to_T12.jpg,layer6-8/layer6-8_O3_to_T12.jpg,OT,layer6-8,,,,,0.0,97.0,97.0,97.0,,,,,919.6895046478604,None,3.0,1.7476780829019845,919.6895046478604,None,919.6895046478604,None,919.6895046478604,None,1,2022_Apr_22_1446,Semantic-hierachy,2021.1.2,60.08168589156998,
248,Trial # 249,layer0-5_O12_to_T9.jpg,layer0-5/layer0-5_O12_to_T9.jpg,OT,layer0-5,,,,,0.0,98.0,98.0,98.0,,,,,921.7399927608204,None,1.0,1.7736978239845484,921.7399927608204,None,921.7399927608204,None,921.7399927608204,None,1,2022_Apr_22_1446,Semantic-hierachy,2021.1.2,60.08168589156998,
249,Trial # 250,layer9-17_T1_to_T9.jpg,layer9-17/layer9-17_T1_to_T9.jpg,TT,layer9-17,,,,,0.0,99.0,99.0,99.0,,,,,923.7741260528564,None,4.0,2.221631136024371,923.7741260528564,None,923.7741260528564,None,923.7741260528564,None,1,2022_Apr_22_1446,Semantic-hierachy,2021.1.2,60.08168589156998,
250,Trial # 251,layer9-17_T11_to_T8.jpg,layer9-17/layer9-17_T11_to_T8.jpg,TT,layer9-17,,,,,0.0,100.0,100.0,100.0,,,,,926.3758072517812,None,2.0,1.687637256924063,926.3758072517812,None,926.3758072517812,None,926.3758072517812,None,1,2022_Apr_22_1446,Semantic-hierachy,2021.1.2,60.08168589156998,
251,Trial # 252,layer9-17_T11_to_T5.jpg,layer9-17/layer9-17_T11_to_T5.jpg,TT,layer9-17,,,,,0.0,101.0,101.0,101.0,,,,,928.5925385539886,None,4.0,2.222492979140952,928.5925385539886,None,928.5925385539886,None,928.5925385539886,None,1,2022_Apr_22_1446,Semantic-hierachy,2021.1.2,60.08168589156998,
252,Trial # 253,layer6-8_T10_to_T12.jpg,layer6-8/layer6-8_T10_to_T12.jpg,TT,layer6-8,,,,,0.0,102.0,102.0,102.0,,,,,931.1440516908189,None,4.0,4.738473415840417,931.1440516908189,None,931.1440516908189,None,931.1440516908189,None,1,2022_Apr_22_1446,Semantic-hierachy,2021.1.2,60.08168589156998,
253,Trial # 254,layer9-17_O5_to_T1.jpg,layer9-17/layer9-17_O5_to_T1.jpg,OT,layer9-17,,,,,0.0,103.0,103.0,103.0,,,,,936.0786894729828,None,2.0,1.3926745529752225,936.0786894729828,None,936.0786894729828,None,936.0786894729828,None,1,2022_Apr_22_1446,Semantic-hierachy,2021.1.2,60.08168589156998,
254,Trial # 255,layer6-8_T2_to_T3.jpg,layer6-8/layer6-8_T2_to_T3.jpg,TT,layer6-8,,,,,0.0,104.0,104.0,104.0,,,,,937.7793248239904,None,4.0,3.16305661899969,937.7793248239904,None,937.7793248239904,None,937.7793248239904,None,1,2022_Apr_22_1446,Semantic-hierachy,2021.1.2,60.08168589156998,
255,Trial # 256,layer6-8_O2_to_T6.jpg,layer6-8/layer6-8_O2_to_T6.jpg,OT,layer6-8,,,,,0.0,105.0,105.0,105.0,,,,,941.14653597679,None,3.0,1.7588693799916657,941.14653597679,None,941.14653597679,None,941.14653597679,None,1,2022_Apr_22_1446,Semantic-hierachy,2021.1.2,60.08168589156998,
256,Trial # 257,layer6-8_T11_to_T9.jpg,layer6-8/layer6-8_T11_to_T9.jpg,TT,layer6-8,,,,,0.0,106.0,106.0,106.0,,,,,943.213635136839,None,4.0,1.6882159260567278,943.213635136839,None,943.213635136839,None,943.213635136839,None,1,2022_Apr_22_1446,Semantic-hierachy,2021.1.2,60.08168589156998,
257,Trial # 258,layer6-8_O5_to_T9.jpg,layer6-8/layer6-8_O5_to_T9.jpg,OT,layer6-8,,,,,0.0,107.0,107.0,107.0,,,,,945.1800052737816,None,3.0,2.590347937075421,945.1800052737816,None,945.1800052737816,None,945.1800052737816,None,1,2022_Apr_22_1446,Semantic-hierachy,2021.1.2,60.08168589156998,
258,Trial # 259,layer6-8_O9_to_T8.jpg,layer6-8/layer6-8_O9_to_T8.jpg,OT,layer6-8,,,,,0.0,108.0,108.0,108.0,,,,,947.9825298148209,None,3.0,1.5894546201452613,947.9825298148209,None,947.9825298148209,None,947.9825298148209,None,1,2022_Apr_22_1446,Semantic-hierachy,2021.1.2,60.08168589156998,
259,Trial # 260,layer6-8_T1_to_T5.jpg,layer6-8/layer6-8_T1_to_T5.jpg,TT,layer6-8,,,,,0.0,109.0,109.0,109.0,,,,,949.8817932708188,None,4.0,1.4893736359663308,949.8817932708188,None,949.8817932708188,None,949.8817932708188,None,1,2022_Apr_22_1446,Semantic-hierachy,2021.1.2,60.08168589156998,
260,Trial # 261,layer0-5_O11_to_T2.jpg,layer0-5/layer0-5_O11_to_T2.jpg,OT,layer0-5,,,,,0.0,110.0,110.0,110.0,,,,,951.7493200288154,None,1.0,1.810192201053724,951.7493200288154,None,951.7493200288154,None,951.7493200288154,None,1,2022_Apr_22_1446,Semantic-hierachy,2021.1.2,60.08168589156998,
261,Trial # 262,layer0-5_O7_to_T4.jpg,layer0-5/layer0-5_O7_to_T4.jpg,OT,layer0-5,,,,,0.0,111.0,111.0,111.0,,,,,953.8504879539832,None,1.0,1.372765421168879,953.8504879539832,None,953.8504879539832,None,953.8504879539832,None,1,2022_Apr_22_1446,Semantic-hierachy,2021.1.2,60.08168589156998,
262,Trial # 263,layer6-8_T12_to_T8.jpg,layer6-8/layer6-8_T12_to_T8.jpg,TT,layer6-8,,,,,0.0,112.0,112.0,112.0,,,,,955.4839742779732,None,2.0,3.524606460006908,955.4839742779732,None,955.4839742779732,None,955.4839742779732,None,1,2022_Apr_22_1446,Semantic-hierachy,2021.1.2,60.08168589156998,
263,Trial # 264,layer6-8_O4_to_O9.jpg,layer6-8/layer6-8_O4_to_O9.jpg,OO,layer6-8,,,,,0.0,113.0,113.0,113.0,,,,,959.3680972368456,None,4.0,2.371704770019278,959.3680972368456,None,959.3680972368456,None,959.3680972368456,None,1,2022_Apr_22_1446,Semantic-hierachy,2021.1.2,60.08168589156998,
264,Trial # 265,layer0-5_T1_to_T5.jpg,layer0-5/layer0-5_T1_to_T5.jpg,TT,layer0-5,,,,,0.0,114.0,114.0,114.0,,,,,962.0523807008284,None,1.0,2.0536959851160645,962.0523807008284,None,962.0523807008284,None,962.0523807008284,None,1,2022_Apr_22_1446,Semantic-hierachy,2021.1.2,60.08168589156998,
265,Trial # 266,layer0-5_O12_to_O7.jpg,layer0-5/layer0-5_O12_to_O7.jpg,OO,layer0-5,,,,,0.0,115.0,115.0,115.0,,,,,964.3528609208296,None,1.0,1.8122714718338104,964.3528609208296,None,964.3528609208296,None,964.3528609208296,None,1,2022_Apr_22_1446,Semantic-hierachy,2021.1.2,60.08168589156998,
266,Trial # 267,layer6-8_T8_to_T9.jpg,layer6-8/layer6-8_T8_to_T9.jpg,TT,layer6-8,,,,,0.0,116.0,116.0,116.0,,,,,966.4206734818872,None,2.0,3.825394166866317,966.4206734818872,None,966.4206734818872,None,966.4206734818872,None,1,2022_Apr_22_1446,Semantic-hierachy,2021.1.2,60.08168589156998,
267,Trial # 268,layer9-17_O11_to_T10.jpg,layer9-17/layer9-17_O11_to_T10.jpg,OT,layer9-17,,,,,0.0,117.0,117.0,117.0,,,,,970.5047247859184,None,2.0,1.961826715152711,970.5047247859184,None,970.5047247859184,None,970.5047247859184,None,1,2022_Apr_22_1446,Semantic-hierachy,2021.1.2,60.08168589156998,
268,Trial # 269,layer0-5_O8_to_T9.jpg,layer0-5/layer0-5_O8_to_T9.jpg,OT,layer0-5,,,,,0.0,118.0,118.0,118.0,,,,,972.7401507999748,None,1.0,1.8935116429347545,972.7401507999748,None,972.7401507999748,None,972.7401507999748,None,1,2022_Apr_22_1446,Semantic-hierachy,2021.1.2,60.08168589156998,
269,Trial # 270,layer9-17_O10_to_O11.jpg,layer9-17/layer9-17_O10_to_O11.jpg,OO,layer9-17,,,,,0.0,119.0,119.0,119.0,,,,,974.8226120248436,None,4.0,2.830311047146097,974.8226120248436,None,974.8226120248436,None,974.8226120248436,None,1,2022_Apr_22_1446,Semantic-hierachy,2021.1.2,60.08168589156998,
270,Trial # 271,layer0-5_T1_to_T9.jpg,layer0-5/layer0-5_T1_to_T9.jpg,TT,layer0-5,,,,,0.0,120.0,120.0,120.0,,,,,978.0907783429138,None,1.0,1.9570510310586544,978.0907783429138,None,978.0907783429138,None,978.0907783429138,None,1,2022_Apr_22_1446,Semantic-hierachy,2021.1.2,60.08168589156998,
271,Trial # 272,layer6-8_T11_to_T8.jpg,layer6-8/layer6-8_T11_to_T8.jpg,TT,layer6-8,,,,,0.0,121.0,121.0,121.0,,,,,980.6743802868295,None,4.0,4.521884428104386,980.6743802868295,None,980.6743802868295,None,980.6743802868295,None,1,2022_Apr_22_1446,Semantic-hierachy,2021.1.2,60.08168589156998,
272,Trial # 273,layer9-17_O10_to_O12.jpg,layer9-17/layer9-17_O10_to_O12.jpg,OO,layer9-17,,,,,0.0,122.0,122.0,122.0,,,,,985.692996095866,None,2.0,1.5408765240572393,985.692996095866,None,985.692996095866,None,985.692996095866,None,1,2022_Apr_22_1446,Semantic-hierachy,2021.1.2,60.08168589156998,
273,Trial # 274,layer0-5_T12_to_T6.jpg,layer0-5/layer0-5_T12_to_T6.jpg,TT,layer0-5,,,,,0.0,123.0,123.0,123.0,,,,,987.5110623459332,None,1.0,1.8615812549833208,987.5110623459332,None,987.5110623459332,None,987.5110623459332,None,1,2022_Apr_22_1446,Semantic-hierachy,2021.1.2,60.08168589156998,
274,Trial # 275,layer9-17_O11_to_O5.jpg,layer9-17/layer9-17_O11_to_O5.jpg,OO,layer9-17,,,,,0.0,124.0,124.0,124.0,,,,,989.7612455759664,None,2.0,2.5449586620088667,989.7612455759664,None,989.7612455759664,None,989.7612455759664,None,1,2022_Apr_22_1446,Semantic-hierachy,2021.1.2,60.08168589156998,
275,Trial # 276,layer9-17_O1_to_O4.jpg,layer9-17/layer9-17_O1_to_O4.jpg,OO,layer9-17,,,,,0.0,125.0,125.0,125.0,,,,,992.6450332629028,None,2.0,2.6230605950113386,992.6450332629028,None,992.6450332629028,None,992.6450332629028,None,1,2022_Apr_22_1446,Semantic-hierachy,2021.1.2,60.08168589156998,
276,Trial # 277,layer6-8_O11_to_O3.jpg,layer6-8/layer6-8_O11_to_O3.jpg,OO,layer6-8,,,,,0.0,126.0,126.0,126.0,,,,,995.7293451579752,None,2.0,1.7267686910927296,995.7293451579752,None,995.7293451579752,None,995.7293451579752,None,1,2022_Apr_22_1446,Semantic-hierachy,2021.1.2,60.08168589156998,
277,Trial # 278,layer6-8_T10_to_T11.jpg,layer6-8/layer6-8_T10_to_T11.jpg,TT,layer6-8,,,,,0.0,127.0,127.0,127.0,,,,,997.9474718938582,None,2.0,2.1442188580986112,997.9474718938582,None,997.9474718938582,None,997.9474718938582,None,1,2022_Apr_22_1446,Semantic-hierachy,2021.1.2,60.08168589156998,
278,Trial # 279,layer0-5_O7_to_T3.jpg,layer0-5/layer0-5_O7_to_T3.jpg,OT,layer0-5,,,,,0.0,128.0,128.0,128.0,,,,,1000.4144758069888,None,1.0,2.321751388022676,1000.4144758069888,None,1000.4144758069888,None,1000.4144758069888,None,1,2022_Apr_22_1446,Semantic-hierachy,2021.1.2,60.08168589156998,
279,Trial # 280,layer9-17_T1_to_T10.jpg,layer9-17/layer9-17_T1_to_T10.jpg,TT,layer9-17,,,,,0.0,129.0,129.0,129.0,,,,,1002.9815201750024,None,2.0,2.4766604870092124,1002.9815201750024,None,1002.9815201750024,None,1002.9815201750024,None,1,2022_Apr_22_1446,Semantic-hierachy,2021.1.2,60.08168589156998,
280,Trial # 281,layer9-17_O6_to_T7.jpg,layer9-17/layer9-17_O6_to_T7.jpg,OT,layer9-17,,,,,0.0,130.0,130.0,130.0,,,,,1005.6489728728776,None,2.0,1.2532558729872108,1005.6489728728776,None,1005.6489728728776,None,1005.6489728728776,None,1,2022_Apr_22_1446,Semantic-hierachy,2021.1.2,60.08168589156998,
281,Trial # 282,layer0-5_O10_to_O7.jpg,layer0-5/layer0-5_O10_to_O7.jpg,OO,layer0-5,,,,,0.0,131.0,131.0,131.0,,,,,1007.1504950548988,None,1.0,1.7110090299975127,1007.1504950548988,None,1007.1504950548988,None,1007.1504950548988,None,1,2022_Apr_22_1446,Semantic-hierachy,2021.1.2,60.08168589156998,
282,Trial # 283,layer0-5_O1_to_O11.jpg,layer0-5/layer0-5_O1_to_O11.jpg,OO,layer0-5,,,,,0.0,132.0,132.0,132.0,,,,,1009.1169279129244,None,1.0,2.25079912180081,1009.1169279129244,None,1009.1169279129244,None,1009.1169279129244,None,1,2022_Apr_22_1446,Semantic-hierachy,2021.1.2,60.08168589156998,
283,Trial # 284,layer6-8_O7_to_O8.jpg,layer6-8/layer6-8_O7_to_O8.jpg,OO,layer6-8,,,,,0.0,133.0,133.0,133.0,,,,,1011.6356506359298,None,2.0,1.6088009949307889,1011.6356506359298,None,1011.6356506359298,None,1011.6356506359298,None,1,2022_Apr_22_1446,Semantic-hierachy,2021.1.2,60.08168589156998,
284,Trial # 285,layer0-5_T7_to_T8.jpg,layer0-5/layer0-5_T7_to_T8.jpg,TT,layer0-5,,,,,0.0,134.0,134.0,134.0,,,,,1013.485167963896,None,1.0,1.7597442020196468,1013.485167963896,None,1013.485167963896,None,1013.485167963896,None,1,2022_Apr_22_1446,Semantic-hierachy,2021.1.2,60.08168589156998,
285,Trial # 286,layer9-17_T11_to_T6.jpg,layer9-17/layer9-17_T11_to_T6.jpg,TT,layer9-17,,,,,0.0,135.0,135.0,135.0,,,,,1015.5185752119868,None,3.0,4.5405609051231295,1015.5185752119868,None,1015.5185752119868,None,1015.5185752119868,None,1,2022_Apr_22_1446,Semantic-hierachy,2021.1.2,60.08168589156998,
286,Trial # 287,layer0-5_T2_to_T7.jpg,layer0-5/layer0-5_T2_to_T7.jpg,TT,layer0-5,,,,,0.0,136.0,136.0,136.0,,,,,1020.6533972139003,None,1.0,2.1920732751023024,1020.6533972139003,None,1020.6533972139003,None,1020.6533972139003,None,1,2022_Apr_22_1446,Semantic-hierachy,2021.1.2,60.08168589156998,
287,Trial # 288,layer9-17_O10_to_O2.jpg,layer9-17/layer9-17_O10_to_O2.jpg,OO,layer9-17,,,,,0.0,137.0,137.0,137.0,,,,,1023.1888883039356,None,2.0,1.5874855569563806,1023.1888883039356,None,1023.1888883039356,None,1023.1888883039356,None,1,2022_Apr_22_1446,Semantic-hierachy,2021.1.2,60.08168589156998,
288,Trial # 289,layer0-5_T10_to_T9.jpg,layer0-5/layer0-5_T10_to_T9.jpg,TT,layer0-5,,,,,0.0,138.0,138.0,138.0,,,,,1025.088263652986,None,1.0,3.162426058901474,1025.088263652986,None,1025.088263652986,None,1025.088263652986,None,1,2022_Apr_22_1446,Semantic-hierachy,2021.1.2,60.08168589156998,
289,Trial # 290,layer6-8_O11_to_O5.jpg,layer6-8/layer6-8_O11_to_O5.jpg,OO,layer6-8,,,,,0.0,139.0,139.0,139.0,,,,,1028.5226360789966,None,2.0,1.9086497898679229,1028.5226360789966,None,1028.5226360789966,None,1028.5226360789966,None,1,2022_Apr_22_1446,Semantic-hierachy,2021.1.2,60.08168589156998,
290,Trial # 291,layer6-8_O3_to_O7.jpg,layer6-8/layer6-8_O3_to_O7.jpg,OO,layer6-8,,,,,0.0,140.0,140.0,140.0,,,,,1030.7068901818711,None,2.0,1.6408505630679429,1030.7068901818711,None,1030.7068901818711,None,1030.7068901818711,None,1,2022_Apr_22_1446,Semantic-hierachy,2021.1.2,60.08168589156998,
291,Trial # 292,layer9-17_O12_to_T11.jpg,layer9-17/layer9-17_O12_to_T11.jpg,OT,layer9-17,,,,,0.0,141.0,141.0,141.0,,,,,1032.608591147,None,2.0,1.296781933167949,1032.608591147,None,1032.608591147,None,1032.608591147,None,1,2022_Apr_22_1446,Semantic-hierachy,2021.1.2,60.08168589156998,
292,Trial # 293,layer9-17_O2_to_O4.jpg,layer9-17/layer9-17_O2_to_O4.jpg,OO,layer9-17,,,,,0.0,142.0,142.0,142.0,,,,,1034.1915833998935,None,4.0,2.7780482701491565,1034.1915833998935,None,1034.1915833998935,None,1034.1915833998935,None,1,2022_Apr_22_1446,Semantic-hierachy,2021.1.2,60.08168589156998,
293,Trial # 294,layer6-8_O1_to_T12.jpg,layer6-8/layer6-8_O1_to_T12.jpg,OT,layer6-8,,,,,0.0,143.0,143.0,143.0,,,,,1037.2599613238126,None,3.0,1.8409439080860464,1037.2599613238126,None,1037.2599613238126,None,1037.2599613238126,None,1,2022_Apr_22_1446,Semantic-hierachy,2021.1.2,60.08168589156998,
294,Trial # 295,layer9-17_O11_to_T5.jpg,layer9-17/layer9-17_O11_to_T5.jpg,OT,layer9-17,,,,,0.0,144.0,144.0,144.0,,,,,1039.326103735948,None,2.0,2.6116475460585207,1039.326103735948,None,1039.326103735948,None,1039.326103735948,None,1,2022_Apr_22_1446,Semantic-hierachy,2021.1.2,60.08168589156998,
295,Trial # 296,layer0-5_O10_to_O9.jpg,layer0-5/layer0-5_O10_to_O9.jpg,OO,layer0-5,,,,,0.0,145.0,145.0,145.0,,,,,1042.2447905139998,None,1.0,1.7081412160769105,1042.2447905139998,None,1042.2447905139998,None,1042.2447905139998,None,1,2022_Apr_22_1446,Semantic-hierachy,2021.1.2,60.08168589156998,
296,Trial # 297,layer6-8_O12_to_T10.jpg,layer6-8/layer6-8_O12_to_T10.jpg,OT,layer6-8,,,,,0.0,146.0,146.0,146.0,,,,,1044.194673008984,None,3.0,1.830834852065891,1044.194673008984,None,1044.194673008984,None,1044.194673008984,None,1,2022_Apr_22_1446,Semantic-hierachy,2021.1.2,60.08168589156998,
297,Trial # 298,layer6-8_O3_to_T2.jpg,layer6-8/layer6-8_O3_to_T2.jpg,OT,layer6-8,,,,,0.0,147.0,147.0,147.0,,,,,1047.3461773728486,None,2.0,2.493151840986684,1047.3461773728486,None,1047.3461773728486,None,1047.3461773728486,None,1,2022_Apr_22_1446,Semantic-hierachy,2021.1.2,60.08168589156998,
298,Trial # 299,layer9-17_O2_to_T5.jpg,layer9-17/layer9-17_O2_to_T5.jpg,OT,layer9-17,,,,,0.0,148.0,148.0,148.0,,,,,1050.0457177897915,None,4.0,2.864694174844772,1050.0457177897915,None,1050.0457177897915,None,1050.0457177897915,None,1,2022_Apr_22_1446,Semantic-hierachy,2021.1.2,60.08168589156998,
299,Trial # 300,layer0-5_O3_to_T7.jpg,layer0-5/layer0-5_O3_to_T7.jpg,OT,layer0-5,,,,,0.0,149.0,149.0,149.0,,,,,1053.2479327698238,None,1.0,1.5431075398810208,1053.2479327698238,None,1053.2479327698238,None,1053.2479327698238,None,1,2022_Apr_22_1446,Semantic-hierachy,2021.1.2,60.08168589156998,
300,Trial # 301,layer9-17_O11_to_O6.jpg,layer9-17/layer9-17_O11_to_O6.jpg,OO,layer9-17,,,,,,,,,0.0,0.0,0.0,0.0,1067.968503700802,None,2.0,9.507295254152268,1067.968503700802,None,1067.968503700802,None,1067.968503700802,None,1,2022_Apr_22_1446,Semantic-hierachy,2021.1.2,60.08168589156998,
301,Trial # 302,layer0-5_O3_to_O7.jpg,layer0-5/layer0-5_O3_to_O7.jpg,OO,layer0-5,,,,,,,,,0.0,1.0,1.0,1.0,1077.7053099768236,None,1.0,1.9391989109572023,1077.7053099768236,None,1077.7053099768236,None,1077.7053099768236,None,1,2022_Apr_22_1446,Semantic-hierachy,2021.1.2,60.08168589156998,
302,Trial # 303,layer6-8_O11_to_T3.jpg,layer6-8/layer6-8_O11_to_T3.jpg,OT,layer6-8,,,,,,,,,0.0,2.0,2.0,2.0,1079.9217747219373,None,3.0,2.7914220709353685,1079.9217747219373,None,1079.9217747219373,None,1079.9217747219373,None,1,2022_Apr_22_1446,Semantic-hierachy,2021.1.2,60.08168589156998,
303,Trial # 304,layer6-8_O2_to_T7.jpg,layer6-8/layer6-8_O2_to_T7.jpg,OT,layer6-8,,,,,,,,,0.0,3.0,3.0,3.0,1083.056581941899,None,3.0,2.0887709169182926,1083.056581941899,None,1083.056581941899,None,1083.056581941899,None,1,2022_Apr_22_1446,Semantic-hierachy,2021.1.2,60.08168589156998,
304,Trial # 305,layer0-5_T1_to_T7.jpg,layer0-5/layer0-5_T1_to_T7.jpg,TT,layer0-5,,,,,,,,,0.0,4.0,4.0,4.0,1085.3909957068972,None,1.0,2.0550685729831457,1085.3909957068972,None,1085.3909957068972,None,1085.3909957068972,None,1,2022_Apr_22_1446,Semantic-hierachy,2021.1.2,60.08168589156998,
305,Trial # 306,layer6-8_O7_to_T11.jpg,layer6-8/layer6-8_O7_to_T11.jpg,OT,layer6-8,,,,,,,,,0.0,5.0,5.0,5.0,1087.7419826879632,None,3.0,2.2199520459398627,1087.7419826879632,None,1087.7419826879632,None,1087.7419826879632,None,1,2022_Apr_22_1446,Semantic-hierachy,2021.1.2,60.08168589156998,
306,Trial # 307,layer9-17_O5_to_T5.jpg,layer9-17/layer9-17_O5_to_T5.jpg,OT,layer9-17,,,,,,,,,0.0,6.0,6.0,6.0,1090.4089996689,None,2.0,1.889895854052156,1090.4089996689,None,1090.4089996689,None,1090.4089996689,None,1,2022_Apr_22_1446,Semantic-hierachy,2021.1.2,60.08168589156998,
307,Trial # 308,layer9-17_T12_to_T5.jpg,layer9-17/layer9-17_T12_to_T5.jpg,TT,layer9-17,,,,,,,,,0.0,7.0,7.0,7.0,1092.4934224728495,None,2.0,2.37755515309982,1092.4934224728495,None,1092.4934224728495,None,1092.4934224728495,None,1,2022_Apr_22_1446,Semantic-hierachy,2021.1.2,60.08168589156998,
308,Trial # 309,layer6-8_O11_to_O2.jpg,layer6-8/layer6-8_O11_to_O2.jpg,OO,layer6-8,,,,,,,,,0.0,8.0,8.0,8.0,1095.0765345818363,None,3.0,2.5903084848541766,1095.0765345818363,None,1095.0765345818363,None,1095.0765345818363,None,1,2022_Apr_22_1446,Semantic-hierachy,2021.1.2,60.08168589156998,
309,Trial # 310,layer6-8_O10_to_O7.jpg,layer6-8/layer6-8_O10_to_O7.jpg,OO,layer6-8,,,,,,,,,0.0,9.0,9.0,9.0,1097.9110427489504,None,2.0,2.0136793761048466,1097.9110427489504,None,1097.9110427489504,None,1097.9110427489504,None,1,2022_Apr_22_1446,Semantic-hierachy,2021.1.2,60.08168589156998,
310,Trial # 311,layer9-17_O10_to_T11.jpg,layer9-17/layer9-17_O10_to_T11.jpg,OT,layer9-17,,,,,,,,,0.0,10.0,10.0,10.0,1100.1287827908527,None,4.0,2.891499900957569,1100.1287827908527,None,1100.1287827908527,None,1100.1287827908527,None,1,2022_Apr_22_1446,Semantic-hierachy,2021.1.2,60.08168589156998,
311,Trial # 312,layer6-8_O11_to_O12.jpg,layer6-8/layer6-8_O11_to_O12.jpg,OO,layer6-8,,,,,,,,,0.0,11.0,11.0,11.0,1103.3295368698891,None,3.0,2.104361290112138,1103.3295368698891,None,1103.3295368698891,None,1103.3295368698891,None,1,2022_Apr_22_1446,Semantic-hierachy,2021.1.2,60.08168589156998,
312,Trial # 313,layer9-17_O9_to_T8.jpg,layer9-17/layer9-17_O9_to_T8.jpg,OT,layer9-17,,,,,,,,,0.0,12.0,12.0,12.0,1105.7463785719592,None,4.0,1.960531034041196,1105.7463785719592,None,1105.7463785719592,None,1105.7463785719592,None,1,2022_Apr_22_1446,Semantic-hierachy,2021.1.2,60.08168589156998,
313,Trial # 314,layer0-5_O3_to_T2.jpg,layer0-5/layer0-5_O3_to_T2.jpg,OT,layer0-5,,,,,,,,,0.0,13.0,13.0,13.0,1107.9478806229308,None,1.0,1.8863264569081368,1107.9478806229308,None,1107.9478806229308,None,1107.9478806229308,None,1,2022_Apr_22_1446,Semantic-hierachy,2021.1.2,60.08168589156998,
314,Trial # 315,layer9-17_T1_to_T11.jpg,layer9-17/layer9-17_T1_to_T11.jpg,TT,layer9-17,,,,,,,,,0.0,14.0,14.0,14.0,1110.114555080887,None,2.0,1.673737560166046,1110.114555080887,None,1110.114555080887,None,1110.114555080887,None,1,2022_Apr_22_1446,Semantic-hierachy,2021.1.2,60.08168589156998,
315,Trial # 316,layer6-8_T10_to_T7.jpg,layer6-8/layer6-8_T10_to_T7.jpg,TT,layer6-8,,,,,,,,,0.0,15.0,15.0,15.0,1112.0158989359625,None,1.0,9.39034965983592,1112.0158989359625,None,1112.0158989359625,None,1112.0158989359625,None,1,2022_Apr_22_1446,Semantic-hierachy,2021.1.2,60.08168589156998,
316,Trial # 317,layer0-5_T6_to_T7.jpg,layer0-5/layer0-5_T6_to_T7.jpg,TT,layer0-5,,,,,,,,,0.0,16.0,16.0,16.0,1121.802386578871,None,1.0,2.007276135031134,1121.802386578871,None,1121.802386578871,None,1121.802386578871,None,1,2022_Apr_22_1446,Semantic-hierachy,2021.1.2,60.08168589156998,
317,Trial # 318,layer9-17_O1_to_T3.jpg,layer9-17/layer9-17_O1_to_T3.jpg,OT,layer9-17,,,,,,,,,0.0,17.0,17.0,17.0,1124.0526399489029,None,2.0,1.2949508109595629,1124.0526399489029,None,1124.0526399489029,None,1124.0526399489029,None,1,2022_Apr_22_1446,Semantic-hierachy,2021.1.2,60.08168589156998,
318,Trial # 319,layer0-5_O2_to_T5.jpg,layer0-5/layer0-5_O2_to_T5.jpg,OT,layer0-5,,,,,,,,,0.0,18.0,18.0,18.0,1125.619604380801,None,1.0,1.7440654409583658,1125.619604380801,None,1125.619604380801,None,1125.619604380801,None,1,2022_Apr_22_1446,Semantic-hierachy,2021.1.2,60.08168589156998,
319,Trial # 320,layer6-8_O7_to_T10.jpg,layer6-8/layer6-8_O7_to_T10.jpg,OT,layer6-8,,,,,,,,,0.0,19.0,19.0,19.0,1127.6875606549438,None,3.0,1.5540403889026493,1127.6875606549438,None,1127.6875606549438,None,1127.6875606549438,None,1,2022_Apr_22_1446,Semantic-hierachy,2021.1.2,60.08168589156998,
320,Trial # 321,layer0-5_O5_to_O6.jpg,layer0-5/layer0-5_O5_to_O6.jpg,OO,layer0-5,,,,,,,,,0.0,20.0,20.0,20.0,1129.470868225908,None,1.0,1.6512083348352462,1129.470868225908,None,1129.470868225908,None,1129.470868225908,None,1,2022_Apr_22_1446,Semantic-hierachy,2021.1.2,60.08168589156998,
321,Trial # 322,layer9-17_O5_to_T4.jpg,layer9-17/layer9-17_O5_to_T4.jpg,OT,layer9-17,,,,,,,,,0.0,21.0,21.0,21.0,1131.355620172806,None,2.0,1.5452315770089626,1131.355620172806,None,1131.355620172806,None,1131.355620172806,None,1,2022_Apr_22_1446,Semantic-hierachy,2021.1.2,60.08168589156998,
322,Trial # 323,layer0-5_T12_to_T2.jpg,layer0-5/layer0-5_T12_to_T2.jpg,TT,layer0-5,,,,,,,,,0.0,22.0,22.0,22.0,1133.172289687907,None,1.0,2.5421462550293654,1133.172289687907,None,1133.172289687907,None,1133.172289687907,None,1,2022_Apr_22_1446,Semantic-hierachy,2021.1.2,60.08168589156998,
323,Trial # 324,layer0-5_O2_to_O4.jpg,layer0-5/layer0-5_O2_to_O4.jpg,OO,layer0-5,,,,,,,,,0.0,23.0,23.0,23.0,1135.9894943498075,None,1.0,1.6644146929029375,1135.9894943498075,None,1135.9894943498075,None,1135.9894943498075,None,1,2022_Apr_22_1446,Semantic-hierachy,2021.1.2,60.08168589156998,
324,Trial # 325,layer6-8_O1_to_O9.jpg,layer6-8/layer6-8_O1_to_O9.jpg,OO,layer6-8,,,,,,,,,0.0,24.0,24.0,24.0,1137.9575239617843,None,4.0,5.344713133992627,1137.9575239617843,None,1137.9575239617843,None,1137.9575239617843,None,1,2022_Apr_22_1446,Semantic-hierachy,2021.1.2,60.08168589156998,
325,Trial # 326,layer0-5_T3_to_T5.jpg,layer0-5/layer0-5_T3_to_T5.jpg,TT,layer0-5,,,,,,,,,0.0,25.0,25.0,25.0,1147.0433700007852,None,1.0,2.158656375017017,1147.0433700007852,None,1147.0433700007852,None,1147.0433700007852,None,1,2022_Apr_22_1446,Semantic-hierachy,2021.1.2,60.08168589156998,
326,Trial # 327,layer6-8_O8_to_T12.jpg,layer6-8/layer6-8_O8_to_T12.jpg,OT,layer6-8,,,,,,,,,0.0,26.0,26.0,26.0,1149.5270043478813,None,2.0,2.4560556991491467,1149.5270043478813,None,1149.5270043478813,None,1149.5270043478813,None,1,2022_Apr_22_1446,Semantic-hierachy,2021.1.2,60.08168589156998,
327,Trial # 328,layer9-17_T11_to_T4.jpg,layer9-17/layer9-17_T11_to_T4.jpg,TT,layer9-17,,,,,,,,,0.0,27.0,27.0,27.0,1152.295583087951,None,2.0,1.5794408859219402,1152.295583087951,None,1152.295583087951,None,1152.295583087951,None,1,2022_Apr_22_1446,Semantic-hierachy,2021.1.2,60.08168589156998,
328,Trial # 329,layer9-17_O6_to_T2.jpg,layer9-17/layer9-17_O6_to_T2.jpg,OT,layer9-17,,,,,,,,,0.0,28.0,28.0,28.0,1154.1283438419923,None,2.0,1.2549461869057268,1154.1283438419923,None,1154.1283438419923,None,1154.1283438419923,None,1,2022_Apr_22_1446,Semantic-hierachy,2021.1.2,60.08168589156998,
329,Trial # 330,layer9-17_T10_to_T9.jpg,layer9-17/layer9-17_T10_to_T9.jpg,TT,layer9-17,,,,,,,,,0.0,29.0,29.0,29.0,1155.6285292468965,None,2.0,2.3408938020002097,1155.6285292468965,None,1155.6285292468965,None,1155.6285292468965,None,1,2022_Apr_22_1446,Semantic-hierachy,2021.1.2,60.08168589156998,
330,Trial # 331,layer0-5_O2_to_O3.jpg,layer0-5/layer0-5_O2_to_O3.jpg,OO,layer0-5,,,,,,,,,0.0,30.0,30.0,30.0,1158.2634976708796,None,1.0,1.8535246150568128,1158.2634976708796,None,1158.2634976708796,None,1158.2634976708796,None,1,2022_Apr_22_1446,Semantic-hierachy,2021.1.2,60.08168589156998,
331,Trial # 332,layer6-8_O1_to_O12.jpg,layer6-8/layer6-8_O1_to_O12.jpg,OO,layer6-8,,,,,,,,,0.0,31.0,31.0,31.0,1160.4966498028953,None,3.0,1.5171224689111114,1160.4966498028953,None,1160.4966498028953,None,1160.4966498028953,None,1,2022_Apr_22_1446,Semantic-hierachy,2021.1.2,60.08168589156998,
332,Trial # 333,layer0-5_O5_to_T12.jpg,layer0-5/layer0-5_O5_to_T12.jpg,OT,layer0-5,,,,,,,,,0.0,32.0,32.0,32.0,1162.7979276219849,None,1.0,3.806921483017504,1162.7979276219849,None,1162.7979276219849,None,1162.7979276219849,None,1,2022_Apr_22_1446,Semantic-hierachy,2021.1.2,60.08168589156998,
333,Trial # 334,layer9-17_O11_to_T6.jpg,layer9-17/layer9-17_O11_to_T6.jpg,OT,layer9-17,,,,,,,,,0.0,33.0,33.0,33.0,1166.8832248218823,None,4.0,2.042110705981031,1166.8832248218823,None,1166.8832248218823,None,1166.8832248218823,None,1,2022_Apr_22_1446,Semantic-hierachy,2021.1.2,60.08168589156998,
334,Trial # 335,layer0-5_O4_to_T1.jpg,layer0-5/layer0-5_O4_to_T1.jpg,OT,layer0-5,,,,,,,,,0.0,34.0,34.0,34.0,1169.2668282079976,None,1.0,2.4737762578297406,1169.2668282079976,None,1169.2668282079976,None,1169.2668282079976,None,1,2022_Apr_22_1446,Semantic-hierachy,2021.1.2,60.08168589156998,
335,Trial # 336,layer6-8_T1_to_T6.jpg,layer6-8/layer6-8_T1_to_T6.jpg,TT,layer6-8,,,,,,,,,0.0,35.0,35.0,35.0,1171.9515645368956,None,4.0,3.004892349941656,1171.9515645368956,None,1171.9515645368956,None,1171.9515645368956,None,1,2022_Apr_22_1446,Semantic-hierachy,2021.1.2,60.08168589156998,
336,Trial # 337,layer0-5_O12_to_O6.jpg,layer0-5/layer0-5_O12_to_O6.jpg,OO,layer0-5,,,,,,,,,0.0,36.0,36.0,36.0,1175.2017852419522,None,1.0,3.5218798681162298,1175.2017852419522,None,1175.2017852419522,None,1175.2017852419522,None,1,2022_Apr_22_1446,Semantic-hierachy,2021.1.2,60.08168589156998,
337,Trial # 338,layer0-5_O1_to_O10.jpg,layer0-5/layer0-5_O1_to_O10.jpg,OO,layer0-5,,,,,,,,,0.0,37.0,37.0,37.0,1178.9197390978225,None,1.0,1.5772534529678524,1178.9197390978225,None,1178.9197390978225,None,1178.9197390978225,None,1,2022_Apr_22_1446,Semantic-hierachy,2021.1.2,60.08168589156998,
338,Trial # 339,layer0-5_O9_to_T9.jpg,layer0-5/layer0-5_O9_to_T9.jpg,OT,layer0-5,,,,,,,,,0.0,38.0,38.0,38.0,1180.853482189821,None,1.0,1.5718417330645025,1180.853482189821,None,1180.853482189821,None,1180.853482189821,None,1,2022_Apr_22_1446,Semantic-hierachy,2021.1.2,60.08168589156998,
339,Trial # 340,layer6-8_O6_to_T10.jpg,layer6-8/layer6-8_O6_to_T10.jpg,OT,layer6-8,,,,,,,,,0.0,39.0,39.0,39.0,1183.2708364478312,None,3.0,2.536581264808774,1183.2708364478312,None,1183.2708364478312,None,1183.2708364478312,None,1,2022_Apr_22_1446,Semantic-hierachy,2021.1.2,60.08168589156998,
340,Trial # 341,layer9-17_O3_to_T3.jpg,layer9-17/layer9-17_O3_to_T3.jpg,OT,layer9-17,,,,,,,,,0.0,40.0,40.0,40.0,1186.155900274869,None,2.0,1.4227719258051366,1186.155900274869,None,1186.155900274869,None,1186.155900274869,None,1,2022_Apr_22_1446,Semantic-hierachy,2021.1.2,60.08168589156998,
341,Trial # 342,layer0-5_O8_to_T8.jpg,layer0-5/layer0-5_O8_to_T8.jpg,OT,layer0-5,,,,,,,,,0.0,41.0,41.0,41.0,1188.0386304159183,None,1.0,2.9398898370563984,1188.0386304159183,None,1188.0386304159183,None,1188.0386304159183,None,1,2022_Apr_22_1446,Semantic-hierachy,2021.1.2,60.08168589156998,
