,Trial_num,image_name,image_path,pair_type,layers,block1.thisRepN,block1.thisTrialN,block1.thisN,block1.thisIndex,block2.thisRepN,block2.thisTrialN,block2.thisN,block2.thisIndex,block3.thisRepN,block3.thisTrialN,block3.thisN,block3.thisIndex,image_8.started,image_8.stopped,selected_semantic.response,selected_semantic.rt,selected_semantic.started,selected_semantic.stopped,Instruction.started,Instruction.stopped,Trial_number.started,Trial_number.stopped,session,date,expName,psychopyVersion,frameRate,Unnamed: 33
0,Trial # 1,layer0-5_O2_to_T1.jpg,layer0-5/layer0-5_O2_to_T1.jpg,OT,layer0-5,0.0,0.0,0.0,0.0,,,,,,,,,45.38564827898517,None,1.0,31.34600799996406,45.38564827898517,None,45.38564827898517,None,45.38564827898517,None,1,2022_Apr_26_1002,Semantic-hierachy,2021.1.2,60.337352118170045,
1,Trial # 2,layer0-5_O11_to_T7.jpg,layer0-5/layer0-5_O11_to_T7.jpg,OT,layer0-5,0.0,1.0,1.0,1.0,,,,,,,,,78.77939456701279,None,1.0,17.16144773736596,78.77939456701279,None,78.77939456701279,None,78.77939456701279,None,1,2022_Apr_26_1002,Semantic-hierachy,2021.1.2,60.337352118170045,
2,Trial # 3,layer6-8_O3_to_O5.jpg,layer6-8/layer6-8_O3_to_O5.jpg,OO,layer6-8,0.0,2.0,2.0,2.0,,,,,,,,,97.58617870602755,None,4.0,4.489868890028447,97.58617870602755,None,97.58617870602755,None,97.58617870602755,None,1,2022_Apr_26_1002,Semantic-hierachy,2021.1.2,60.337352118170045,
3,Trial # 4,layer6-8_O11_to_O4.jpg,layer6-8/layer6-8_O11_to_O4.jpg,OO,layer6-8,0.0,3.0,3.0,3.0,,,,,,,,,103.85421608388424,None,2.0,5.85881785210222,103.85421608388424,None,103.85421608388424,None,103.85421608388424,None,1,2022_Apr_26_1002,Semantic-hierachy,2021.1.2,60.337352118170045,
4,Trial # 5,layer6-8_O8_to_T8.jpg,layer6-8/layer6-8_O8_to_T8.jpg,OT,layer6-8,0.0,4.0,4.0,4.0,,,,,,,,,112.64102472970262,None,4.0,8.075271758716553,112.64102472970262,None,112.64102472970262,None,112.64102472970262,None,1,2022_Apr_26_1002,Semantic-hierachy,2021.1.2,60.337352118170045,
5,Trial # 6,layer0-5_O11_to_O8.jpg,layer0-5/layer0-5_O11_to_O8.jpg,OO,layer0-5,0.0,5.0,5.0,5.0,,,,,,,,,121.70971130067484,None,1.0,17.800032950006425,121.70971130067484,None,121.70971130067484,None,121.70971130067484,None,1,2022_Apr_26_1002,Semantic-hierachy,2021.1.2,60.337352118170045,
6,Trial # 7,layer0-5_T10_to_T11.jpg,layer0-5/layer0-5_T10_to_T11.jpg,TT,layer0-5,0.0,6.0,6.0,6.0,,,,,,,,,140.36588063370436,None,1.0,2.9153869757428765,140.36588063370436,None,140.36588063370436,None,140.36588063370436,None,1,2022_Apr_26_1002,Semantic-hierachy,2021.1.2,60.337352118170045,
7,Trial # 8,layer9-17_O6_to_O9.jpg,layer9-17/layer9-17_O6_to_O9.jpg,OO,layer9-17,0.0,7.0,7.0,7.0,,,,,,,,,144.18322079861537,None,2.0,3.1167864282615483,144.18322079861537,None,144.18322079861537,None,144.18322079861537,None,1,2022_Apr_26_1002,Semantic-hierachy,2021.1.2,60.337352118170045,
8,Trial # 9,layer6-8_O12_to_O9.jpg,layer6-8/layer6-8_O12_to_O9.jpg,OO,layer6-8,0.0,8.0,8.0,8.0,,,,,,,,,148.5348341949284,None,3.0,6.293824482709169,148.5348341949284,None,148.5348341949284,None,148.5348341949284,None,1,2022_Apr_26_1002,Semantic-hierachy,2021.1.2,60.337352118170045,
9,Trial # 10,layer0-5_O10_to_T2.jpg,layer0-5/layer0-5_O10_to_T2.jpg,OT,layer0-5,0.0,9.0,9.0,9.0,,,,,,,,,157.52193894190714,None,4.0,5.870201215147972,157.52193894190714,None,157.52193894190714,None,157.52193894190714,None,1,2022_Apr_26_1002,Semantic-hierachy,2021.1.2,60.337352118170045,
10,Trial # 11,layer9-17_T10_to_T2.jpg,layer9-17/layer9-17_T10_to_T2.jpg,TT,layer9-17,0.0,10.0,10.0,10.0,,,,,,,,,164.52286821370944,None,3.0,8.970761489123106,164.52286821370944,None,164.52286821370944,None,164.52286821370944,None,1,2022_Apr_26_1002,Semantic-hierachy,2021.1.2,60.337352118170045,
11,Trial # 12,layer6-8_T6_to_T7.jpg,layer6-8/layer6-8_T6_to_T7.jpg,TT,layer6-8,0.0,11.0,11.0,11.0,,,,,,,,,174.4424171736464,None,2.0,5.507378884125501,174.4424171736464,None,174.4424171736464,None,174.4424171736464,None,1,2022_Apr_26_1002,Semantic-hierachy,2021.1.2,60.337352118170045,
12,Trial # 13,layer9-17_O10_to_T2.jpg,layer9-17/layer9-17_O10_to_T2.jpg,OT,layer9-17,0.0,12.0,12.0,12.0,,,,,,,,,181.14404467260465,None,2.0,4.047127753030509,181.14404467260465,None,181.14404467260465,None,181.14404467260465,None,1,2022_Apr_26_1002,Semantic-hierachy,2021.1.2,60.337352118170045,
13,Trial # 14,layer6-8_T4_to_T7.jpg,layer6-8/layer6-8_T4_to_T7.jpg,TT,layer6-8,0.0,13.0,13.0,13.0,,,,,,,,,185.9297416526824,None,4.0,3.97290105978027,185.9297416526824,None,185.9297416526824,None,185.9297416526824,None,1,2022_Apr_26_1002,Semantic-hierachy,2021.1.2,60.337352118170045,
14,Trial # 15,layer9-17_O8_to_T2.jpg,layer9-17/layer9-17_O8_to_T2.jpg,OT,layer9-17,0.0,14.0,14.0,14.0,,,,,,,,,192.26577056758103,None,2.0,2.403789484873414,192.26577056758103,None,192.26577056758103,None,192.26577056758103,None,1,2022_Apr_26_1002,Semantic-hierachy,2021.1.2,60.337352118170045,
15,Trial # 16,layer0-5_T6_to_T9.jpg,layer0-5/layer0-5_T6_to_T9.jpg,TT,layer0-5,0.0,15.0,15.0,15.0,,,,,,,,,195.365519459825,None,1.0,2.307437378913164,195.365519459825,None,195.365519459825,None,195.365519459825,None,1,2022_Apr_26_1002,Semantic-hierachy,2021.1.2,60.337352118170045,
16,Trial # 17,layer0-5_O11_to_O12.jpg,layer0-5/layer0-5_O11_to_O12.jpg,OO,layer0-5,0.0,16.0,16.0,16.0,,,,,,,,,198.46778453188017,None,1.0,1.97027639625594,198.46778453188017,None,198.46778453188017,None,198.46778453188017,None,1,2022_Apr_26_1002,Semantic-hierachy,2021.1.2,60.337352118170045,
17,Trial # 18,layer0-5_T11_to_T5.jpg,layer0-5/layer0-5_T11_to_T5.jpg,TT,layer0-5,0.0,17.0,17.0,17.0,,,,,,,,,200.96732584387064,None,1.0,1.6083850101567805,200.96732584387064,None,200.96732584387064,None,200.96732584387064,None,1,2022_Apr_26_1002,Semantic-hierachy,2021.1.2,60.337352118170045,
18,Trial # 19,layer0-5_O6_to_T12.jpg,layer0-5/layer0-5_O6_to_T12.jpg,OT,layer0-5,0.0,18.0,18.0,18.0,,,,,,,,,203.55267215473577,None,1.0,1.974225585348904,203.55267215473577,None,203.55267215473577,None,203.55267215473577,None,1,2022_Apr_26_1002,Semantic-hierachy,2021.1.2,60.337352118170045,
19,Trial # 20,layer6-8_T6_to_T8.jpg,layer6-8/layer6-8_T6_to_T8.jpg,TT,layer6-8,0.0,19.0,19.0,19.0,,,,,,,,,206.1866904827766,None,3.0,4.758061550091952,206.1866904827766,None,206.1866904827766,None,206.1866904827766,None,1,2022_Apr_26_1002,Semantic-hierachy,2021.1.2,60.337352118170045,
20,Trial # 21,layer9-17_T2_to_T5.jpg,layer9-17/layer9-17_T2_to_T5.jpg,TT,layer9-17,0.0,20.0,20.0,20.0,,,,,,,,,211.5038165538572,None,2.0,2.1253598360344768,211.5038165538572,None,211.5038165538572,None,211.5038165538572,None,1,2022_Apr_26_1002,Semantic-hierachy,2021.1.2,60.337352118170045,
21,Trial # 22,layer6-8_O2_to_O6.jpg,layer6-8/layer6-8_O2_to_O6.jpg,OO,layer6-8,0.0,21.0,21.0,21.0,,,,,,,,,214.22201260970903,None,2.0,5.074359376914799,214.22201260970903,None,214.22201260970903,None,214.22201260970903,None,1,2022_Apr_26_1002,Semantic-hierachy,2021.1.2,60.337352118170045,
22,Trial # 23,layer9-17_O3_to_T12.jpg,layer9-17/layer9-17_O3_to_T12.jpg,OT,layer9-17,0.0,22.0,22.0,22.0,,,,,,,,,221.04056036984548,None,2.0,2.002979764249176,221.04056036984548,None,221.04056036984548,None,221.04056036984548,None,1,2022_Apr_26_1002,Semantic-hierachy,2021.1.2,60.337352118170045,
23,Trial # 24,layer0-5_O11_to_O3.jpg,layer0-5/layer0-5_O11_to_O3.jpg,OO,layer0-5,0.0,23.0,23.0,23.0,,,,,,,,,223.55891144182533,None,1.0,1.8266094527207315,223.55891144182533,None,223.55891144182533,None,223.55891144182533,None,1,2022_Apr_26_1002,Semantic-hierachy,2021.1.2,60.337352118170045,
24,Trial # 25,layer6-8_O2_to_O9.jpg,layer6-8/layer6-8_O2_to_O9.jpg,OO,layer6-8,0.0,24.0,24.0,24.0,,,,,,,,,225.77490697288889,None,4.0,3.0382083356380463,225.77490697288889,None,225.77490697288889,None,225.77490697288889,None,1,2022_Apr_26_1002,Semantic-hierachy,2021.1.2,60.337352118170045,
25,Trial # 26,layer9-17_O10_to_O8.jpg,layer9-17/layer9-17_O10_to_O8.jpg,OO,layer9-17,0.0,25.0,25.0,25.0,,,,,,,,,229.09314469061792,None,3.0,4.192276269197464,229.09314469061792,None,229.09314469061792,None,229.09314469061792,None,1,2022_Apr_26_1002,Semantic-hierachy,2021.1.2,60.337352118170045,
26,Trial # 27,layer9-17_T4_to_T6.jpg,layer9-17/layer9-17_T4_to_T6.jpg,TT,layer9-17,0.0,26.0,26.0,26.0,,,,,,,,,234.3111290265806,None,2.0,1.8733425890095527,234.3111290265806,None,234.3111290265806,None,234.3111290265806,None,1,2022_Apr_26_1002,Semantic-hierachy,2021.1.2,60.337352118170045,
27,Trial # 28,layer6-8_O7_to_T8.jpg,layer6-8/layer6-8_O7_to_T8.jpg,OT,layer6-8,0.0,27.0,27.0,27.0,,,,,,,,,237.8301717247814,None,2.0,2.006773775909096,237.8301717247814,None,237.8301717247814,None,237.8301717247814,None,1,2022_Apr_26_1002,Semantic-hierachy,2021.1.2,60.337352118170045,
28,Trial # 29,layer6-8_T4_to_T5.jpg,layer6-8/layer6-8_T4_to_T5.jpg,TT,layer6-8,0.0,28.0,28.0,28.0,,,,,,,,,240.36343767261133,None,4.0,4.315758602228016,240.36343767261133,None,240.36343767261133,None,240.36343767261133,None,1,2022_Apr_26_1002,Semantic-hierachy,2021.1.2,60.337352118170045,
29,Trial # 30,layer6-8_T10_to_T9.jpg,layer6-8/layer6-8_T10_to_T9.jpg,TT,layer6-8,0.0,29.0,29.0,29.0,,,,,,,,,245.6475756280124,None,3.0,5.690590435639024,245.6475756280124,None,245.6475756280124,None,245.6475756280124,None,1,2022_Apr_26_1002,Semantic-hierachy,2021.1.2,60.337352118170045,
30,Trial # 31,layer9-17_O1_to_O8.jpg,layer9-17/layer9-17_O1_to_O8.jpg,OO,layer9-17,0.0,30.0,30.0,30.0,,,,,,,,,251.66640236601236,None,4.0,2.8561366759240627,251.66640236601236,None,251.66640236601236,None,251.66640236601236,None,1,2022_Apr_26_1002,Semantic-hierachy,2021.1.2,60.337352118170045,
31,Trial # 32,layer9-17_O12_to_O7.jpg,layer9-17/layer9-17_O12_to_O7.jpg,OO,layer9-17,0.0,31.0,31.0,31.0,,,,,,,,,255.1677040248178,None,4.0,1.939802838023752,255.1677040248178,None,255.1677040248178,None,255.1677040248178,None,1,2022_Apr_26_1002,Semantic-hierachy,2021.1.2,60.337352118170045,
32,Trial # 33,layer9-17_T10_to_T12.jpg,layer9-17/layer9-17_T10_to_T12.jpg,TT,layer9-17,0.0,32.0,32.0,32.0,,,,,,,,,257.5692501007579,None,3.0,7.645827296655625,257.5692501007579,None,257.5692501007579,None,257.5692501007579,None,1,2022_Apr_26_1002,Semantic-hierachy,2021.1.2,60.337352118170045,
33,Trial # 34,layer0-5_T2_to_T6.jpg,layer0-5/layer0-5_T2_to_T6.jpg,TT,layer0-5,0.0,33.0,33.0,33.0,,,,,,,,,265.9371524588205,None,1.0,7.791857922915369,265.9371524588205,None,265.9371524588205,None,265.9371524588205,None,1,2022_Apr_26_1002,Semantic-hierachy,2021.1.2,60.337352118170045,
34,Trial # 35,layer6-8_T11_to_T2.jpg,layer6-8/layer6-8_T11_to_T2.jpg,TT,layer6-8,0.0,34.0,34.0,34.0,,,,,,,,,274.9238939518109,None,4.0,2.813955076038837,274.9238939518109,None,274.9238939518109,None,274.9238939518109,None,1,2022_Apr_26_1002,Semantic-hierachy,2021.1.2,60.337352118170045,
35,Trial # 36,layer6-8_O4_to_T3.jpg,layer6-8/layer6-8_O4_to_T3.jpg,OT,layer6-8,0.0,35.0,35.0,35.0,,,,,,,,,278.442368991673,None,3.0,3.356852635741234,278.442368991673,None,278.442368991673,None,278.442368991673,None,1,2022_Apr_26_1002,Semantic-hierachy,2021.1.2,60.337352118170045,
36,Trial # 37,layer6-8_O3_to_T11.jpg,layer6-8/layer6-8_O3_to_T11.jpg,OT,layer6-8,0.0,36.0,36.0,36.0,,,,,,,,,282.8274834896438,None,2.0,2.6233664639294147,282.8274834896438,None,282.8274834896438,None,282.8274834896438,None,1,2022_Apr_26_1002,Semantic-hierachy,2021.1.2,60.337352118170045,
37,Trial # 38,layer6-8_T1_to_T2.jpg,layer6-8/layer6-8_T1_to_T2.jpg,TT,layer6-8,0.0,37.0,37.0,37.0,,,,,,,,,286.02747037494555,None,4.0,4.422441582195461,286.02747037494555,None,286.02747037494555,None,286.02747037494555,None,1,2022_Apr_26_1002,Semantic-hierachy,2021.1.2,60.337352118170045,
38,Trial # 39,layer9-17_O2_to_O6.jpg,layer9-17/layer9-17_O2_to_O6.jpg,OO,layer9-17,0.0,38.0,38.0,38.0,,,,,,,,,291.0621488979086,None,4.0,12.89918973017484,291.0621488979086,None,291.0621488979086,None,291.0621488979086,None,1,2022_Apr_26_1002,Semantic-hierachy,2021.1.2,60.337352118170045,
39,Trial # 40,layer9-17_O4_to_T2.jpg,layer9-17/layer9-17_O4_to_T2.jpg,OT,layer9-17,0.0,39.0,39.0,39.0,,,,,,,,,304.4837921159342,None,2.0,1.7709338050335646,304.4837921159342,None,304.4837921159342,None,304.4837921159342,None,1,2022_Apr_26_1002,Semantic-hierachy,2021.1.2,60.337352118170045,
40,Trial # 41,layer6-8_O5_to_T3.jpg,layer6-8/layer6-8_O5_to_T3.jpg,OT,layer6-8,0.0,40.0,40.0,40.0,,,,,,,,,309.9350968808867,None,3.0,2.659709190018475,309.9350968808867,None,309.9350968808867,None,309.9350968808867,None,1,2022_Apr_26_1002,Semantic-hierachy,2021.1.2,60.337352118170045,
41,Trial # 42,layer6-8_O2_to_O3.jpg,layer6-8/layer6-8_O2_to_O3.jpg,OO,layer6-8,0.0,41.0,41.0,41.0,,,,,,,,,313.219255078584,None,2.0,3.3138367529027164,313.219255078584,None,313.219255078584,None,313.219255078584,None,1,2022_Apr_26_1002,Semantic-hierachy,2021.1.2,60.337352118170045,
42,Trial # 43,layer6-8_O1_to_T6.jpg,layer6-8/layer6-8_O1_to_T6.jpg,OT,layer6-8,0.0,42.0,42.0,42.0,,,,,,,,,317.80436944495887,None,2.0,1.7123871380463245,317.80436944495887,None,317.80436944495887,None,317.80436944495887,None,1,2022_Apr_26_1002,Semantic-hierachy,2021.1.2,60.337352118170045,
43,Trial # 44,layer6-8_O2_to_T12.jpg,layer6-8/layer6-8_O2_to_T12.jpg,OT,layer6-8,0.0,43.0,43.0,43.0,,,,,,,,,320.4220181237906,None,3.0,4.158426315058023,320.4220181237906,None,320.4220181237906,None,320.4220181237906,None,1,2022_Apr_26_1002,Semantic-hierachy,2021.1.2,60.337352118170045,
44,Trial # 45,layer9-17_O2_to_O8.jpg,layer9-17/layer9-17_O2_to_O8.jpg,OO,layer9-17,0.0,44.0,44.0,44.0,,,,,,,,,325.13970532873645,None,4.0,3.803608972579241,325.13970532873645,None,325.13970532873645,None,325.13970532873645,None,1,2022_Apr_26_1002,Semantic-hierachy,2021.1.2,60.337352118170045,
45,Trial # 46,layer9-17_O10_to_O4.jpg,layer9-17/layer9-17_O10_to_O4.jpg,OO,layer9-17,0.0,45.0,45.0,45.0,,,,,,,,,329.5748184756376,None,2.0,6.925100133754313,329.5748184756376,None,329.5748184756376,None,329.5748184756376,None,1,2022_Apr_26_1002,Semantic-hierachy,2021.1.2,60.337352118170045,
46,Trial # 47,layer0-5_O1_to_O4.jpg,layer0-5/layer0-5_O1_to_O4.jpg,OO,layer0-5,0.0,46.0,46.0,46.0,,,,,,,,,336.7934475429356,None,1.0,2.575671060010791,336.7934475429356,None,336.7934475429356,None,336.7934475429356,None,1,2022_Apr_26_1002,Semantic-hierachy,2021.1.2,60.337352118170045,
47,Trial # 48,layer0-5_T4_to_T5.jpg,layer0-5/layer0-5_T4_to_T5.jpg,TT,layer0-5,0.0,47.0,47.0,47.0,,,,,,,,,339.6940416377038,None,1.0,3.676237370818853,339.6940416377038,None,339.6940416377038,None,339.6940416377038,None,1,2022_Apr_26_1002,Semantic-hierachy,2021.1.2,60.337352118170045,
48,Trial # 49,layer9-17_T12_to_T8.jpg,layer9-17/layer9-17_T12_to_T8.jpg,TT,layer9-17,0.0,48.0,48.0,48.0,,,,,,,,,344.47927903663367,None,2.0,2.5883934227749705,344.47927903663367,None,344.47927903663367,None,344.47927903663367,None,1,2022_Apr_26_1002,Semantic-hierachy,2021.1.2,60.337352118170045,
49,Trial # 50,layer0-5_T10_to_T5.jpg,layer0-5/layer0-5_T10_to_T5.jpg,TT,layer0-5,0.0,49.0,49.0,49.0,,,,,,,,,347.7464570738375,None,1.0,4.289150724187493,347.7464570738375,None,347.7464570738375,None,347.7464570738375,None,1,2022_Apr_26_1002,Semantic-hierachy,2021.1.2,60.337352118170045,
50,Trial # 51,layer6-8_O10_to_O8.jpg,layer6-8/layer6-8_O10_to_O8.jpg,OO,layer6-8,0.0,50.0,50.0,50.0,,,,,,,,,352.4993009236641,None,4.0,9.073335996828972,352.4993009236641,None,352.4993009236641,None,352.4993009236641,None,1,2022_Apr_26_1002,Semantic-hierachy,2021.1.2,60.337352118170045,
51,Trial # 52,layer9-17_O3_to_O5.jpg,layer9-17/layer9-17_O3_to_O5.jpg,OO,layer9-17,0.0,51.0,51.0,51.0,,,,,,,,,362.4344091056846,None,2.0,1.7951579899527133,362.4344091056846,None,362.4344091056846,None,362.4344091056846,None,1,2022_Apr_26_1002,Semantic-hierachy,2021.1.2,60.337352118170045,
52,Trial # 53,layer6-8_T1_to_T12.jpg,layer6-8/layer6-8_T1_to_T12.jpg,TT,layer6-8,0.0,52.0,52.0,52.0,,,,,,,,,365.9520911779255,None,3.0,3.338561262004077,365.9520911779255,None,365.9520911779255,None,365.9520911779255,None,1,2022_Apr_26_1002,Semantic-hierachy,2021.1.2,60.337352118170045,
53,Trial # 54,layer0-5_O4_to_O9.jpg,layer0-5/layer0-5_O4_to_O9.jpg,OO,layer0-5,0.0,53.0,53.0,53.0,,,,,,,,,369.63670005090535,None,1.0,4.3978711371310055,369.63670005090535,None,369.63670005090535,None,369.63670005090535,None,1,2022_Apr_26_1002,Semantic-hierachy,2021.1.2,60.337352118170045,
54,Trial # 55,layer0-5_O5_to_O9.jpg,layer0-5/layer0-5_O5_to_O9.jpg,OO,layer0-5,0.0,54.0,54.0,54.0,,,,,,,,,374.5383458929136,None,1.0,9.845095360185953,374.5383458929136,None,374.5383458929136,None,374.5383458929136,None,1,2022_Apr_26_1002,Semantic-hierachy,2021.1.2,60.337352118170045,
55,Trial # 56,layer0-5_O1_to_O2.jpg,layer0-5/layer0-5_O1_to_O2.jpg,OO,layer0-5,0.0,55.0,55.0,55.0,,,,,,,,,384.7079016957432,None,1.0,1.571999236010015,384.7079016957432,None,384.7079016957432,None,384.7079016957432,None,1,2022_Apr_26_1002,Semantic-hierachy,2021.1.2,60.337352118170045,
56,Trial # 57,layer9-17_T12_to_T3.jpg,layer9-17/layer9-17_T12_to_T3.jpg,TT,layer9-17,0.0,56.0,56.0,56.0,,,,,,,,,386.9598068296909,None,2.0,2.5352874151431024,386.9598068296909,None,386.9598068296909,None,386.9598068296909,None,1,2022_Apr_26_1002,Semantic-hierachy,2021.1.2,60.337352118170045,
57,Trial # 58,layer0-5_O7_to_O9.jpg,layer0-5/layer0-5_O7_to_O9.jpg,OO,layer0-5,0.0,57.0,57.0,57.0,,,,,,,,,389.87597947660834,None,1.0,2.6895130570046604,389.87597947660834,None,389.87597947660834,None,389.87597947660834,None,1,2022_Apr_26_1002,Semantic-hierachy,2021.1.2,60.337352118170045,
58,Trial # 59,layer0-5_T5_to_T9.jpg,layer0-5/layer0-5_T5_to_T9.jpg,TT,layer0-5,0.0,58.0,58.0,58.0,,,,,,,,,393.1783382026479,None,1.0,2.594124163035304,393.1783382026479,None,393.1783382026479,None,393.1783382026479,None,1,2022_Apr_26_1002,Semantic-hierachy,2021.1.2,60.337352118170045,
59,Trial # 60,layer9-17_O1_to_O9.jpg,layer9-17/layer9-17_O1_to_O9.jpg,OO,layer9-17,0.0,59.0,59.0,59.0,,,,,,,,,396.1948187625967,None,4.0,5.691756094340235,396.1948187625967,None,396.1948187625967,None,396.1948187625967,None,1,2022_Apr_26_1002,Semantic-hierachy,2021.1.2,60.337352118170045,
60,Trial # 61,layer0-5_O6_to_O7.jpg,layer0-5/layer0-5_O6_to_O7.jpg,OO,layer0-5,0.0,60.0,60.0,60.0,,,,,,,,,402.264071745798,None,1.0,5.207152866758406,402.264071745798,None,402.264071745798,None,402.264071745798,None,1,2022_Apr_26_1002,Semantic-hierachy,2021.1.2,60.337352118170045,
61,Trial # 62,layer9-17_T5_to_T6.jpg,layer9-17/layer9-17_T5_to_T6.jpg,TT,layer9-17,0.0,61.0,61.0,61.0,,,,,,,,,408.03210740862414,None,2.0,6.906779493205249,408.03210740862414,None,408.03210740862414,None,408.03210740862414,None,1,2022_Apr_26_1002,Semantic-hierachy,2021.1.2,60.337352118170045,
62,Trial # 63,layer9-17_T4_to_T9.jpg,layer9-17/layer9-17_T4_to_T9.jpg,TT,layer9-17,0.0,62.0,62.0,62.0,,,,,,,,,415.6513568209484,None,2.0,1.4613422020338476,415.6513568209484,None,415.6513568209484,None,415.6513568209484,None,1,2022_Apr_26_1002,Semantic-hierachy,2021.1.2,60.337352118170045,
63,Trial # 64,layer0-5_O11_to_T1.jpg,layer0-5/layer0-5_O11_to_T1.jpg,OT,layer0-5,0.0,63.0,63.0,63.0,,,,,,,,,417.4517795816064,None,1.0,1.8268521879799664,417.4517795816064,None,417.4517795816064,None,417.4517795816064,None,1,2022_Apr_26_1002,Semantic-hierachy,2021.1.2,60.337352118170045,
64,Trial # 65,layer6-8_T5_to_T9.jpg,layer6-8/layer6-8_T5_to_T9.jpg,TT,layer6-8,0.0,64.0,64.0,64.0,,,,,,,,,420.3853610148653,None,4.0,4.175760826095939,420.3853610148653,None,420.3853610148653,None,420.3853610148653,None,1,2022_Apr_26_1002,Semantic-hierachy,2021.1.2,60.337352118170045,
65,Trial # 66,layer0-5_T4_to_T7.jpg,layer0-5/layer0-5_T4_to_T7.jpg,TT,layer0-5,0.0,65.0,65.0,65.0,,,,,,,,,424.8371563260444,None,1.0,2.3588407998904586,424.8371563260444,None,424.8371563260444,None,424.8371563260444,None,1,2022_Apr_26_1002,Semantic-hierachy,2021.1.2,60.337352118170045,
66,Trial # 67,layer0-5_O2_to_O6.jpg,layer0-5/layer0-5_O2_to_O6.jpg,OO,layer0-5,0.0,66.0,66.0,66.0,,,,,,,,,427.7891065687873,None,1.0,1.596071490086615,427.7891065687873,None,427.7891065687873,None,427.7891065687873,None,1,2022_Apr_26_1002,Semantic-hierachy,2021.1.2,60.337352118170045,
67,Trial # 68,layer9-17_O12_to_T3.jpg,layer9-17/layer9-17_O12_to_T3.jpg,OT,layer9-17,0.0,67.0,67.0,67.0,,,,,,,,,429.97206787392497,None,2.0,1.6617297772318125,429.97206787392497,None,429.97206787392497,None,429.97206787392497,None,1,2022_Apr_26_1002,Semantic-hierachy,2021.1.2,60.337352118170045,
68,Trial # 69,layer9-17_O7_to_O9.jpg,layer9-17/layer9-17_O7_to_O9.jpg,OO,layer9-17,0.0,68.0,68.0,68.0,,,,,,,,,432.0566700459458,None,4.0,3.127083062659949,432.0566700459458,None,432.0566700459458,None,432.0566700459458,None,1,2022_Apr_26_1002,Semantic-hierachy,2021.1.2,60.337352118170045,
69,Trial # 70,layer9-17_T1_to_T8.jpg,layer9-17/layer9-17_T1_to_T8.jpg,TT,layer9-17,0.0,69.0,69.0,69.0,,,,,,,,,435.790405144915,None,3.0,3.138100271113217,435.790405144915,None,435.790405144915,None,435.790405144915,None,1,2022_Apr_26_1002,Semantic-hierachy,2021.1.2,60.337352118170045,
70,Trial # 71,layer0-5_O3_to_T8.jpg,layer0-5/layer0-5_O3_to_T8.jpg,OT,layer0-5,0.0,70.0,70.0,70.0,,,,,,,,,439.37498510302976,None,1.0,5.211973348632455,439.37498510302976,None,439.37498510302976,None,439.37498510302976,None,1,2022_Apr_26_1002,Semantic-hierachy,2021.1.2,60.337352118170045,
71,Trial # 72,layer9-17_O9_to_T2.jpg,layer9-17/layer9-17_O9_to_T2.jpg,OT,layer9-17,0.0,71.0,71.0,71.0,,,,,,,,,444.97682900261134,None,4.0,2.7295335438102484,444.97682900261134,None,444.97682900261134,None,444.97682900261134,None,1,2022_Apr_26_1002,Semantic-hierachy,2021.1.2,60.337352118170045,
72,Trial # 73,layer9-17_O5_to_O7.jpg,layer9-17/layer9-17_O5_to_O7.jpg,OO,layer9-17,0.0,72.0,72.0,72.0,,,,,,,,,448.2956767398864,None,2.0,2.840525412000716,448.2956767398864,None,448.2956767398864,None,448.2956767398864,None,1,2022_Apr_26_1002,Semantic-hierachy,2021.1.2,60.337352118170045,
73,Trial # 74,layer0-5_T11_to_T9.jpg,layer0-5/layer0-5_T11_to_T9.jpg,TT,layer0-5,0.0,73.0,73.0,73.0,,,,,,,,,451.694767806679,None,1.0,1.769125540740788,451.694767806679,None,451.694767806679,None,451.694767806679,None,1,2022_Apr_26_1002,Semantic-hierachy,2021.1.2,60.337352118170045,
74,Trial # 75,layer0-5_O11_to_T12.jpg,layer0-5/layer0-5_O11_to_T12.jpg,OT,layer0-5,0.0,74.0,74.0,74.0,,,,,,,,,453.9127012938261,None,1.0,1.761198978871107,453.9127012938261,None,453.9127012938261,None,453.9127012938261,None,1,2022_Apr_26_1002,Semantic-hierachy,2021.1.2,60.337352118170045,
75,Trial # 76,layer9-17_T7_to_T9.jpg,layer9-17/layer9-17_T7_to_T9.jpg,TT,layer9-17,0.0,75.0,75.0,75.0,,,,,,,,,456.0472506657243,None,4.0,6.290512003004551,456.0472506657243,None,456.0472506657243,None,456.0472506657243,None,1,2022_Apr_26_1002,Semantic-hierachy,2021.1.2,60.337352118170045,
76,Trial # 77,layer6-8_O6_to_T2.jpg,layer6-8/layer6-8_O6_to_T2.jpg,OT,layer6-8,0.0,76.0,76.0,76.0,,,,,,,,,463.01588011486456,None,4.0,8.278001628350466,463.01588011486456,None,463.01588011486456,None,463.01588011486456,None,1,2022_Apr_26_1002,Semantic-hierachy,2021.1.2,60.337352118170045,
77,Trial # 78,layer9-17_T4_to_T5.jpg,layer9-17/layer9-17_T4_to_T5.jpg,TT,layer9-17,0.0,77.0,77.0,77.0,,,,,,,,,472.2529917997308,None,4.0,3.1963350628502667,472.2529917997308,None,472.2529917997308,None,472.2529917997308,None,1,2022_Apr_26_1002,Semantic-hierachy,2021.1.2,60.337352118170045,
78,Trial # 79,layer0-5_T2_to_T4.jpg,layer0-5/layer0-5_T2_to_T4.jpg,TT,layer0-5,0.0,78.0,78.0,78.0,,,,,,,,,476.1025714916177,None,1.0,2.476587484125048,476.1025714916177,None,476.1025714916177,None,476.1025714916177,None,1,2022_Apr_26_1002,Semantic-hierachy,2021.1.2,60.337352118170045,
79,Trial # 80,layer0-5_T2_to_T8.jpg,layer0-5/layer0-5_T2_to_T8.jpg,TT,layer0-5,0.0,79.0,79.0,79.0,,,,,,,,,479.1876077326015,None,1.0,1.6572096133604646,479.1876077326015,None,479.1876077326015,None,479.1876077326015,None,1,2022_Apr_26_1002,Semantic-hierachy,2021.1.2,60.337352118170045,
80,Trial # 81,layer9-17_T3_to_T9.jpg,layer9-17/layer9-17_T3_to_T9.jpg,TT,layer9-17,0.0,80.0,80.0,80.0,,,,,,,,,481.47150826081634,None,2.0,2.8107830029912293,481.47150826081634,None,481.47150826081634,None,481.47150826081634,None,1,2022_Apr_26_1002,Semantic-hierachy,2021.1.2,60.337352118170045,
81,Trial # 82,layer9-17_O2_to_O5.jpg,layer9-17/layer9-17_O2_to_O5.jpg,OO,layer9-17,0.0,81.0,81.0,81.0,,,,,,,,,484.8889466426335,None,2.0,1.5027736788615584,484.8889466426335,None,484.8889466426335,None,484.8889466426335,None,1,2022_Apr_26_1002,Semantic-hierachy,2021.1.2,60.337352118170045,
82,Trial # 83,layer6-8_O6_to_O7.jpg,layer6-8/layer6-8_O6_to_O7.jpg,OO,layer6-8,0.0,82.0,82.0,82.0,,,,,,,,,486.8733257157728,None,4.0,2.844131973106414,486.8733257157728,None,486.8733257157728,None,486.8733257157728,None,1,2022_Apr_26_1002,Semantic-hierachy,2021.1.2,60.337352118170045,
83,Trial # 84,layer9-17_O11_to_T1.jpg,layer9-17/layer9-17_O11_to_T1.jpg,OT,layer9-17,0.0,83.0,83.0,83.0,,,,,,,,,493.79296301677823,None,2.0,1.828963549807668,493.79296301677823,None,493.79296301677823,None,493.79296301677823,None,1,2022_Apr_26_1002,Semantic-hierachy,2021.1.2,60.337352118170045,
84,Trial # 85,layer6-8_O5_to_T12.jpg,layer6-8/layer6-8_O5_to_T12.jpg,OT,layer6-8,0.0,84.0,84.0,84.0,,,,,,,,,496.0596239897423,None,3.0,2.9655290162190795,496.0596239897423,None,496.0596239897423,None,496.0596239897423,None,1,2022_Apr_26_1002,Semantic-hierachy,2021.1.2,60.337352118170045,
85,Trial # 86,layer6-8_O4_to_O7.jpg,layer6-8/layer6-8_O4_to_O7.jpg,OO,layer6-8,0.0,85.0,85.0,85.0,,,,,,,,,500.1270959209651,None,4.0,2.679478804115206,500.1270959209651,None,500.1270959209651,None,500.1270959209651,None,1,2022_Apr_26_1002,Semantic-hierachy,2021.1.2,60.337352118170045,
86,Trial # 87,layer6-8_T10_to_T8.jpg,layer6-8/layer6-8_T10_to_T8.jpg,TT,layer6-8,0.0,86.0,86.0,86.0,,,,,,,,,503.6293929857202,None,2.0,3.421956854872405,503.6293929857202,None,503.6293929857202,None,503.6293929857202,None,1,2022_Apr_26_1002,Semantic-hierachy,2021.1.2,60.337352118170045,
87,Trial # 88,layer6-8_O10_to_T3.jpg,layer6-8/layer6-8_O10_to_T3.jpg,OT,layer6-8,0.0,87.0,87.0,87.0,,,,,,,,,507.6128076449968,None,3.0,2.9787796856835485,507.6128076449968,None,507.6128076449968,None,507.6128076449968,None,1,2022_Apr_26_1002,Semantic-hierachy,2021.1.2,60.337352118170045,
88,Trial # 89,layer6-8_O5_to_O9.jpg,layer6-8/layer6-8_O5_to_O9.jpg,OO,layer6-8,0.0,88.0,88.0,88.0,,,,,,,,,512.248673346825,None,4.0,3.3579717739485204,512.248673346825,None,512.248673346825,None,512.248673346825,None,1,2022_Apr_26_1002,Semantic-hierachy,2021.1.2,60.337352118170045,
89,Trial # 90,layer6-8_O10_to_O11.jpg,layer6-8/layer6-8_O10_to_O11.jpg,OO,layer6-8,0.0,89.0,89.0,89.0,,,,,,,,,516.4986913418397,None,3.0,8.713081280700862,516.4986913418397,None,516.4986913418397,None,516.4986913418397,None,1,2022_Apr_26_1002,Semantic-hierachy,2021.1.2,60.337352118170045,
90,Trial # 91,layer0-5_O4_to_T5.jpg,layer0-5/layer0-5_O4_to_T5.jpg,OT,layer0-5,0.0,90.0,90.0,90.0,,,,,,,,,526.4853011607192,None,1.0,2.1395706166513264,526.4853011607192,None,526.4853011607192,None,526.4853011607192,None,1,2022_Apr_26_1002,Semantic-hierachy,2021.1.2,60.337352118170045,
91,Trial # 92,layer0-5_T11_to_T12.jpg,layer0-5/layer0-5_T11_to_T12.jpg,TT,layer0-5,0.0,91.0,91.0,91.0,,,,,,,,,529.5195170626976,None,1.0,2.5167767838574946,529.5195170626976,None,529.5195170626976,None,529.5195170626976,None,1,2022_Apr_26_1002,Semantic-hierachy,2021.1.2,60.337352118170045,
92,Trial # 93,layer0-5_T10_to_T3.jpg,layer0-5/layer0-5_T10_to_T3.jpg,TT,layer0-5,0.0,92.0,92.0,92.0,,,,,,,,,533.6052495036274,None,1.0,1.6098294840194285,533.6052495036274,None,533.6052495036274,None,533.6052495036274,None,1,2022_Apr_26_1002,Semantic-hierachy,2021.1.2,60.337352118170045,
93,Trial # 94,layer0-5_O2_to_O8.jpg,layer0-5/layer0-5_O2_to_O8.jpg,OO,layer0-5,0.0,93.0,93.0,93.0,,,,,,,,,536.0380211719312,None,1.0,1.3125153160654008,536.0380211719312,None,536.0380211719312,None,536.0380211719312,None,1,2022_Apr_26_1002,Semantic-hierachy,2021.1.2,60.337352118170045,
94,Trial # 95,layer0-5_T3_to_T8.jpg,layer0-5/layer0-5_T3_to_T8.jpg,TT,layer0-5,0.0,94.0,94.0,94.0,,,,,,,,,538.0056144869886,None,1.0,1.6581446202471852,538.0056144869886,None,538.0056144869886,None,538.0056144869886,None,1,2022_Apr_26_1002,Semantic-hierachy,2021.1.2,60.337352118170045,
95,Trial # 96,layer0-5_O7_to_O8.jpg,layer0-5/layer0-5_O7_to_O8.jpg,OO,layer0-5,0.0,95.0,95.0,95.0,,,,,,,,,540.5228235130198,None,1.0,2.8132904930971563,540.5228235130198,None,540.5228235130198,None,540.5228235130198,None,1,2022_Apr_26_1002,Semantic-hierachy,2021.1.2,60.337352118170045,
96,Trial # 97,layer6-8_T10_to_T6.jpg,layer6-8/layer6-8_T10_to_T6.jpg,TT,layer6-8,0.0,96.0,96.0,96.0,,,,,,,,,544.5406625466421,None,2.0,9.499135117046537,544.5406625466421,None,544.5406625466421,None,544.5406625466421,None,1,2022_Apr_26_1002,Semantic-hierachy,2021.1.2,60.337352118170045,
97,Trial # 98,layer0-5_O1_to_O5.jpg,layer0-5/layer0-5_O1_to_O5.jpg,OO,layer0-5,0.0,97.0,97.0,97.0,,,,,,,,,554.5102980667725,None,1.0,1.844710526056588,554.5102980667725,None,554.5102980667725,None,554.5102980667725,None,1,2022_Apr_26_1002,Semantic-hierachy,2021.1.2,60.337352118170045,
98,Trial # 99,layer6-8_O1_to_O6.jpg,layer6-8/layer6-8_O1_to_O6.jpg,OO,layer6-8,0.0,98.0,98.0,98.0,,,,,,,,,556.9958665887825,None,4.0,2.8797068423591554,556.9958665887825,None,556.9958665887825,None,556.9958665887825,None,1,2022_Apr_26_1002,Semantic-hierachy,2021.1.2,60.337352118170045,
99,Trial # 100,layer6-8_O3_to_T1.jpg,layer6-8/layer6-8_O3_to_T1.jpg,OT,layer6-8,0.0,99.0,99.0,99.0,,,,,,,,,560.412134306971,None,3.0,2.229410749860108,560.412134306971,None,560.412134306971,None,560.412134306971,None,1,2022_Apr_26_1002,Semantic-hierachy,2021.1.2,60.337352118170045,
100,Trial # 101,layer6-8_T1_to_T9.jpg,layer6-8/layer6-8_T1_to_T9.jpg,TT,layer6-8,0.0,100.0,100.0,100.0,,,,,,,,,563.6470050108619,None,4.0,3.259988183155656,563.6470050108619,None,563.6470050108619,None,563.6470050108619,None,1,2022_Apr_26_1002,Semantic-hierachy,2021.1.2,60.337352118170045,
101,Trial # 102,layer9-17_O12_to_O6.jpg,layer9-17/layer9-17_O12_to_O6.jpg,OO,layer9-17,0.0,101.0,101.0,101.0,,,,,,,,,567.9325576908886,None,2.0,2.1226314469240606,567.9325576908886,None,567.9325576908886,None,567.9325576908886,None,1,2022_Apr_26_1002,Semantic-hierachy,2021.1.2,60.337352118170045,
102,Trial # 103,layer0-5_T4_to_T9.jpg,layer0-5/layer0-5_T4_to_T9.jpg,TT,layer0-5,0.0,102.0,102.0,102.0,,,,,,,,,570.5995261757635,None,1.0,1.8812909391708672,570.5995261757635,None,570.5995261757635,None,570.5995261757635,None,1,2022_Apr_26_1002,Semantic-hierachy,2021.1.2,60.337352118170045,
103,Trial # 104,layer6-8_O10_to_T1.jpg,layer6-8/layer6-8_O10_to_T1.jpg,OT,layer6-8,0.0,103.0,103.0,103.0,,,,,,,,,573.5341182500124,None,3.0,10.648866292089224,573.5341182500124,None,573.5341182500124,None,573.5341182500124,None,1,2022_Apr_26_1002,Semantic-hierachy,2021.1.2,60.337352118170045,
104,Trial # 105,layer0-5_O6_to_T2.jpg,layer0-5/layer0-5_O6_to_T2.jpg,OT,layer0-5,0.0,104.0,104.0,104.0,,,,,,,,,585.1040336936712,None,1.0,1.9230684828944504,585.1040336936712,None,585.1040336936712,None,585.1040336936712,None,1,2022_Apr_26_1002,Semantic-hierachy,2021.1.2,60.337352118170045,
105,Trial # 106,layer9-17_T11_to_T2.jpg,layer9-17/layer9-17_T11_to_T2.jpg,TT,layer9-17,0.0,105.0,105.0,105.0,,,,,,,,,587.637676554732,None,2.0,2.00923901097849,587.637676554732,None,587.637676554732,None,587.637676554732,None,1,2022_Apr_26_1002,Semantic-hierachy,2021.1.2,60.337352118170045,
106,Trial # 107,layer9-17_O12_to_O8.jpg,layer9-17/layer9-17_O12_to_O8.jpg,OO,layer9-17,0.0,106.0,106.0,106.0,,,,,,,,,590.3052121629007,None,2.0,4.2978445971384645,590.3052121629007,None,590.3052121629007,None,590.3052121629007,None,1,2022_Apr_26_1002,Semantic-hierachy,2021.1.2,60.337352118170045,
107,Trial # 108,layer0-5_T12_to_T3.jpg,layer0-5/layer0-5_T12_to_T3.jpg,TT,layer0-5,0.0,107.0,107.0,107.0,,,,,,,,,595.2063348949887,None,1.0,4.230092199053615,595.2063348949887,None,595.2063348949887,None,595.2063348949887,None,1,2022_Apr_26_1002,Semantic-hierachy,2021.1.2,60.337352118170045,
108,Trial # 109,layer0-5_T1_to_T10.jpg,layer0-5/layer0-5_T1_to_T10.jpg,TT,layer0-5,0.0,108.0,108.0,108.0,,,,,,,,,600.1580523946323,None,1.0,1.357257030904293,600.1580523946323,None,600.1580523946323,None,600.1580523946323,None,1,2022_Apr_26_1002,Semantic-hierachy,2021.1.2,60.337352118170045,
109,Trial # 110,layer6-8_O4_to_T5.jpg,layer6-8/layer6-8_O4_to_T5.jpg,OT,layer6-8,0.0,109.0,109.0,109.0,,,,,,,,,602.2265291097574,None,3.0,6.211585282813758,602.2265291097574,None,602.2265291097574,None,602.2265291097574,None,1,2022_Apr_26_1002,Semantic-hierachy,2021.1.2,60.337352118170045,
110,Trial # 111,layer9-17_O11_to_O7.jpg,layer9-17/layer9-17_O11_to_O7.jpg,OO,layer9-17,0.0,110.0,110.0,110.0,,,,,,,,,608.9450721279718,None,2.0,2.939641134347766,608.9450721279718,None,608.9450721279718,None,608.9450721279718,None,1,2022_Apr_26_1002,Semantic-hierachy,2021.1.2,60.337352118170045,
111,Trial # 112,layer0-5_O5_to_O8.jpg,layer0-5/layer0-5_O5_to_O8.jpg,OO,layer0-5,0.0,111.0,111.0,111.0,,,,,,,,,612.4120259126648,None,1.0,2.924867333844304,612.4120259126648,None,612.4120259126648,None,612.4120259126648,None,1,2022_Apr_26_1002,Semantic-hierachy,2021.1.2,60.337352118170045,
112,Trial # 113,layer0-5_O10_to_O4.jpg,layer0-5/layer0-5_O10_to_O4.jpg,OO,layer0-5,0.0,112.0,112.0,112.0,,,,,,,,,616.9134918507189,None,1.0,2.2572217378765345,616.9134918507189,None,616.9134918507189,None,616.9134918507189,None,1,2022_Apr_26_1002,Semantic-hierachy,2021.1.2,60.337352118170045,
113,Trial # 114,layer9-17_O4_to_O8.jpg,layer9-17/layer9-17_O4_to_O8.jpg,OO,layer9-17,0.0,113.0,113.0,113.0,,,,,,,,,619.7641501207836,None,4.0,2.6891346792690456,619.7641501207836,None,619.7641501207836,None,619.7641501207836,None,1,2022_Apr_26_1002,Semantic-hierachy,2021.1.2,60.337352118170045,
114,Trial # 115,layer0-5_O2_to_T8.jpg,layer0-5/layer0-5_O2_to_T8.jpg,OT,layer0-5,0.0,114.0,114.0,114.0,,,,,,,,,623.2331042066216,None,1.0,3.559913006145507,623.2331042066216,None,623.2331042066216,None,623.2331042066216,None,1,2022_Apr_26_1002,Semantic-hierachy,2021.1.2,60.337352118170045,
115,Trial # 116,layer9-17_T2_to_T3.jpg,layer9-17/layer9-17_T2_to_T3.jpg,TT,layer9-17,0.0,115.0,115.0,115.0,,,,,,,,,627.4501020149328,None,2.0,2.248282217886299,627.4501020149328,None,627.4501020149328,None,627.4501020149328,None,1,2022_Apr_26_1002,Semantic-hierachy,2021.1.2,60.337352118170045,
116,Trial # 117,layer6-8_O1_to_T10.jpg,layer6-8/layer6-8_O1_to_T10.jpg,OT,layer6-8,0.0,116.0,116.0,116.0,,,,,,,,,630.1682583568618,None,3.0,3.2458977163769305,630.1682583568618,None,630.1682583568618,None,630.1682583568618,None,1,2022_Apr_26_1002,Semantic-hierachy,2021.1.2,60.337352118170045,
117,Trial # 118,layer0-5_T3_to_T7.jpg,layer0-5/layer0-5_T3_to_T7.jpg,TT,layer0-5,0.0,117.0,117.0,117.0,,,,,,,,,634.1353864977136,None,1.0,2.161524249240756,634.1353864977136,None,634.1353864977136,None,634.1353864977136,None,1,2022_Apr_26_1002,Semantic-hierachy,2021.1.2,60.337352118170045,
118,Trial # 119,layer9-17_O1_to_O12.jpg,layer9-17/layer9-17_O1_to_O12.jpg,OO,layer9-17,0.0,118.0,118.0,118.0,,,,,,,,,636.8698984216899,None,2.0,2.4779160716570914,636.8698984216899,None,636.8698984216899,None,636.8698984216899,None,1,2022_Apr_26_1002,Semantic-hierachy,2021.1.2,60.337352118170045,
119,Trial # 120,layer6-8_O12_to_O2.jpg,layer6-8/layer6-8_O12_to_O2.jpg,OO,layer6-8,0.0,119.0,119.0,119.0,,,,,,,,,640.2701555830427,None,3.0,1.9757476630620656,640.2701555830427,None,640.2701555830427,None,640.2701555830427,None,1,2022_Apr_26_1002,Semantic-hierachy,2021.1.2,60.337352118170045,
120,Trial # 121,layer9-17_O10_to_O9.jpg,layer9-17/layer9-17_O10_to_O9.jpg,OO,layer9-17,0.0,120.0,120.0,120.0,,,,,,,,,643.3051701090299,None,2.0,2.292563701979816,643.3051701090299,None,643.3051701090299,None,643.3051701090299,None,1,2022_Apr_26_1002,Semantic-hierachy,2021.1.2,60.337352118170045,
121,Trial # 122,layer6-8_O4_to_T10.jpg,layer6-8/layer6-8_O4_to_T10.jpg,OT,layer6-8,0.0,121.0,121.0,121.0,,,,,,,,,646.1220673169009,None,4.0,6.396527348086238,646.1220673169009,None,646.1220673169009,None,646.1220673169009,None,1,2022_Apr_26_1002,Semantic-hierachy,2021.1.2,60.337352118170045,
122,Trial # 123,layer6-8_O2_to_T3.jpg,layer6-8/layer6-8_O2_to_T3.jpg,OT,layer6-8,0.0,122.0,122.0,122.0,,,,,,,,,653.7756790919229,None,3.0,2.175688415300101,653.7756790919229,None,653.7756790919229,None,653.7756790919229,None,1,2022_Apr_26_1002,Semantic-hierachy,2021.1.2,60.337352118170045,
123,Trial # 124,layer0-5_O1_to_O7.jpg,layer0-5/layer0-5_O1_to_O7.jpg,OO,layer0-5,0.0,123.0,123.0,123.0,,,,,,,,,656.5262090107426,None,1.0,2.054301226977259,656.5262090107426,None,656.5262090107426,None,656.5262090107426,None,1,2022_Apr_26_1002,Semantic-hierachy,2021.1.2,60.337352118170045,
124,Trial # 125,layer0-5_T8_to_T9.jpg,layer0-5/layer0-5_T8_to_T9.jpg,TT,layer0-5,0.0,124.0,124.0,124.0,,,,,,,,,658.9928706795909,None,1.0,2.078434931114316,658.9928706795909,None,658.9928706795909,None,658.9928706795909,None,1,2022_Apr_26_1002,Semantic-hierachy,2021.1.2,60.337352118170045,
125,Trial # 126,layer0-5_O12_to_T8.jpg,layer0-5/layer0-5_O12_to_T8.jpg,OT,layer0-5,0.0,125.0,125.0,125.0,,,,,,,,,661.8609549389221,None,1.0,1.728280866984278,661.8609549389221,None,661.8609549389221,None,661.8609549389221,None,1,2022_Apr_26_1002,Semantic-hierachy,2021.1.2,60.337352118170045,
126,Trial # 127,layer9-17_O4_to_O6.jpg,layer9-17/layer9-17_O4_to_O6.jpg,OO,layer9-17,0.0,126.0,126.0,126.0,,,,,,,,,664.5613280409016,None,2.0,8.048640489112586,664.5613280409016,None,664.5613280409016,None,664.5613280409016,None,1,2022_Apr_26_1002,Semantic-hierachy,2021.1.2,60.337352118170045,
127,Trial # 128,layer6-8_O12_to_O6.jpg,layer6-8/layer6-8_O12_to_O6.jpg,OO,layer6-8,0.0,127.0,127.0,127.0,,,,,,,,,673.5320154107176,None,4.0,4.778820645995438,673.5320154107176,None,673.5320154107176,None,673.5320154107176,None,1,2022_Apr_26_1002,Semantic-hierachy,2021.1.2,60.337352118170045,
128,Trial # 129,layer0-5_T4_to_T6.jpg,layer0-5/layer0-5_T4_to_T6.jpg,TT,layer0-5,0.0,128.0,128.0,128.0,,,,,,,,,680.4328332897276,None,1.0,2.6794786639511585,680.4328332897276,None,680.4328332897276,None,680.4328332897276,None,1,2022_Apr_26_1002,Semantic-hierachy,2021.1.2,60.337352118170045,
129,Trial # 130,layer9-17_O1_to_O3.jpg,layer9-17/layer9-17_O1_to_O3.jpg,OO,layer9-17,0.0,129.0,129.0,129.0,,,,,,,,,683.733881553635,None,2.0,1.6788447573781011,683.733881553635,None,683.733881553635,None,683.733881553635,None,1,2022_Apr_26_1002,Semantic-hierachy,2021.1.2,60.337352118170045,
130,Trial # 131,layer9-17_O10_to_O3.jpg,layer9-17/layer9-17_O10_to_O3.jpg,OO,layer9-17,0.0,130.0,130.0,130.0,,,,,,,,,685.8343633087352,None,2.0,1.927958796732128,685.8343633087352,None,685.8343633087352,None,685.8343633087352,None,1,2022_Apr_26_1002,Semantic-hierachy,2021.1.2,60.337352118170045,
131,Trial # 132,layer9-17_O12_to_O3.jpg,layer9-17/layer9-17_O12_to_O3.jpg,OO,layer9-17,0.0,131.0,131.0,131.0,,,,,,,,,688.2524267588742,None,2.0,1.3082114160060885,688.2524267588742,None,688.2524267588742,None,688.2524267588742,None,1,2022_Apr_26_1002,Semantic-hierachy,2021.1.2,60.337352118170045,
132,Trial # 133,layer9-17_O11_to_O4.jpg,layer9-17/layer9-17_O11_to_O4.jpg,OO,layer9-17,0.0,132.0,132.0,132.0,,,,,,,,,690.3688974739052,None,2.0,7.1784093379974365,690.3688974739052,None,690.3688974739052,None,690.3688974739052,None,1,2022_Apr_26_1002,Semantic-hierachy,2021.1.2,60.337352118170045,
133,Trial # 134,layer9-17_T4_to_T7.jpg,layer9-17/layer9-17_T4_to_T7.jpg,TT,layer9-17,0.0,133.0,133.0,133.0,,,,,,,,,698.1393886758015,None,2.0,1.3734644050709903,698.1393886758015,None,698.1393886758015,None,698.1393886758015,None,1,2022_Apr_26_1002,Semantic-hierachy,2021.1.2,60.337352118170045,
134,Trial # 135,layer9-17_O1_to_T1.jpg,layer9-17/layer9-17_O1_to_T1.jpg,OT,layer9-17,0.0,134.0,134.0,134.0,,,,,,,,,700.3230353179388,None,2.0,4.406677302904427,700.3230353179388,None,700.3230353179388,None,700.3230353179388,None,1,2022_Apr_26_1002,Semantic-hierachy,2021.1.2,60.337352118170045,
135,Trial # 136,layer6-8_T2_to_T5.jpg,layer6-8/layer6-8_T2_to_T5.jpg,TT,layer6-8,0.0,135.0,135.0,135.0,,,,,,,,,705.4239731719717,None,3.0,7.809794282075018,705.4239731719717,None,705.4239731719717,None,705.4239731719717,None,1,2022_Apr_26_1002,Semantic-hierachy,2021.1.2,60.337352118170045,
136,Trial # 137,layer9-17_T11_to_T7.jpg,layer9-17/layer9-17_T11_to_T7.jpg,TT,layer9-17,0.0,136.0,136.0,136.0,,,,,,,,,713.6103591998108,None,2.0,2.1413438646122813,713.6103591998108,None,713.6103591998108,None,713.6103591998108,None,1,2022_Apr_26_1002,Semantic-hierachy,2021.1.2,60.337352118170045,
137,Trial # 138,layer6-8_O3_to_O8.jpg,layer6-8/layer6-8_O3_to_O8.jpg,OO,layer6-8,0.0,137.0,137.0,137.0,,,,,,,,,716.328000521753,None,3.0,5.80955727212131,716.328000521753,None,716.328000521753,None,716.328000521753,None,1,2022_Apr_26_1002,Semantic-hierachy,2021.1.2,60.337352118170045,
138,Trial # 139,layer6-8_O1_to_T7.jpg,layer6-8/layer6-8_O1_to_T7.jpg,OT,layer6-8,0.0,138.0,138.0,138.0,,,,,,,,,722.9471145039424,None,3.0,2.115261019207537,722.9471145039424,None,722.9471145039424,None,722.9471145039424,None,1,2022_Apr_26_1002,Semantic-hierachy,2021.1.2,60.337352118170045,
139,Trial # 140,layer9-17_T1_to_T3.jpg,layer9-17/layer9-17_T1_to_T3.jpg,TT,layer9-17,0.0,139.0,139.0,139.0,,,,,,,,,725.8300319770351,None,4.0,5.743885980919004,725.8300319770351,None,725.8300319770351,None,725.8300319770351,None,1,2022_Apr_26_1002,Semantic-hierachy,2021.1.2,60.337352118170045,
140,Trial # 141,layer6-8_O10_to_O12.jpg,layer6-8/layer6-8_O10_to_O12.jpg,OO,layer6-8,0.0,140.0,140.0,140.0,,,,,,,,,732.3994404026307,None,3.0,2.9894663807936013,732.3994404026307,None,732.3994404026307,None,732.3994404026307,None,1,2022_Apr_26_1002,Semantic-hierachy,2021.1.2,60.337352118170045,
141,Trial # 142,layer6-8_O12_to_T11.jpg,layer6-8/layer6-8_O12_to_T11.jpg,OT,layer6-8,0.0,141.0,141.0,141.0,,,,,,,,,737.4346888898872,None,4.0,2.627621911931783,737.4346888898872,None,737.4346888898872,None,737.4346888898872,None,1,2022_Apr_26_1002,Semantic-hierachy,2021.1.2,60.337352118170045,
142,Trial # 143,layer0-5_O11_to_O5.jpg,layer0-5/layer0-5_O11_to_O5.jpg,OO,layer0-5,0.0,142.0,142.0,142.0,,,,,,,,,740.9515148019418,None,1.0,2.0976014747284357,740.9515148019418,None,740.9515148019418,None,740.9515148019418,None,1,2022_Apr_26_1002,Semantic-hierachy,2021.1.2,60.337352118170045,
143,Trial # 144,layer6-8_O1_to_O8.jpg,layer6-8/layer6-8_O1_to_O8.jpg,OO,layer6-8,0.0,143.0,143.0,143.0,,,,,,,,,743.9361235606484,None,2.0,3.144251585006714,743.9361235606484,None,743.9361235606484,None,743.9361235606484,None,1,2022_Apr_26_1002,Semantic-hierachy,2021.1.2,60.337352118170045,
144,Trial # 145,layer0-5_T2_to_T5.jpg,layer0-5/layer0-5_T2_to_T5.jpg,TT,layer0-5,0.0,144.0,144.0,144.0,,,,,,,,,749.6222163829952,None,1.0,5.556241404730827,749.6222163829952,None,749.6222163829952,None,749.6222163829952,None,1,2022_Apr_26_1002,Semantic-hierachy,2021.1.2,60.337352118170045,
145,Trial # 146,layer9-17_O8_to_T3.jpg,layer9-17/layer9-17_O8_to_T3.jpg,OT,layer9-17,0.0,145.0,145.0,145.0,,,,,,,,,755.9731685156003,None,2.0,2.5459871808998287,755.9731685156003,None,755.9731685156003,None,755.9731685156003,None,1,2022_Apr_26_1002,Semantic-hierachy,2021.1.2,60.337352118170045,
146,Trial # 147,layer9-17_O8_to_T4.jpg,layer9-17/layer9-17_O8_to_T4.jpg,OT,layer9-17,0.0,146.0,146.0,146.0,,,,,,,,,759.2917513810098,None,2.0,13.683755876030771,759.2917513810098,None,759.2917513810098,None,759.2917513810098,None,1,2022_Apr_26_1002,Semantic-hierachy,2021.1.2,60.337352118170045,
147,Trial # 148,layer9-17_O4_to_T9.jpg,layer9-17/layer9-17_O4_to_T9.jpg,OT,layer9-17,0.0,147.0,147.0,147.0,,,,,,,,,774.0123706646264,None,2.0,1.6303594498895109,774.0123706646264,None,774.0123706646264,None,774.0123706646264,None,1,2022_Apr_26_1002,Semantic-hierachy,2021.1.2,60.337352118170045,
148,Trial # 149,layer6-8_O4_to_O8.jpg,layer6-8/layer6-8_O4_to_O8.jpg,OO,layer6-8,0.0,148.0,148.0,148.0,,,,,,,,,776.463238441851,None,4.0,2.53721677698195,776.463238441851,None,776.463238441851,None,776.463238441851,None,1,2022_Apr_26_1002,Semantic-hierachy,2021.1.2,60.337352118170045,
149,Trial # 150,layer0-5_O12_to_T7.jpg,layer0-5/layer0-5_O12_to_T7.jpg,OT,layer0-5,0.0,149.0,149.0,149.0,,,,,,,,,779.7645254307427,None,1.0,2.195617933291942,779.7645254307427,None,779.7645254307427,None,779.7645254307427,None,1,2022_Apr_26_1002,Semantic-hierachy,2021.1.2,60.337352118170045,
150,Trial # 151,layer6-8_T1_to_T3.jpg,layer6-8/layer6-8_T1_to_T3.jpg,TT,layer6-8,,,,,0.0,0.0,0.0,0.0,,,,,802.6878835037351,None,3.0,3.5437083346769214,802.6878835037351,None,802.6878835037351,None,802.6878835037351,None,1,2022_Apr_26_1002,Semantic-hierachy,2021.1.2,60.337352118170045,
151,Trial # 152,layer0-5_O8_to_O9.jpg,layer0-5/layer0-5_O8_to_O9.jpg,OO,layer0-5,,,,,0.0,1.0,1.0,1.0,,,,,807.2565785376355,None,1.0,2.176485390868038,807.2565785376355,None,807.2565785376355,None,807.2565785376355,None,1,2022_Apr_26_1002,Semantic-hierachy,2021.1.2,60.337352118170045,
152,Trial # 153,layer9-17_T1_to_T5.jpg,layer9-17/layer9-17_T1_to_T5.jpg,TT,layer9-17,,,,,0.0,2.0,2.0,2.0,,,,,809.8561392319389,None,2.0,1.580928939860314,809.8561392319389,None,809.8561392319389,None,809.8561392319389,None,1,2022_Apr_26_1002,Semantic-hierachy,2021.1.2,60.337352118170045,
153,Trial # 154,layer6-8_T7_to_T9.jpg,layer6-8/layer6-8_T7_to_T9.jpg,TT,layer6-8,,,,,0.0,3.0,3.0,3.0,,,,,811.8066673697904,None,4.0,3.4754652571864426,811.8066673697904,None,811.8066673697904,None,811.8066673697904,None,1,2022_Apr_26_1002,Semantic-hierachy,2021.1.2,60.337352118170045,
154,Trial # 155,layer9-17_T12_to_T7.jpg,layer9-17/layer9-17_T12_to_T7.jpg,TT,layer9-17,,,,,0.0,4.0,4.0,4.0,,,,,815.6752743208781,None,2.0,1.9298843443393707,815.6752743208781,None,815.6752743208781,None,815.6752743208781,None,1,2022_Apr_26_1002,Semantic-hierachy,2021.1.2,60.337352118170045,
155,Trial # 156,layer0-5_O8_to_T11.jpg,layer0-5/layer0-5_O8_to_T11.jpg,OT,layer0-5,,,,,0.0,5.0,5.0,5.0,,,,,818.3096874416806,None,1.0,1.5912419762462378,818.3096874416806,None,818.3096874416806,None,818.3096874416806,None,1,2022_Apr_26_1002,Semantic-hierachy,2021.1.2,60.337352118170045,
156,Trial # 157,layer0-5_O1_to_O9.jpg,layer0-5/layer0-5_O1_to_O9.jpg,OO,layer0-5,,,,,0.0,6.0,6.0,6.0,,,,,820.6601431807503,None,1.0,1.7122241538017988,820.6601431807503,None,820.6601431807503,None,820.6601431807503,None,1,2022_Apr_26_1002,Semantic-hierachy,2021.1.2,60.337352118170045,
157,Trial # 158,layer0-5_O10_to_O12.jpg,layer0-5/layer0-5_O10_to_O12.jpg,OO,layer0-5,,,,,0.0,7.0,7.0,7.0,,,,,822.7609248626977,None,1.0,1.731033441144973,822.7609248626977,None,822.7609248626977,None,822.7609248626977,None,1,2022_Apr_26_1002,Semantic-hierachy,2021.1.2,60.337352118170045,
158,Trial # 159,layer6-8_O10_to_T5.jpg,layer6-8/layer6-8_O10_to_T5.jpg,OT,layer6-8,,,,,0.0,8.0,8.0,8.0,,,,,824.9450378469191,None,3.0,2.3448640569113195,824.9450378469191,None,824.9450378469191,None,824.9450378469191,None,1,2022_Apr_26_1002,Semantic-hierachy,2021.1.2,60.337352118170045,
159,Trial # 160,layer6-8_O5_to_O6.jpg,layer6-8/layer6-8_O5_to_O6.jpg,OO,layer6-8,,,,,0.0,9.0,9.0,9.0,,,,,827.6128543168306,None,4.0,2.7561458949930966,827.6128543168306,None,827.6128543168306,None,827.6128543168306,None,1,2022_Apr_26_1002,Semantic-hierachy,2021.1.2,60.337352118170045,
160,Trial # 161,layer6-8_O6_to_T11.jpg,layer6-8/layer6-8_O6_to_T11.jpg,OT,layer6-8,,,,,0.0,10.0,10.0,10.0,,,,,831.1960300337523,None,3.0,3.212074969895184,831.1960300337523,None,831.1960300337523,None,831.1960300337523,None,1,2022_Apr_26_1002,Semantic-hierachy,2021.1.2,60.337352118170045,
161,Trial # 162,layer9-17_O12_to_O9.jpg,layer9-17/layer9-17_O12_to_O9.jpg,OO,layer9-17,,,,,0.0,11.0,11.0,11.0,,,,,834.8471925565973,None,2.0,2.5158130009658635,834.8471925565973,None,834.8471925565973,None,834.8471925565973,None,1,2022_Apr_26_1002,Semantic-hierachy,2021.1.2,60.337352118170045,
162,Trial # 163,layer6-8_O12_to_T6.jpg,layer6-8/layer6-8_O12_to_T6.jpg,OT,layer6-8,,,,,0.0,12.0,12.0,12.0,,,,,837.7326874849387,None,3.0,2.2804726329632103,837.7326874849387,None,837.7326874849387,None,837.7326874849387,None,1,2022_Apr_26_1002,Semantic-hierachy,2021.1.2,60.337352118170045,
163,Trial # 164,layer0-5_T11_to_T7.jpg,layer0-5/layer0-5_T11_to_T7.jpg,TT,layer0-5,,,,,0.0,13.0,13.0,13.0,,,,,840.6657972396351,None,1.0,2.848085198085755,840.6657972396351,None,840.6657972396351,None,840.6657972396351,None,1,2022_Apr_26_1002,Semantic-hierachy,2021.1.2,60.337352118170045,
164,Trial # 165,layer9-17_O10_to_T5.jpg,layer9-17/layer9-17_O10_to_T5.jpg,OT,layer9-17,,,,,0.0,14.0,14.0,14.0,,,,,843.9175339299254,None,4.0,3.726254363078624,843.9175339299254,None,843.9175339299254,None,843.9175339299254,None,1,2022_Apr_26_1002,Semantic-hierachy,2021.1.2,60.337352118170045,
165,Trial # 166,layer9-17_T1_to_T6.jpg,layer9-17/layer9-17_T1_to_T6.jpg,TT,layer9-17,,,,,0.0,15.0,15.0,15.0,,,,,848.3684383039363,None,2.0,2.739250270184129,848.3684383039363,None,848.3684383039363,None,848.3684383039363,None,1,2022_Apr_26_1002,Semantic-hierachy,2021.1.2,60.337352118170045,
166,Trial # 167,layer0-5_T1_to_T3.jpg,layer0-5/layer0-5_T1_to_T3.jpg,TT,layer0-5,,,,,0.0,16.0,16.0,16.0,,,,,851.7020834097639,None,1.0,1.763905341271311,851.7020834097639,None,851.7020834097639,None,851.7020834097639,None,1,2022_Apr_26_1002,Semantic-hierachy,2021.1.2,60.337352118170045,
167,Trial # 168,layer0-5_O2_to_O9.jpg,layer0-5/layer0-5_O2_to_O9.jpg,OO,layer0-5,,,,,0.0,17.0,17.0,17.0,,,,,853.8537829536945,None,1.0,3.3654211228713398,853.8537829536945,None,853.8537829536945,None,853.8537829536945,None,1,2022_Apr_26_1002,Semantic-hierachy,2021.1.2,60.337352118170045,
168,Trial # 169,layer9-17_O3_to_T4.jpg,layer9-17/layer9-17_O3_to_T4.jpg,OT,layer9-17,,,,,0.0,18.0,18.0,18.0,,,,,857.5382714057341,None,2.0,2.290606518276036,857.5382714057341,None,857.5382714057341,None,857.5382714057341,None,1,2022_Apr_26_1002,Semantic-hierachy,2021.1.2,60.337352118170045,
169,Trial # 170,layer6-8_O11_to_O9.jpg,layer6-8/layer6-8_O11_to_O9.jpg,OO,layer6-8,,,,,0.0,19.0,19.0,19.0,,,,,860.322394638788,None,2.0,4.128581856843084,860.322394638788,None,860.322394638788,None,860.322394638788,None,1,2022_Apr_26_1002,Semantic-hierachy,2021.1.2,60.337352118170045,
170,Trial # 171,layer9-17_O1_to_O7.jpg,layer9-17/layer9-17_O1_to_O7.jpg,OO,layer9-17,,,,,0.0,20.0,20.0,20.0,,,,,865.6242317366414,None,4.0,5.591387283988297,865.6242317366414,None,865.6242317366414,None,865.6242317366414,None,1,2022_Apr_26_1002,Semantic-hierachy,2021.1.2,60.337352118170045,
171,Trial # 172,layer0-5_T12_to_T4.jpg,layer0-5/layer0-5_T12_to_T4.jpg,TT,layer0-5,,,,,0.0,21.0,21.0,21.0,,,,,871.725225630682,None,1.0,1.7934415731579063,871.725225630682,None,871.725225630682,None,871.725225630682,None,1,2022_Apr_26_1002,Semantic-hierachy,2021.1.2,60.337352118170045,
172,Trial # 173,layer0-5_O4_to_T4.jpg,layer0-5/layer0-5_O4_to_T4.jpg,OT,layer0-5,,,,,0.0,22.0,22.0,22.0,,,,,873.8932562507689,None,1.0,2.4299949388951063,873.8932562507689,None,873.8932562507689,None,873.8932562507689,None,1,2022_Apr_26_1002,Semantic-hierachy,2021.1.2,60.337352118170045,
173,Trial # 174,layer6-8_T12_to_T5.jpg,layer6-8/layer6-8_T12_to_T5.jpg,TT,layer6-8,,,,,0.0,23.0,23.0,23.0,,,,,877.261988571845,None,4.0,3.219671910163015,877.261988571845,None,877.261988571845,None,877.261988571845,None,1,2022_Apr_26_1002,Semantic-hierachy,2021.1.2,60.337352118170045,
174,Trial # 175,layer6-8_O11_to_T1.jpg,layer6-8/layer6-8_O11_to_T1.jpg,OT,layer6-8,,,,,0.0,24.0,24.0,24.0,,,,,881.6785129616037,None,4.0,2.963994190096855,881.6785129616037,None,881.6785129616037,None,881.6785129616037,None,1,2022_Apr_26_1002,Semantic-hierachy,2021.1.2,60.337352118170045,
175,Trial # 176,layer0-5_O7_to_T8.jpg,layer0-5/layer0-5_O7_to_T8.jpg,OT,layer0-5,,,,,0.0,25.0,25.0,25.0,,,,,885.0297711626627,None,1.0,2.209360978100449,885.0297711626627,None,885.0297711626627,None,885.0297711626627,None,1,2022_Apr_26_1002,Semantic-hierachy,2021.1.2,60.337352118170045,
176,Trial # 177,layer0-5_O11_to_T5.jpg,layer0-5/layer0-5_O11_to_T5.jpg,OT,layer0-5,,,,,0.0,26.0,26.0,26.0,,,,,887.631384441629,None,1.0,1.7932492857798934,887.631384441629,None,887.631384441629,None,887.631384441629,None,1,2022_Apr_26_1002,Semantic-hierachy,2021.1.2,60.337352118170045,
177,Trial # 178,layer9-17_O2_to_T2.jpg,layer9-17/layer9-17_O2_to_T2.jpg,OT,layer9-17,,,,,0.0,27.0,27.0,27.0,,,,,889.7814307357185,None,4.0,2.4633755329996347,889.7814307357185,None,889.7814307357185,None,889.7814307357185,None,1,2022_Apr_26_1002,Semantic-hierachy,2021.1.2,60.337352118170045,
178,Trial # 179,layer0-5_O4_to_T9.jpg,layer0-5/layer0-5_O4_to_T9.jpg,OT,layer0-5,,,,,0.0,28.0,28.0,28.0,,,,,892.7822554968297,None,1.0,1.9561336138285697,892.7822554968297,None,892.7822554968297,None,892.7822554968297,None,1,2022_Apr_26_1002,Semantic-hierachy,2021.1.2,60.337352118170045,
179,Trial # 180,layer9-17_T6_to_T8.jpg,layer9-17/layer9-17_T6_to_T8.jpg,TT,layer9-17,,,,,0.0,29.0,29.0,29.0,,,,,895.1500135967508,None,2.0,2.232409173157066,895.1500135967508,None,895.1500135967508,None,895.1500135967508,None,1,2022_Apr_26_1002,Semantic-hierachy,2021.1.2,60.337352118170045,
180,Trial # 181,layer9-17_O12_to_O5.jpg,layer9-17/layer9-17_O12_to_O5.jpg,OO,layer9-17,,,,,0.0,30.0,30.0,30.0,,,,,897.7505236580037,None,2.0,1.9287535985931756,897.7505236580037,None,897.7505236580037,None,897.7505236580037,None,1,2022_Apr_26_1002,Semantic-hierachy,2021.1.2,60.337352118170045,
181,Trial # 182,layer6-8_O1_to_O7.jpg,layer6-8/layer6-8_O1_to_O7.jpg,OO,layer6-8,,,,,0.0,31.0,31.0,31.0,,,,,900.3187128119171,None,4.0,2.6456779311411083,900.3187128119171,None,900.3187128119171,None,900.3187128119171,None,1,2022_Apr_26_1002,Semantic-hierachy,2021.1.2,60.337352118170045,
182,Trial # 183,layer6-8_O3_to_T10.jpg,layer6-8/layer6-8_O3_to_T10.jpg,OT,layer6-8,,,,,0.0,32.0,32.0,32.0,,,,,903.2858479698187,None,3.0,2.1594933308660984,903.2858479698187,None,903.2858479698187,None,903.2858479698187,None,1,2022_Apr_26_1002,Semantic-hierachy,2021.1.2,60.337352118170045,
183,Trial # 184,layer0-5_O1_to_T11.jpg,layer0-5/layer0-5_O1_to_T11.jpg,OT,layer0-5,,,,,0.0,33.0,33.0,33.0,,,,,906.186779628042,None,1.0,3.0284085776656866,906.186779628042,None,906.186779628042,None,906.186779628042,None,1,2022_Apr_26_1002,Semantic-hierachy,2021.1.2,60.337352118170045,
184,Trial # 185,layer6-8_O8_to_O9.jpg,layer6-8/layer6-8_O8_to_O9.jpg,OO,layer6-8,,,,,0.0,34.0,34.0,34.0,,,,,909.6545538948848,None,3.0,2.111642395146191,909.6545538948848,None,909.6545538948848,None,909.6545538948848,None,1,2022_Apr_26_1002,Semantic-hierachy,2021.1.2,60.337352118170045,
185,Trial # 186,layer9-17_O4_to_O9.jpg,layer9-17/layer9-17_O4_to_O9.jpg,OO,layer9-17,,,,,0.0,35.0,35.0,35.0,,,,,913.6059599937872,None,4.0,4.291134934872389,913.6059599937872,None,913.6059599937872,None,913.6059599937872,None,1,2022_Apr_26_1002,Semantic-hierachy,2021.1.2,60.337352118170045,
186,Trial # 187,layer0-5_O12_to_O5.jpg,layer0-5/layer0-5_O12_to_O5.jpg,OO,layer0-5,,,,,0.0,36.0,36.0,36.0,,,,,918.9077793275936,None,1.0,3.0819348441436887,918.9077793275936,None,918.9077793275936,None,918.9077793275936,None,1,2022_Apr_26_1002,Semantic-hierachy,2021.1.2,60.337352118170045,
187,Trial # 188,layer6-8_T12_to_T4.jpg,layer6-8/layer6-8_T12_to_T4.jpg,TT,layer6-8,,,,,0.0,37.0,37.0,37.0,,,,,922.441671005916,None,3.0,4.94965362502262,922.441671005916,None,922.441671005916,None,922.441671005916,None,1,2022_Apr_26_1002,Semantic-hierachy,2021.1.2,60.337352118170045,
188,Trial # 189,layer0-5_T6_to_T8.jpg,layer0-5/layer0-5_T6_to_T8.jpg,TT,layer0-5,,,,,0.0,38.0,38.0,38.0,,,,,927.7611533217132,None,1.0,1.7930250633507967,927.7611533217132,None,927.7611533217132,None,927.7611533217132,None,1,2022_Apr_26_1002,Semantic-hierachy,2021.1.2,60.337352118170045,
189,Trial # 190,layer6-8_O11_to_T2.jpg,layer6-8/layer6-8_O11_to_T2.jpg,OT,layer6-8,,,,,0.0,39.0,39.0,39.0,,,,,929.893664456904,None,3.0,2.897409337107092,929.893664456904,None,929.893664456904,None,929.893664456904,None,1,2022_Apr_26_1002,Semantic-hierachy,2021.1.2,60.337352118170045,
190,Trial # 191,layer6-8_O1_to_O3.jpg,layer6-8/layer6-8_O1_to_O3.jpg,OO,layer6-8,,,,,0.0,40.0,40.0,40.0,,,,,933.711982920766,None,4.0,4.408225676976144,933.711982920766,None,933.711982920766,None,933.711982920766,None,1,2022_Apr_26_1002,Semantic-hierachy,2021.1.2,60.337352118170045,
191,Trial # 192,layer0-5_O7_to_T1.jpg,layer0-5/layer0-5_O7_to_T1.jpg,OT,layer0-5,,,,,0.0,41.0,41.0,41.0,,,,,938.530786999967,None,1.0,3.944879511371255,938.530786999967,None,938.530786999967,None,938.530786999967,None,1,2022_Apr_26_1002,Semantic-hierachy,2021.1.2,60.337352118170045,
192,Trial # 193,layer6-8_O3_to_T7.jpg,layer6-8/layer6-8_O3_to_T7.jpg,OT,layer6-8,,,,,0.0,42.0,42.0,42.0,,,,,943.165808300022,None,3.0,2.5233290041796863,943.165808300022,None,943.165808300022,None,943.165808300022,None,1,2022_Apr_26_1002,Semantic-hierachy,2021.1.2,60.337352118170045,
193,Trial # 194,layer9-17_T10_to_T6.jpg,layer9-17/layer9-17_T10_to_T6.jpg,TT,layer9-17,,,,,0.0,43.0,43.0,43.0,,,,,946.1149746607988,None,2.0,2.630987707991153,946.1149746607988,None,946.1149746607988,None,946.1149746607988,None,1,2022_Apr_26_1002,Semantic-hierachy,2021.1.2,60.337352118170045,
194,Trial # 195,layer6-8_T2_to_T9.jpg,layer6-8/layer6-8_T2_to_T9.jpg,TT,layer6-8,,,,,0.0,44.0,44.0,44.0,,,,,949.266904475633,None,4.0,6.341687615029514,949.266904475633,None,949.266904475633,None,949.266904475633,None,1,2022_Apr_26_1002,Semantic-hierachy,2021.1.2,60.337352118170045,
195,Trial # 196,layer0-5_O3_to_T3.jpg,layer0-5/layer0-5_O3_to_T3.jpg,OT,layer0-5,,,,,0.0,45.0,45.0,45.0,,,,,956.4345684186555,None,1.0,3.317029109224677,956.4345684186555,None,956.4345684186555,None,956.4345684186555,None,1,2022_Apr_26_1002,Semantic-hierachy,2021.1.2,60.337352118170045,
196,Trial # 197,layer9-17_O1_to_O2.jpg,layer9-17/layer9-17_O1_to_O2.jpg,OO,layer9-17,,,,,0.0,46.0,46.0,46.0,,,,,960.7199680777268,None,4.0,2.5261912057176232,960.7199680777268,None,960.7199680777268,None,960.7199680777268,None,1,2022_Apr_26_1002,Semantic-hierachy,2021.1.2,60.337352118170045,
197,Trial # 198,layer9-17_T2_to_T9.jpg,layer9-17/layer9-17_T2_to_T9.jpg,TT,layer9-17,,,,,0.0,47.0,47.0,47.0,,,,,964.0550966146402,None,2.0,3.827284237835556,964.0550966146402,None,964.0550966146402,None,964.0550966146402,None,1,2022_Apr_26_1002,Semantic-hierachy,2021.1.2,60.337352118170045,
198,Trial # 199,layer9-17_O6_to_T10.jpg,layer9-17/layer9-17_O6_to_T10.jpg,OT,layer9-17,,,,,0.0,48.0,48.0,48.0,,,,,968.8391283918172,None,2.0,2.953084882348776,968.8391283918172,None,968.8391283918172,None,968.8391283918172,None,1,2022_Apr_26_1002,Semantic-hierachy,2021.1.2,60.337352118170045,
199,Trial # 200,layer0-5_T12_to_T5.jpg,layer0-5/layer0-5_T12_to_T5.jpg,TT,layer0-5,,,,,0.0,49.0,49.0,49.0,,,,,972.806965135038,None,1.0,2.615086711011827,972.806965135038,None,972.806965135038,None,972.806965135038,None,1,2022_Apr_26_1002,Semantic-hierachy,2021.1.2,60.337352118170045,
200,Trial # 201,layer0-5_O10_to_T10.jpg,layer0-5/layer0-5_O10_to_T10.jpg,OT,layer0-5,,,,,0.0,50.0,50.0,50.0,,,,,975.807407115586,None,1.0,2.1077431780286133,975.807407115586,None,975.807407115586,None,975.807407115586,None,1,2022_Apr_26_1002,Semantic-hierachy,2021.1.2,60.337352118170045,
201,Trial # 202,layer9-17_T11_to_T12.jpg,layer9-17/layer9-17_T11_to_T12.jpg,TT,layer9-17,,,,,0.0,51.0,51.0,51.0,,,,,980.9261619839816,None,2.0,1.914421983994544,980.9261619839816,None,980.9261619839816,None,980.9261619839816,None,1,2022_Apr_26_1002,Semantic-hierachy,2021.1.2,60.337352118170045,
202,Trial # 203,layer6-8_T3_to_T5.jpg,layer6-8/layer6-8_T3_to_T5.jpg,TT,layer6-8,,,,,0.0,52.0,52.0,52.0,,,,,983.1944003747776,None,3.0,2.547183040063828,983.1944003747776,None,983.1944003747776,None,983.1944003747776,None,1,2022_Apr_26_1002,Semantic-hierachy,2021.1.2,60.337352118170045,
203,Trial # 204,layer0-5_O5_to_T10.jpg,layer0-5/layer0-5_O5_to_T10.jpg,OT,layer0-5,,,,,0.0,53.0,53.0,53.0,,,,,987.1293873758988,None,4.0,4.072965879924595,987.1293873758988,None,987.1293873758988,None,987.1293873758988,None,1,2022_Apr_26_1002,Semantic-hierachy,2021.1.2,60.337352118170045,
204,Trial # 205,layer0-5_O10_to_O5.jpg,layer0-5/layer0-5_O10_to_O5.jpg,OO,layer0-5,,,,,0.0,54.0,54.0,54.0,,,,,992.8309611948208,None,1.0,3.770928906276822,992.8309611948208,None,992.8309611948208,None,992.8309611948208,None,1,2022_Apr_26_1002,Semantic-hierachy,2021.1.2,60.337352118170045,
205,Trial # 206,layer0-5_O5_to_O7.jpg,layer0-5/layer0-5_O5_to_O7.jpg,OO,layer0-5,,,,,0.0,55.0,55.0,55.0,,,,,997.0812009139918,None,1.0,2.3916867529042065,997.0812009139918,None,997.0812009139918,None,997.0812009139918,None,1,2022_Apr_26_1002,Semantic-hierachy,2021.1.2,60.337352118170045,
206,Trial # 207,layer0-5_O3_to_T10.jpg,layer0-5/layer0-5_O3_to_T10.jpg,OT,layer0-5,,,,,0.0,56.0,56.0,56.0,,,,,999.9821976767852,None,1.0,3.7174529200419775,999.9821976767852,None,999.9821976767852,None,999.9821976767852,None,1,2022_Apr_26_1002,Semantic-hierachy,2021.1.2,60.337352118170045,
207,Trial # 208,layer0-5_O4_to_O5.jpg,layer0-5/layer0-5_O4_to_O5.jpg,OO,layer0-5,,,,,0.0,57.0,57.0,57.0,,,,,1004.2343227807432,None,1.0,1.9212678391486409,1004.2343227807432,None,1004.2343227807432,None,1004.2343227807432,None,1,2022_Apr_26_1002,Semantic-hierachy,2021.1.2,60.337352118170045,
208,Trial # 209,layer6-8_T12_to_T3.jpg,layer6-8/layer6-8_T12_to_T3.jpg,TT,layer6-8,,,,,0.0,58.0,58.0,58.0,,,,,1006.750535279978,None,3.0,4.579480057116598,1006.750535279978,None,1006.750535279978,None,1006.750535279978,None,1,2022_Apr_26_1002,Semantic-hierachy,2021.1.2,60.337352118170045,
209,Trial # 210,layer6-8_O7_to_T9.jpg,layer6-8/layer6-8_O7_to_T9.jpg,OT,layer6-8,,,,,0.0,59.0,59.0,59.0,,,,,1012.086611579638,None,3.0,2.111879105679691,1012.086611579638,None,1012.086611579638,None,1012.086611579638,None,1,2022_Apr_26_1002,Semantic-hierachy,2021.1.2,60.337352118170045,
210,Trial # 211,layer6-8_O1_to_O11.jpg,layer6-8/layer6-8_O1_to_O11.jpg,OO,layer6-8,,,,,0.0,60.0,60.0,60.0,,,,,1015.019955724012,None,2.0,6.716364020947367,1015.019955724012,None,1015.019955724012,None,1015.019955724012,None,1,2022_Apr_26_1002,Semantic-hierachy,2021.1.2,60.337352118170045,
211,Trial # 212,layer6-8_T2_to_T6.jpg,layer6-8/layer6-8_T2_to_T6.jpg,TT,layer6-8,,,,,0.0,61.0,61.0,61.0,,,,,1022.6567185856402,None,3.0,1.8390302057377996,1022.6567185856402,None,1022.6567185856402,None,1022.6567185856402,None,1,2022_Apr_26_1002,Semantic-hierachy,2021.1.2,60.337352118170045,
212,Trial # 213,layer6-8_O10_to_O6.jpg,layer6-8/layer6-8_O10_to_O6.jpg,OO,layer6-8,,,,,0.0,62.0,62.0,62.0,,,,,1025.3228217200376,None,2.0,2.846032741945237,1025.3228217200376,None,1025.3228217200376,None,1025.3228217200376,None,1,2022_Apr_26_1002,Semantic-hierachy,2021.1.2,60.337352118170045,
213,Trial # 214,layer9-17_T5_to_T8.jpg,layer9-17/layer9-17_T5_to_T8.jpg,TT,layer9-17,,,,,0.0,63.0,63.0,63.0,,,,,1028.9909815066494,None,2.0,1.604452178813517,1028.9909815066494,None,1028.9909815066494,None,1028.9909815066494,None,1,2022_Apr_26_1002,Semantic-hierachy,2021.1.2,60.337352118170045,
214,Trial # 215,layer9-17_O3_to_T10.jpg,layer9-17/layer9-17_O3_to_T10.jpg,OT,layer9-17,,,,,0.0,64.0,64.0,64.0,,,,,1031.408321321942,None,2.0,1.709545145276934,1031.408321321942,None,1031.408321321942,None,1031.408321321942,None,1,2022_Apr_26_1002,Semantic-hierachy,2021.1.2,60.337352118170045,
215,Trial # 216,layer6-8_O12_to_O3.jpg,layer6-8/layer6-8_O12_to_O3.jpg,OO,layer6-8,,,,,0.0,65.0,65.0,65.0,,,,,1035.8091391767375,None,3.0,2.0758651099167764,1035.8091391767375,None,1035.8091391767375,None,1035.8091391767375,None,1,2022_Apr_26_1002,Semantic-hierachy,2021.1.2,60.337352118170045,
216,Trial # 217,layer0-5_T10_to_T2.jpg,layer0-5/layer0-5_T10_to_T2.jpg,TT,layer0-5,,,,,0.0,66.0,66.0,66.0,,,,,1038.6774304928258,None,1.0,5.098245945759118,1038.6774304928258,None,1038.6774304928258,None,1038.6774304928258,None,1,2022_Apr_26_1002,Semantic-hierachy,2021.1.2,60.337352118170045,
217,Trial # 218,layer9-17_O10_to_O6.jpg,layer9-17/layer9-17_O10_to_O6.jpg,OO,layer9-17,,,,,0.0,67.0,67.0,67.0,,,,,1044.4789494457657,None,4.0,6.765120911877602,1044.4789494457657,None,1044.4789494457657,None,1044.4789494457657,None,1,2022_Apr_26_1002,Semantic-hierachy,2021.1.2,60.337352118170045,
218,Trial # 219,layer6-8_O6_to_O9.jpg,layer6-8/layer6-8_O6_to_O9.jpg,OO,layer6-8,,,,,0.0,68.0,68.0,68.0,,,,,1052.1654679146595,None,3.0,2.3202469549141824,1052.1654679146595,None,1052.1654679146595,None,1052.1654679146595,None,1,2022_Apr_26_1002,Semantic-hierachy,2021.1.2,60.337352118170045,
219,Trial # 220,layer0-5_O7_to_T2.jpg,layer0-5/layer0-5_O7_to_T2.jpg,OT,layer0-5,,,,,0.0,69.0,69.0,69.0,,,,,1055.3152895206586,None,1.0,1.7616959949955344,1055.3152895206586,None,1055.3152895206586,None,1055.3152895206586,None,1,2022_Apr_26_1002,Semantic-hierachy,2021.1.2,60.337352118170045,
220,Trial # 221,layer9-17_T12_to_T2.jpg,layer9-17/layer9-17_T12_to_T2.jpg,TT,layer9-17,,,,,0.0,70.0,70.0,70.0,,,,,1057.8674685047008,None,2.0,5.995220178272575,1057.8674685047008,None,1057.8674685047008,None,1057.8674685047008,None,1,2022_Apr_26_1002,Semantic-hierachy,2021.1.2,60.337352118170045,
221,Trial # 222,layer9-17_O8_to_T11.jpg,layer9-17/layer9-17_O8_to_T11.jpg,OT,layer9-17,,,,,0.0,71.0,71.0,71.0,,,,,1065.0519563788548,None,4.0,2.711847884114832,1065.0519563788548,None,1065.0519563788548,None,1065.0519563788548,None,1,2022_Apr_26_1002,Semantic-hierachy,2021.1.2,60.337352118170045,
222,Trial # 223,layer6-8_O3_to_T9.jpg,layer6-8/layer6-8_O3_to_T9.jpg,OT,layer6-8,,,,,0.0,72.0,72.0,72.0,,,,,1068.5871714870443,None,2.0,2.181103019975126,1068.5871714870443,None,1068.5871714870443,None,1068.5871714870443,None,1,2022_Apr_26_1002,Semantic-hierachy,2021.1.2,60.337352118170045,
223,Trial # 224,layer0-5_O6_to_O9.jpg,layer0-5/layer0-5_O6_to_O9.jpg,OO,layer0-5,,,,,0.0,73.0,73.0,73.0,,,,,1071.55474934401,None,1.0,2.059542446862906,1071.55474934401,None,1071.55474934401,None,1071.55474934401,None,1,2022_Apr_26_1002,Semantic-hierachy,2021.1.2,60.337352118170045,
224,Trial # 225,layer0-5_O12_to_T1.jpg,layer0-5/layer0-5_O12_to_T1.jpg,OT,layer0-5,,,,,0.0,74.0,74.0,74.0,,,,,1074.5218858979642,None,1.0,1.4457085621543229,1074.5218858979642,None,1074.5218858979642,None,1074.5218858979642,None,1,2022_Apr_26_1002,Semantic-hierachy,2021.1.2,60.337352118170045,
225,Trial # 226,layer9-17_O2_to_T8.jpg,layer9-17/layer9-17_O2_to_T8.jpg,OT,layer9-17,,,,,0.0,75.0,75.0,75.0,,,,,1076.9220195189118,None,2.0,3.5429313918575644,1076.9220195189118,None,1076.9220195189118,None,1076.9220195189118,None,1,2022_Apr_26_1002,Semantic-hierachy,2021.1.2,60.337352118170045,
226,Trial # 227,layer0-5_T4_to_T8.jpg,layer0-5/layer0-5_T4_to_T8.jpg,TT,layer0-5,,,,,0.0,76.0,76.0,76.0,,,,,1081.207430515904,None,1.0,1.659073270857334,1081.207430515904,None,1081.207430515904,None,1081.207430515904,None,1,2022_Apr_26_1002,Semantic-hierachy,2021.1.2,60.337352118170045,
227,Trial # 228,layer9-17_O2_to_T1.jpg,layer9-17/layer9-17_O2_to_T1.jpg,OT,layer9-17,,,,,0.0,77.0,77.0,77.0,,,,,1083.558946569916,None,4.0,3.02966464869678,1083.558946569916,None,1083.558946569916,None,1083.558946569916,None,1,2022_Apr_26_1002,Semantic-hierachy,2021.1.2,60.337352118170045,
228,Trial # 229,layer0-5_O11_to_O7.jpg,layer0-5/layer0-5_O11_to_O7.jpg,OO,layer0-5,,,,,0.0,78.0,78.0,78.0,,,,,1087.4426310067065,None,1.0,1.7467881799675524,1087.4426310067065,None,1087.4426310067065,None,1087.4426310067065,None,1,2022_Apr_26_1002,Semantic-hierachy,2021.1.2,60.337352118170045,
229,Trial # 230,layer6-8_T2_to_T8.jpg,layer6-8/layer6-8_T2_to_T8.jpg,TT,layer6-8,,,,,0.0,79.0,79.0,79.0,,,,,1090.1096679987386,None,3.0,5.363352375105023,1090.1096679987386,None,1090.1096679987386,None,1090.1096679987386,None,1,2022_Apr_26_1002,Semantic-hierachy,2021.1.2,60.337352118170045,
230,Trial # 231,layer9-17_T4_to_T8.jpg,layer9-17/layer9-17_T4_to_T8.jpg,TT,layer9-17,,,,,0.0,80.0,80.0,80.0,,,,,1096.3616542206146,None,2.0,2.1130524962209165,1096.3616542206146,None,1096.3616542206146,None,1096.3616542206146,None,1,2022_Apr_26_1002,Semantic-hierachy,2021.1.2,60.337352118170045,
231,Trial # 232,layer9-17_T11_to_T3.jpg,layer9-17/layer9-17_T11_to_T3.jpg,TT,layer9-17,,,,,0.0,81.0,81.0,81.0,,,,,1099.464027042035,None,2.0,1.310993968974799,1099.464027042035,None,1099.464027042035,None,1099.464027042035,None,1,2022_Apr_26_1002,Semantic-hierachy,2021.1.2,60.337352118170045,
232,Trial # 233,layer0-5_O3_to_T9.jpg,layer0-5/layer0-5_O3_to_T9.jpg,OT,layer0-5,,,,,0.0,82.0,82.0,82.0,,,,,1101.7633500657976,None,1.0,1.8655266482383013,1101.7633500657976,None,1101.7633500657976,None,1101.7633500657976,None,1,2022_Apr_26_1002,Semantic-hierachy,2021.1.2,60.337352118170045,
233,Trial # 234,layer9-17_T7_to_T8.jpg,layer9-17/layer9-17_T7_to_T8.jpg,TT,layer9-17,,,,,0.0,83.0,83.0,83.0,,,,,1104.4310592380352,None,3.0,4.043670437764376,1104.4310592380352,None,1104.4310592380352,None,1104.4310592380352,None,1,2022_Apr_26_1002,Semantic-hierachy,2021.1.2,60.337352118170045,
234,Trial # 235,layer9-17_O3_to_O4.jpg,layer9-17/layer9-17_O3_to_O4.jpg,OO,layer9-17,,,,,0.0,84.0,84.0,84.0,,,,,1109.665833403822,None,2.0,3.346371987834573,1109.665833403822,None,1109.665833403822,None,1109.665833403822,None,1,2022_Apr_26_1002,Semantic-hierachy,2021.1.2,60.337352118170045,
235,Trial # 236,layer6-8_O8_to_T6.jpg,layer6-8/layer6-8_O8_to_T6.jpg,OT,layer6-8,,,,,0.0,85.0,85.0,85.0,,,,,1113.834858876653,None,3.0,2.1982533801347017,1113.834858876653,None,1113.834858876653,None,1113.834858876653,None,1,2022_Apr_26_1002,Semantic-hierachy,2021.1.2,60.337352118170045,
236,Trial # 237,layer9-17_T6_to_T7.jpg,layer9-17/layer9-17_T6_to_T7.jpg,TT,layer9-17,,,,,0.0,86.0,86.0,86.0,,,,,1116.8851642836817,None,2.0,1.6926011363975704,1116.8851642836817,None,1116.8851642836817,None,1116.8851642836817,None,1,2022_Apr_26_1002,Semantic-hierachy,2021.1.2,60.337352118170045,
237,Trial # 238,layer0-5_T2_to_T9.jpg,layer0-5/layer0-5_T2_to_T9.jpg,TT,layer0-5,,,,,0.0,87.0,87.0,87.0,,,,,1119.386641887948,None,1.0,2.0619164840318263,1119.386641887948,None,1119.386641887948,None,1119.386641887948,None,1,2022_Apr_26_1002,Semantic-hierachy,2021.1.2,60.337352118170045,
238,Trial # 239,layer0-5_O2_to_O5.jpg,layer0-5/layer0-5_O2_to_O5.jpg,OO,layer0-5,,,,,0.0,88.0,88.0,88.0,,,,,1122.2374408608302,None,1.0,3.794076958205551,1122.2374408608302,None,1122.2374408608302,None,1122.2374408608302,None,1,2022_Apr_26_1002,Semantic-hierachy,2021.1.2,60.337352118170045,
239,Trial # 240,layer6-8_O1_to_O5.jpg,layer6-8/layer6-8_O1_to_O5.jpg,OO,layer6-8,,,,,0.0,89.0,89.0,89.0,,,,,1126.887589334976,None,4.0,3.1103428630158305,1126.887589334976,None,1126.887589334976,None,1126.887589334976,None,1,2022_Apr_26_1002,Semantic-hierachy,2021.1.2,60.337352118170045,
240,Trial # 241,layer9-17_O3_to_O7.jpg,layer9-17/layer9-17_O3_to_O7.jpg,OO,layer9-17,,,,,0.0,90.0,90.0,90.0,,,,,1130.7052652309649,None,2.0,1.7762253787368536,1130.7052652309649,None,1130.7052652309649,None,1130.7052652309649,None,1,2022_Apr_26_1002,Semantic-hierachy,2021.1.2,60.337352118170045,
241,Trial # 242,layer6-8_O11_to_O8.jpg,layer6-8/layer6-8_O11_to_O8.jpg,OO,layer6-8,,,,,0.0,91.0,91.0,91.0,,,,,1132.9401830099523,None,4.0,5.510809418745339,1132.9401830099523,None,1132.9401830099523,None,1132.9401830099523,None,1,2022_Apr_26_1002,Semantic-hierachy,2021.1.2,60.337352118170045,
242,Trial # 243,layer9-17_T1_to_T12.jpg,layer9-17/layer9-17_T1_to_T12.jpg,TT,layer9-17,,,,,0.0,92.0,92.0,92.0,,,,,1138.975010159891,None,2.0,1.993001203984022,1138.975010159891,None,1138.975010159891,None,1138.975010159891,None,1,2022_Apr_26_1002,Semantic-hierachy,2021.1.2,60.337352118170045,
243,Trial # 244,layer9-17_O6_to_O8.jpg,layer9-17/layer9-17_O6_to_O8.jpg,OO,layer9-17,,,,,0.0,93.0,93.0,93.0,,,,,1141.4423489328474,None,4.0,2.559590539429337,1141.4423489328474,None,1141.4423489328474,None,1141.4423489328474,None,1,2022_Apr_26_1002,Semantic-hierachy,2021.1.2,60.337352118170045,
244,Trial # 245,layer6-8_O4_to_T11.jpg,layer6-8/layer6-8_O4_to_T11.jpg,OT,layer6-8,,,,,0.0,94.0,94.0,94.0,,,,,1144.376609781757,None,3.0,3.5776996868662536,1144.376609781757,None,1144.376609781757,None,1144.376609781757,None,1,2022_Apr_26_1002,Semantic-hierachy,2021.1.2,60.337352118170045,
245,Trial # 246,layer9-17_T10_to_T3.jpg,layer9-17/layer9-17_T10_to_T3.jpg,TT,layer9-17,,,,,0.0,95.0,95.0,95.0,,,,,1148.211969869677,None,2.0,1.813593347091228,1148.211969869677,None,1148.211969869677,None,1148.211969869677,None,1,2022_Apr_26_1002,Semantic-hierachy,2021.1.2,60.337352118170045,
246,Trial # 247,layer0-5_O10_to_O8.jpg,layer0-5/layer0-5_O10_to_O8.jpg,OO,layer0-5,,,,,0.0,96.0,96.0,96.0,,,,,1150.5618782606907,None,1.0,2.1163115450181067,1150.5618782606907,None,1150.5618782606907,None,1150.5618782606907,None,1,2022_Apr_26_1002,Semantic-hierachy,2021.1.2,60.337352118170045,
247,Trial # 248,layer6-8_O3_to_T12.jpg,layer6-8/layer6-8_O3_to_T12.jpg,OT,layer6-8,,,,,0.0,97.0,97.0,97.0,,,,,1153.43079570774,None,2.0,1.7440327377989888,1153.43079570774,None,1153.43079570774,None,1153.43079570774,None,1,2022_Apr_26_1002,Semantic-hierachy,2021.1.2,60.337352118170045,
248,Trial # 249,layer0-5_O12_to_T9.jpg,layer0-5/layer0-5_O12_to_T9.jpg,OT,layer0-5,,,,,0.0,98.0,98.0,98.0,,,,,1155.5635841935873,None,1.0,1.5759439673274755,1155.5635841935873,None,1155.5635841935873,None,1155.5635841935873,None,1,2022_Apr_26_1002,Semantic-hierachy,2021.1.2,60.337352118170045,
249,Trial # 250,layer9-17_T1_to_T9.jpg,layer9-17/layer9-17_T1_to_T9.jpg,TT,layer9-17,,,,,0.0,99.0,99.0,99.0,,,,,1157.6484893597662,None,4.0,5.074519938323647,1157.6484893597662,None,1157.6484893597662,None,1157.6484893597662,None,1,2022_Apr_26_1002,Semantic-hierachy,2021.1.2,60.337352118170045,
250,Trial # 251,layer9-17_T11_to_T8.jpg,layer9-17/layer9-17_T11_to_T8.jpg,TT,layer9-17,,,,,0.0,100.0,100.0,100.0,,,,,1163.1497597219422,None,2.0,1.942270767875016,1163.1497597219422,None,1163.1497597219422,None,1163.1497597219422,None,1,2022_Apr_26_1002,Semantic-hierachy,2021.1.2,60.337352118170045,
251,Trial # 252,layer9-17_T11_to_T5.jpg,layer9-17/layer9-17_T11_to_T5.jpg,TT,layer9-17,,,,,0.0,101.0,101.0,101.0,,,,,1165.6002713418566,None,3.0,2.0613693832419813,1165.6002713418566,None,1165.6002713418566,None,1165.6002713418566,None,1,2022_Apr_26_1002,Semantic-hierachy,2021.1.2,60.337352118170045,
252,Trial # 253,layer6-8_T10_to_T12.jpg,layer6-8/layer6-8_T10_to_T12.jpg,TT,layer6-8,,,,,0.0,102.0,102.0,102.0,,,,,1168.1518745347855,None,3.0,22.30091442214325,1168.1518745347855,None,1168.1518745347855,None,1168.1518745347855,None,1,2022_Apr_26_1002,Semantic-hierachy,2021.1.2,60.337352118170045,
253,Trial # 254,layer9-17_O5_to_T1.jpg,layer9-17/layer9-17_O5_to_T1.jpg,OT,layer9-17,,,,,0.0,103.0,103.0,103.0,,,,,1191.45800454868,None,2.0,1.7111016777344048,1191.45800454868,None,1191.45800454868,None,1191.45800454868,None,1,2022_Apr_26_1002,Semantic-hierachy,2021.1.2,60.337352118170045,
254,Trial # 255,layer6-8_T2_to_T3.jpg,layer6-8/layer6-8_T2_to_T3.jpg,TT,layer6-8,,,,,0.0,104.0,104.0,104.0,,,,,1194.4929024078883,None,3.0,2.3764995629899204,1194.4929024078883,None,1194.4929024078883,None,1194.4929024078883,None,1,2022_Apr_26_1002,Semantic-hierachy,2021.1.2,60.337352118170045,
255,Trial # 256,layer6-8_O2_to_T6.jpg,layer6-8/layer6-8_O2_to_T6.jpg,OT,layer6-8,,,,,0.0,105.0,105.0,105.0,,,,,1197.4936323659497,None,3.0,1.4986946848221123,1197.4936323659497,None,1197.4936323659497,None,1197.4936323659497,None,1,2022_Apr_26_1002,Semantic-hierachy,2021.1.2,60.337352118170045,
256,Trial # 257,layer6-8_T11_to_T9.jpg,layer6-8/layer6-8_T11_to_T9.jpg,TT,layer6-8,,,,,0.0,106.0,106.0,106.0,,,,,1199.4933830886148,None,4.0,2.593631529714912,1199.4933830886148,None,1199.4933830886148,None,1199.4933830886148,None,1,2022_Apr_26_1002,Semantic-hierachy,2021.1.2,60.337352118170045,
257,Trial # 258,layer6-8_O5_to_T9.jpg,layer6-8/layer6-8_O5_to_T9.jpg,OT,layer6-8,,,,,0.0,107.0,107.0,107.0,,,,,1202.4956096350215,None,3.0,2.7761865300126374,1202.4956096350215,None,1202.4956096350215,None,1202.4956096350215,None,1,2022_Apr_26_1002,Semantic-hierachy,2021.1.2,60.337352118170045,
258,Trial # 259,layer6-8_O9_to_T8.jpg,layer6-8/layer6-8_O9_to_T8.jpg,OT,layer6-8,,,,,0.0,108.0,108.0,108.0,,,,,1205.9788217027672,None,3.0,1.2738408050499856,1205.9788217027672,None,1205.9788217027672,None,1205.9788217027672,None,1,2022_Apr_26_1002,Semantic-hierachy,2021.1.2,60.337352118170045,
259,Trial # 260,layer6-8_T1_to_T5.jpg,layer6-8/layer6-8_T1_to_T5.jpg,TT,layer6-8,,,,,0.0,109.0,109.0,109.0,,,,,1207.863037191797,None,4.0,2.9084686650894582,1207.863037191797,None,1207.863037191797,None,1207.863037191797,None,1,2022_Apr_26_1002,Semantic-hierachy,2021.1.2,60.337352118170045,
260,Trial # 261,layer0-5_O11_to_T2.jpg,layer0-5/layer0-5_O11_to_T2.jpg,OT,layer0-5,,,,,0.0,110.0,110.0,110.0,,,,,1211.364337770734,None,1.0,1.7416413589380682,1211.364337770734,None,1211.364337770734,None,1211.364337770734,None,1,2022_Apr_26_1002,Semantic-hierachy,2021.1.2,60.337352118170045,
261,Trial # 262,layer0-5_O7_to_T4.jpg,layer0-5/layer0-5_O7_to_T4.jpg,OT,layer0-5,,,,,0.0,111.0,111.0,111.0,,,,,1213.648514624685,None,1.0,1.4603654933162034,1213.648514624685,None,1213.648514624685,None,1213.648514624685,None,1,2022_Apr_26_1002,Semantic-hierachy,2021.1.2,60.337352118170045,
262,Trial # 263,layer6-8_T12_to_T8.jpg,layer6-8/layer6-8_T12_to_T8.jpg,TT,layer6-8,,,,,0.0,112.0,112.0,112.0,,,,,1215.615553184878,None,3.0,2.554149989038706,1215.615553184878,None,1215.615553184878,None,1215.615553184878,None,1,2022_Apr_26_1002,Semantic-hierachy,2021.1.2,60.337352118170045,
263,Trial # 264,layer6-8_O4_to_O9.jpg,layer6-8/layer6-8_O4_to_O9.jpg,OO,layer6-8,,,,,0.0,113.0,113.0,113.0,,,,,1218.5839073127136,None,4.0,2.1761984429322183,1218.5839073127136,None,1218.5839073127136,None,1218.5839073127136,None,1,2022_Apr_26_1002,Semantic-hierachy,2021.1.2,60.337352118170045,
264,Trial # 265,layer0-5_T1_to_T5.jpg,layer0-5/layer0-5_T1_to_T5.jpg,TT,layer0-5,,,,,0.0,114.0,114.0,114.0,,,,,1221.3006855836138,None,1.0,2.4972291509620845,1221.3006855836138,None,1221.3006855836138,None,1221.3006855836138,None,1,2022_Apr_26_1002,Semantic-hierachy,2021.1.2,60.337352118170045,
265,Trial # 266,layer0-5_O12_to_O7.jpg,layer0-5/layer0-5_O12_to_O7.jpg,OO,layer0-5,,,,,0.0,115.0,115.0,115.0,,,,,1224.5013316138647,None,1.0,2.0407041618600488,1224.5013316138647,None,1224.5013316138647,None,1224.5013316138647,None,1,2022_Apr_26_1002,Semantic-hierachy,2021.1.2,60.337352118170045,
266,Trial # 267,layer6-8_T8_to_T9.jpg,layer6-8/layer6-8_T8_to_T9.jpg,TT,layer6-8,,,,,0.0,116.0,116.0,116.0,,,,,1226.985261476599,None,3.0,2.181129926349968,1226.985261476599,None,1226.985261476599,None,1226.985261476599,None,1,2022_Apr_26_1002,Semantic-hierachy,2021.1.2,60.337352118170045,
267,Trial # 268,layer9-17_O11_to_T10.jpg,layer9-17/layer9-17_O11_to_T10.jpg,OT,layer9-17,,,,,0.0,117.0,117.0,117.0,,,,,1229.5863300599158,None,2.0,1.906558820977807,1229.5863300599158,None,1229.5863300599158,None,1229.5863300599158,None,1,2022_Apr_26_1002,Semantic-hierachy,2021.1.2,60.337352118170045,
268,Trial # 269,layer0-5_O8_to_T9.jpg,layer0-5/layer0-5_O8_to_T9.jpg,OT,layer0-5,,,,,0.0,118.0,118.0,118.0,,,,,1232.1380308298394,None,1.0,1.664301420096308,1232.1380308298394,None,1232.1380308298394,None,1232.1380308298394,None,1,2022_Apr_26_1002,Semantic-hierachy,2021.1.2,60.337352118170045,
269,Trial # 270,layer9-17_O10_to_O11.jpg,layer9-17/layer9-17_O10_to_O11.jpg,OO,layer9-17,,,,,0.0,119.0,119.0,119.0,,,,,1234.305726967752,None,2.0,3.211767530068755,1234.305726967752,None,1234.305726967752,None,1234.305726967752,None,1,2022_Apr_26_1002,Semantic-hierachy,2021.1.2,60.337352118170045,
270,Trial # 271,layer0-5_T1_to_T9.jpg,layer0-5/layer0-5_T1_to_T9.jpg,TT,layer0-5,,,,,0.0,120.0,120.0,120.0,,,,,1238.139213306829,None,1.0,2.2618904132395983,1238.139213306829,None,1238.139213306829,None,1238.139213306829,None,1,2022_Apr_26_1002,Semantic-hierachy,2021.1.2,60.337352118170045,
271,Trial # 272,layer6-8_T11_to_T8.jpg,layer6-8/layer6-8_T11_to_T8.jpg,TT,layer6-8,,,,,0.0,121.0,121.0,121.0,,,,,1240.7727653156037,None,3.0,2.6569807892665267,1240.7727653156037,None,1240.7727653156037,None,1240.7727653156037,None,1,2022_Apr_26_1002,Semantic-hierachy,2021.1.2,60.337352118170045,
272,Trial # 273,layer9-17_O10_to_O12.jpg,layer9-17/layer9-17_O10_to_O12.jpg,OO,layer9-17,,,,,0.0,122.0,122.0,122.0,,,,,1244.2082635397092,None,2.0,1.606487934011966,1244.2082635397092,None,1244.2082635397092,None,1244.2082635397092,None,1,2022_Apr_26_1002,Semantic-hierachy,2021.1.2,60.337352118170045,
273,Trial # 274,layer0-5_T12_to_T6.jpg,layer0-5/layer0-5_T12_to_T6.jpg,TT,layer0-5,,,,,0.0,123.0,123.0,123.0,,,,,1246.241780940909,None,1.0,3.774229801725596,1246.241780940909,None,1246.241780940909,None,1246.241780940909,None,1,2022_Apr_26_1002,Semantic-hierachy,2021.1.2,60.337352118170045,
274,Trial # 275,layer9-17_O11_to_O5.jpg,layer9-17/layer9-17_O11_to_O5.jpg,OO,layer9-17,,,,,0.0,124.0,124.0,124.0,,,,,1250.8933286727406,None,4.0,3.1332899970002472,1250.8933286727406,None,1250.8933286727406,None,1250.8933286727406,None,1,2022_Apr_26_1002,Semantic-hierachy,2021.1.2,60.337352118170045,
275,Trial # 276,layer9-17_O1_to_O4.jpg,layer9-17/layer9-17_O1_to_O4.jpg,OO,layer9-17,,,,,0.0,125.0,125.0,125.0,,,,,1254.4940282236785,None,4.0,1.937453368213028,1254.4940282236785,None,1254.4940282236785,None,1254.4940282236785,None,1,2022_Apr_26_1002,Semantic-hierachy,2021.1.2,60.337352118170045,
276,Trial # 277,layer6-8_O11_to_O3.jpg,layer6-8/layer6-8_O11_to_O3.jpg,OO,layer6-8,,,,,0.0,126.0,126.0,126.0,,,,,1256.8944067219272,None,2.0,8.843067557085305,1256.8944067219272,None,1256.8944067219272,None,1256.8944067219272,None,1,2022_Apr_26_1002,Semantic-hierachy,2021.1.2,60.337352118170045,
277,Trial # 278,layer6-8_T10_to_T11.jpg,layer6-8/layer6-8_T10_to_T11.jpg,TT,layer6-8,,,,,0.0,127.0,127.0,127.0,,,,,1266.6807188196108,None,3.0,2.4117711037397385,1266.6807188196108,None,1266.6807188196108,None,1266.6807188196108,None,1,2022_Apr_26_1002,Semantic-hierachy,2021.1.2,60.337352118170045,
278,Trial # 279,layer0-5_O7_to_T3.jpg,layer0-5/layer0-5_O7_to_T3.jpg,OT,layer0-5,,,,,0.0,128.0,128.0,128.0,,,,,1270.9490667199716,None,1.0,1.5545679847709837,1270.9490667199716,None,1270.9490667199716,None,1270.9490667199716,None,1,2022_Apr_26_1002,Semantic-hierachy,2021.1.2,60.337352118170045,
279,Trial # 280,layer9-17_T1_to_T10.jpg,layer9-17/layer9-17_T1_to_T10.jpg,TT,layer9-17,,,,,0.0,129.0,129.0,129.0,,,,,1273.0840917616151,None,2.0,2.1052608396857977,1273.0840917616151,None,1273.0840917616151,None,1273.0840917616151,None,1,2022_Apr_26_1002,Semantic-hierachy,2021.1.2,60.337352118170045,
280,Trial # 281,layer9-17_O6_to_T7.jpg,layer9-17/layer9-17_O6_to_T7.jpg,OT,layer9-17,,,,,0.0,130.0,130.0,130.0,,,,,1276.0675211888738,None,2.0,1.2451695469208062,1276.0675211888738,None,1276.0675211888738,None,1276.0675211888738,None,1,2022_Apr_26_1002,Semantic-hierachy,2021.1.2,60.337352118170045,
281,Trial # 282,layer0-5_O10_to_O7.jpg,layer0-5/layer0-5_O10_to_O7.jpg,OO,layer0-5,,,,,0.0,131.0,131.0,131.0,,,,,1277.7026687120087,None,1.0,2.0617736158892512,1277.7026687120087,None,1277.7026687120087,None,1277.7026687120087,None,1,2022_Apr_26_1002,Semantic-hierachy,2021.1.2,60.337352118170045,
282,Trial # 283,layer0-5_O1_to_O11.jpg,layer0-5/layer0-5_O1_to_O11.jpg,OO,layer0-5,,,,,0.0,132.0,132.0,132.0,,,,,1280.5855436190031,None,1.0,1.4781979438848794,1280.5855436190031,None,1280.5855436190031,None,1280.5855436190031,None,1,2022_Apr_26_1002,Semantic-hierachy,2021.1.2,60.337352118170045,
283,Trial # 284,layer6-8_O7_to_O8.jpg,layer6-8/layer6-8_O7_to_O8.jpg,OO,layer6-8,,,,,0.0,133.0,133.0,133.0,,,,,1282.85403979104,None,2.0,2.377925072796643,1282.85403979104,None,1282.85403979104,None,1282.85403979104,None,1,2022_Apr_26_1002,Semantic-hierachy,2021.1.2,60.337352118170045,
284,Trial # 285,layer0-5_T7_to_T8.jpg,layer0-5/layer0-5_T7_to_T8.jpg,TT,layer0-5,,,,,0.0,134.0,134.0,134.0,,,,,1285.603484250605,None,1.0,1.8742102421820164,1285.603484250605,None,1285.603484250605,None,1285.603484250605,None,1,2022_Apr_26_1002,Semantic-hierachy,2021.1.2,60.337352118170045,
285,Trial # 286,layer9-17_T11_to_T6.jpg,layer9-17/layer9-17_T11_to_T6.jpg,TT,layer9-17,,,,,0.0,135.0,135.0,135.0,,,,,1287.9057042789643,None,2.0,3.0569306509569287,1287.9057042789643,None,1287.9057042789643,None,1287.9057042789643,None,1,2022_Apr_26_1002,Semantic-hierachy,2021.1.2,60.337352118170045,
286,Trial # 287,layer0-5_T2_to_T7.jpg,layer0-5/layer0-5_T2_to_T7.jpg,TT,layer0-5,,,,,0.0,136.0,136.0,136.0,,,,,1291.4384035076946,None,1.0,2.240140836220234,1291.4384035076946,None,1291.4384035076946,None,1291.4384035076946,None,1,2022_Apr_26_1002,Semantic-hierachy,2021.1.2,60.337352118170045,
287,Trial # 288,layer9-17_O10_to_O2.jpg,layer9-17/layer9-17_O10_to_O2.jpg,OO,layer9-17,,,,,0.0,137.0,137.0,137.0,,,,,1294.040517212823,None,2.0,1.8910327488556504,1294.040517212823,None,1294.040517212823,None,1294.040517212823,None,1,2022_Apr_26_1002,Semantic-hierachy,2021.1.2,60.337352118170045,
288,Trial # 289,layer0-5_T10_to_T9.jpg,layer0-5/layer0-5_T10_to_T9.jpg,TT,layer0-5,,,,,0.0,138.0,138.0,138.0,,,,,1296.3575050919317,None,1.0,5.387230487074703,1296.3575050919317,None,1296.3575050919317,None,1296.3575050919317,None,1,2022_Apr_26_1002,Semantic-hierachy,2021.1.2,60.337352118170045,
289,Trial # 290,layer6-8_O11_to_O5.jpg,layer6-8/layer6-8_O11_to_O5.jpg,OO,layer6-8,,,,,0.0,139.0,139.0,139.0,,,,,1302.1759067177773,None,2.0,2.75840000808239,1302.1759067177773,None,1302.1759067177773,None,1302.1759067177773,None,1,2022_Apr_26_1002,Semantic-hierachy,2021.1.2,60.337352118170045,
290,Trial # 291,layer6-8_O3_to_O7.jpg,layer6-8/layer6-8_O3_to_O7.jpg,OO,layer6-8,,,,,0.0,140.0,140.0,140.0,,,,,1305.3099912256002,None,4.0,3.4968312080018222,1305.3099912256002,None,1305.3099912256002,None,1305.3099912256002,None,1,2022_Apr_26_1002,Semantic-hierachy,2021.1.2,60.337352118170045,
291,Trial # 292,layer9-17_O12_to_T11.jpg,layer9-17/layer9-17_O12_to_T11.jpg,OT,layer9-17,,,,,0.0,141.0,141.0,141.0,,,,,1309.277678617742,None,2.0,1.6779129020869732,1309.277678617742,None,1309.277678617742,None,1309.277678617742,None,1,2022_Apr_26_1002,Semantic-hierachy,2021.1.2,60.337352118170045,
292,Trial # 293,layer9-17_O2_to_O4.jpg,layer9-17/layer9-17_O2_to_O4.jpg,OO,layer9-17,,,,,0.0,142.0,142.0,142.0,,,,,1312.0282990089618,None,4.0,2.4927516346797347,1312.0282990089618,None,1312.0282990089618,None,1312.0282990089618,None,1,2022_Apr_26_1002,Semantic-hierachy,2021.1.2,60.337352118170045,
293,Trial # 294,layer6-8_O1_to_T12.jpg,layer6-8/layer6-8_O1_to_T12.jpg,OT,layer6-8,,,,,0.0,143.0,143.0,143.0,,,,,1315.0459328340366,None,3.0,2.458804454188794,1315.0459328340366,None,1315.0459328340366,None,1315.0459328340366,None,1,2022_Apr_26_1002,Semantic-hierachy,2021.1.2,60.337352118170045,
294,Trial # 295,layer9-17_O11_to_T5.jpg,layer9-17/layer9-17_O11_to_T5.jpg,OT,layer9-17,,,,,0.0,144.0,144.0,144.0,,,,,1317.8476547319442,None,4.0,4.969591865316033,1317.8476547319442,None,1317.8476547319442,None,1317.8476547319442,None,1,2022_Apr_26_1002,Semantic-hierachy,2021.1.2,60.337352118170045,
295,Trial # 296,layer0-5_O10_to_O9.jpg,layer0-5/layer0-5_O10_to_O9.jpg,OO,layer0-5,,,,,0.0,145.0,145.0,145.0,,,,,1330.0509126437828,None,1.0,2.7940748571418226,1330.0509126437828,None,1330.0509126437828,None,1330.0509126437828,None,1,2022_Apr_26_1002,Semantic-hierachy,2021.1.2,60.337352118170045,
296,Trial # 297,layer6-8_O12_to_T10.jpg,layer6-8/layer6-8_O12_to_T10.jpg,OT,layer6-8,,,,,0.0,146.0,146.0,146.0,,,,,1333.4027312747205,None,3.0,1.7764094360172749,1333.4027312747205,None,1333.4027312747205,None,1333.4027312747205,None,1,2022_Apr_26_1002,Semantic-hierachy,2021.1.2,60.337352118170045,
297,Trial # 298,layer6-8_O3_to_T2.jpg,layer6-8/layer6-8_O3_to_T2.jpg,OT,layer6-8,,,,,0.0,147.0,147.0,147.0,,,,,1335.7692531398498,None,2.0,1.8778854962438345,1335.7692531398498,None,1335.7692531398498,None,1335.7692531398498,None,1,2022_Apr_26_1002,Semantic-hierachy,2021.1.2,60.337352118170045,
298,Trial # 299,layer9-17_O2_to_T5.jpg,layer9-17/layer9-17_O2_to_T5.jpg,OT,layer9-17,,,,,0.0,148.0,148.0,148.0,,,,,1338.0878107449971,None,4.0,2.492463802918792,1338.0878107449971,None,1338.0878107449971,None,1338.0878107449971,None,1,2022_Apr_26_1002,Semantic-hierachy,2021.1.2,60.337352118170045,
299,Trial # 300,layer0-5_O3_to_T7.jpg,layer0-5/layer0-5_O3_to_T7.jpg,OT,layer0-5,,,,,0.0,149.0,149.0,149.0,,,,,1341.2043093978427,None,1.0,2.1722413348034024,1341.2043093978427,None,1341.2043093978427,None,1341.2043093978427,None,1,2022_Apr_26_1002,Semantic-hierachy,2021.1.2,60.337352118170045,
300,Trial # 301,layer9-17_O11_to_O6.jpg,layer9-17/layer9-17_O11_to_O6.jpg,OO,layer9-17,,,,,,,,,0.0,0.0,0.0,0.0,1397.272567624692,None,4.0,7.353921251837164,1397.272567624692,None,1397.272567624692,None,1397.272567624692,None,1,2022_Apr_26_1002,Semantic-hierachy,2021.1.2,60.337352118170045,
301,Trial # 302,layer0-5_O3_to_O7.jpg,layer0-5/layer0-5_O3_to_O7.jpg,OO,layer0-5,,,,,,,,,0.0,1.0,1.0,1.0,1404.9910703939386,None,1.0,1.7017078436911106,1404.9910703939386,None,1404.9910703939386,None,1404.9910703939386,None,1,2022_Apr_26_1002,Semantic-hierachy,2021.1.2,60.337352118170045,
302,Trial # 303,layer6-8_O11_to_T3.jpg,layer6-8/layer6-8_O11_to_T3.jpg,OT,layer6-8,,,,,,,,,0.0,2.0,2.0,2.0,1407.1257303915918,None,3.0,2.6571970521472394,1407.1257303915918,None,1407.1257303915918,None,1407.1257303915918,None,1,2022_Apr_26_1002,Semantic-hierachy,2021.1.2,60.337352118170045,
303,Trial # 304,layer6-8_O2_to_T7.jpg,layer6-8/layer6-8_O2_to_T7.jpg,OT,layer6-8,,,,,,,,,0.0,3.0,3.0,3.0,1410.175714707002,None,3.0,1.323615115135908,1410.175714707002,None,1410.175714707002,None,1410.175714707002,None,1,2022_Apr_26_1002,Semantic-hierachy,2021.1.2,60.337352118170045,
304,Trial # 305,layer0-5_T1_to_T7.jpg,layer0-5/layer0-5_T1_to_T7.jpg,TT,layer0-5,,,,,,,,,0.0,4.0,4.0,4.0,1412.0257155848667,None,1.0,2.153693789150566,1412.0257155848667,None,1412.0257155848667,None,1412.0257155848667,None,1,2022_Apr_26_1002,Semantic-hierachy,2021.1.2,60.337352118170045,
305,Trial # 306,layer6-8_O7_to_T11.jpg,layer6-8/layer6-8_O7_to_T11.jpg,OT,layer6-8,,,,,,,,,0.0,5.0,5.0,5.0,1414.6269440329634,None,3.0,3.194573209155351,1414.6269440329634,None,1414.6269440329634,None,1414.6269440329634,None,1,2022_Apr_26_1002,Semantic-hierachy,2021.1.2,60.337352118170045,
306,Trial # 307,layer9-17_O5_to_T5.jpg,layer9-17/layer9-17_O5_to_T5.jpg,OT,layer9-17,,,,,,,,,0.0,6.0,6.0,6.0,1418.1791321909986,None,2.0,1.6644649868831038,1418.1791321909986,None,1418.1791321909986,None,1418.1791321909986,None,1,2022_Apr_26_1002,Semantic-hierachy,2021.1.2,60.337352118170045,
307,Trial # 308,layer9-17_T12_to_T5.jpg,layer9-17/layer9-17_T12_to_T5.jpg,TT,layer9-17,,,,,,,,,0.0,7.0,7.0,7.0,1420.6790679856203,None,2.0,3.0602212296798825,1420.6790679856203,None,1420.6790679856203,None,1420.6790679856203,None,1,2022_Apr_26_1002,Semantic-hierachy,2021.1.2,60.337352118170045,
308,Trial # 309,layer6-8_O11_to_O2.jpg,layer6-8/layer6-8_O11_to_O2.jpg,OO,layer6-8,,,,,,,,,0.0,8.0,8.0,8.0,1424.3298765216025,None,3.0,2.138024441897869,1424.3298765216025,None,1424.3298765216025,None,1424.3298765216025,None,1,2022_Apr_26_1002,Semantic-hierachy,2021.1.2,60.337352118170045,
309,Trial # 310,layer6-8_O10_to_O7.jpg,layer6-8/layer6-8_O10_to_O7.jpg,OO,layer6-8,,,,,,,,,0.0,9.0,9.0,9.0,1426.9805866009556,None,4.0,5.220402783714235,1426.9805866009556,None,1426.9805866009556,None,1426.9805866009556,None,1,2022_Apr_26_1002,Semantic-hierachy,2021.1.2,60.337352118170045,
310,Trial # 311,layer9-17_O10_to_T11.jpg,layer9-17/layer9-17_O10_to_T11.jpg,OT,layer9-17,,,,,,,,,0.0,10.0,10.0,10.0,1432.71657235967,None,4.0,2.4685235708020627,1432.71657235967,None,1432.71657235967,None,1432.71657235967,None,1,2022_Apr_26_1002,Semantic-hierachy,2021.1.2,60.337352118170045,
311,Trial # 312,layer6-8_O11_to_O12.jpg,layer6-8/layer6-8_O11_to_O12.jpg,OO,layer6-8,,,,,,,,,0.0,11.0,11.0,11.0,1436.0666052126326,None,3.0,3.924681476783008,1436.0666052126326,None,1436.0666052126326,None,1436.0666052126326,None,1,2022_Apr_26_1002,Semantic-hierachy,2021.1.2,60.337352118170045,
312,Trial # 313,layer9-17_O9_to_T8.jpg,layer9-17/layer9-17_O9_to_T8.jpg,OT,layer9-17,,,,,,,,,0.0,12.0,12.0,12.0,1440.5679547409527,None,4.0,2.39274043077603,1440.5679547409527,None,1440.5679547409527,None,1440.5679547409527,None,1,2022_Apr_26_1002,Semantic-hierachy,2021.1.2,60.337352118170045,
313,Trial # 314,layer0-5_O3_to_T2.jpg,layer0-5/layer0-5_O3_to_T2.jpg,OT,layer0-5,,,,,,,,,0.0,13.0,13.0,13.0,1443.6694033956155,None,1.0,1.8895181301049888,1443.6694033956155,None,1443.6694033956155,None,1443.6694033956155,None,1,2022_Apr_26_1002,Semantic-hierachy,2021.1.2,60.337352118170045,
314,Trial # 315,layer9-17_T1_to_T11.jpg,layer9-17/layer9-17_T1_to_T11.jpg,TT,layer9-17,,,,,,,,,0.0,14.0,14.0,14.0,1445.9203545656055,None,2.0,1.7909687119536102,1445.9203545656055,None,1445.9203545656055,None,1445.9203545656055,None,1,2022_Apr_26_1002,Semantic-hierachy,2021.1.2,60.337352118170045,
315,Trial # 316,layer6-8_T10_to_T7.jpg,layer6-8/layer6-8_T10_to_T7.jpg,TT,layer6-8,,,,,,,,,0.0,15.0,15.0,15.0,1448.0882189227268,None,4.0,3.130848973058164,1448.0882189227268,None,1448.0882189227268,None,1448.0882189227268,None,1,2022_Apr_26_1002,Semantic-hierachy,2021.1.2,60.337352118170045,
316,Trial # 317,layer0-5_T6_to_T7.jpg,layer0-5/layer0-5_T6_to_T7.jpg,TT,layer0-5,,,,,,,,,0.0,16.0,16.0,16.0,1451.7219398808666,None,1.0,2.2894527059979737,1451.7219398808666,None,1451.7219398808666,None,1451.7219398808666,None,1,2022_Apr_26_1002,Semantic-hierachy,2021.1.2,60.337352118170045,
317,Trial # 318,layer9-17_O1_to_T3.jpg,layer9-17/layer9-17_O1_to_T3.jpg,OT,layer9-17,,,,,,,,,0.0,17.0,17.0,17.0,1455.0227793548256,None,2.0,1.8917753789573908,1455.0227793548256,None,1455.0227793548256,None,1455.0227793548256,None,1,2022_Apr_26_1002,Semantic-hierachy,2021.1.2,60.337352118170045,
318,Trial # 319,layer0-5_O2_to_T5.jpg,layer0-5/layer0-5_O2_to_T5.jpg,OT,layer0-5,,,,,,,,,0.0,18.0,18.0,18.0,1457.4572530039586,None,1.0,1.823564248159528,1457.4572530039586,None,1457.4572530039586,None,1457.4572530039586,None,1,2022_Apr_26_1002,Semantic-hierachy,2021.1.2,60.337352118170045,
319,Trial # 320,layer6-8_O7_to_T10.jpg,layer6-8/layer6-8_O7_to_T10.jpg,OT,layer6-8,,,,,,,,,0.0,19.0,19.0,19.0,1459.72438684199,None,3.0,2.642051365226507,1459.72438684199,None,1459.72438684199,None,1459.72438684199,None,1,2022_Apr_26_1002,Semantic-hierachy,2021.1.2,60.337352118170045,
320,Trial # 321,layer0-5_O5_to_O6.jpg,layer0-5/layer0-5_O5_to_O6.jpg,OO,layer0-5,,,,,,,,,0.0,20.0,20.0,20.0,1462.8589310278185,None,1.0,2.8227825998328626,1462.8589310278185,None,1462.8589310278185,None,1462.8589310278185,None,1,2022_Apr_26_1002,Semantic-hierachy,2021.1.2,60.337352118170045,
321,Trial # 322,layer9-17_O5_to_T4.jpg,layer9-17/layer9-17_O5_to_T4.jpg,OT,layer9-17,,,,,,,,,0.0,21.0,21.0,21.0,1466.2092384919524,None,2.0,1.8595127342268825,1466.2092384919524,None,1466.2092384919524,None,1466.2092384919524,None,1,2022_Apr_26_1002,Semantic-hierachy,2021.1.2,60.337352118170045,
322,Trial # 323,layer0-5_T12_to_T2.jpg,layer0-5/layer0-5_T12_to_T2.jpg,TT,layer0-5,,,,,,,,,0.0,22.0,22.0,22.0,1468.5773974908516,None,1.0,2.576467847917229,1468.5773974908516,None,1468.5773974908516,None,1468.5773974908516,None,1,2022_Apr_26_1002,Semantic-hierachy,2021.1.2,60.337352118170045,
323,Trial # 324,layer0-5_O2_to_O4.jpg,layer0-5/layer0-5_O2_to_O4.jpg,OO,layer0-5,,,,,,,,,0.0,23.0,23.0,23.0,1471.578022794798,None,1.0,3.412523288279772,1471.578022794798,None,1471.578022794798,None,1471.578022794798,None,1,2022_Apr_26_1002,Semantic-hierachy,2021.1.2,60.337352118170045,
324,Trial # 325,layer6-8_O1_to_O9.jpg,layer6-8/layer6-8_O1_to_O9.jpg,OO,layer6-8,,,,,,,,,0.0,24.0,24.0,24.0,1475.3293672758157,None,4.0,4.525891409255564,1475.3293672758157,None,1475.3293672758157,None,1475.3293672758157,None,1,2022_Apr_26_1002,Semantic-hierachy,2021.1.2,60.337352118170045,
325,Trial # 326,layer0-5_T3_to_T5.jpg,layer0-5/layer0-5_T3_to_T5.jpg,TT,layer0-5,,,,,,,,,0.0,25.0,25.0,25.0,1480.5144117199816,None,1.0,2.239690450951457,1480.5144117199816,None,1480.5144117199816,None,1480.5144117199816,None,1,2022_Apr_26_1002,Semantic-hierachy,2021.1.2,60.337352118170045,
326,Trial # 327,layer6-8_O8_to_T12.jpg,layer6-8/layer6-8_O8_to_T12.jpg,OT,layer6-8,,,,,,,,,0.0,26.0,26.0,26.0,1483.165983740706,None,2.0,3.3473504297435284,1483.165983740706,None,1483.165983740706,None,1483.165983740706,None,1,2022_Apr_26_1002,Semantic-hierachy,2021.1.2,60.337352118170045,
327,Trial # 328,layer9-17_T11_to_T4.jpg,layer9-17/layer9-17_T11_to_T4.jpg,TT,layer9-17,,,,,,,,,0.0,27.0,27.0,27.0,1486.898535954766,None,2.0,1.3942553387023509,1486.898535954766,None,1486.898535954766,None,1486.898535954766,None,1,2022_Apr_26_1002,Semantic-hierachy,2021.1.2,60.337352118170045,
328,Trial # 329,layer9-17_O6_to_T2.jpg,layer9-17/layer9-17_O6_to_T2.jpg,OT,layer9-17,,,,,,,,,0.0,28.0,28.0,28.0,1488.6009445060045,None,2.0,2.152456114068628,1488.6009445060045,None,1488.6009445060045,None,1488.6009445060045,None,1,2022_Apr_26_1002,Semantic-hierachy,2021.1.2,60.337352118170045,
329,Trial # 330,layer9-17_T10_to_T9.jpg,layer9-17/layer9-17_T10_to_T9.jpg,TT,layer9-17,,,,,,,,,0.0,29.0,29.0,29.0,1491.1338745467365,None,4.0,4.170320206787437,1491.1338745467365,None,1491.1338745467365,None,1491.1338745467365,None,1,2022_Apr_26_1002,Semantic-hierachy,2021.1.2,60.337352118170045,
330,Trial # 331,layer0-5_O2_to_O3.jpg,layer0-5/layer0-5_O2_to_O3.jpg,OO,layer0-5,,,,,,,,,0.0,30.0,30.0,30.0,1495.6848647147417,None,1.0,3.886974819935858,1495.6848647147417,None,1495.6848647147417,None,1495.6848647147417,None,1,2022_Apr_26_1002,Semantic-hierachy,2021.1.2,60.337352118170045,
331,Trial # 332,layer6-8_O1_to_O12.jpg,layer6-8/layer6-8_O1_to_O12.jpg,OO,layer6-8,,,,,,,,,0.0,31.0,31.0,31.0,1499.8701073010452,None,2.0,3.460244102869183,1499.8701073010452,None,1499.8701073010452,None,1499.8701073010452,None,1,2022_Apr_26_1002,Semantic-hierachy,2021.1.2,60.337352118170045,
332,Trial # 333,layer0-5_O5_to_T12.jpg,layer0-5/layer0-5_O5_to_T12.jpg,OT,layer0-5,,,,,,,,,0.0,32.0,32.0,32.0,1503.788373004645,None,1.0,3.002541111316532,1503.788373004645,None,1503.788373004645,None,1503.788373004645,None,1,2022_Apr_26_1002,Semantic-hierachy,2021.1.2,60.337352118170045,
333,Trial # 334,layer9-17_O11_to_T6.jpg,layer9-17/layer9-17_O11_to_T6.jpg,OT,layer9-17,,,,,,,,,0.0,33.0,33.0,33.0,1507.1225376715884,None,4.0,5.176680875942111,1507.1225376715884,None,1507.1225376715884,None,1507.1225376715884,None,1,2022_Apr_26_1002,Semantic-hierachy,2021.1.2,60.337352118170045,
334,Trial # 335,layer0-5_O4_to_T1.jpg,layer0-5/layer0-5_O4_to_T1.jpg,OT,layer0-5,,,,,,,,,0.0,34.0,34.0,34.0,1512.6747988867571,None,1.0,2.323981659021229,1512.6747988867571,None,1512.6747988867571,None,1512.6747988867571,None,1,2022_Apr_26_1002,Semantic-hierachy,2021.1.2,60.337352118170045,
335,Trial # 336,layer6-8_T1_to_T6.jpg,layer6-8/layer6-8_T1_to_T6.jpg,TT,layer6-8,,,,,,,,,0.0,35.0,35.0,35.0,1515.4583267588168,None,4.0,4.42842906806618,1515.4583267588168,None,1515.4583267588168,None,1515.4583267588168,None,1,2022_Apr_26_1002,Semantic-hierachy,2021.1.2,60.337352118170045,
336,Trial # 337,layer0-5_O12_to_O6.jpg,layer0-5/layer0-5_O12_to_O6.jpg,OO,layer0-5,,,,,,,,,0.0,36.0,36.0,36.0,1520.7931019118987,None,1.0,2.011540099978447,1520.7931019118987,None,1520.7931019118987,None,1520.7931019118987,None,1,2022_Apr_26_1002,Semantic-hierachy,2021.1.2,60.337352118170045,
337,Trial # 338,layer0-5_O1_to_O10.jpg,layer0-5/layer0-5_O1_to_O10.jpg,OO,layer0-5,,,,,,,,,0.0,37.0,37.0,37.0,1523.195240817964,None,1.0,1.796258366201073,1523.195240817964,None,1523.195240817964,None,1523.195240817964,None,1,2022_Apr_26_1002,Semantic-hierachy,2021.1.2,60.337352118170045,
338,Trial # 339,layer0-5_O9_to_T9.jpg,layer0-5/layer0-5_O9_to_T9.jpg,OT,layer0-5,,,,,,,,,0.0,38.0,38.0,38.0,1525.327826931607,None,1.0,2.5476446761749685,1525.327826931607,None,1525.327826931607,None,1525.327826931607,None,1,2022_Apr_26_1002,Semantic-hierachy,2021.1.2,60.337352118170045,
339,Trial # 340,layer6-8_O6_to_T10.jpg,layer6-8/layer6-8_O6_to_T10.jpg,OT,layer6-8,,,,,,,,,0.0,39.0,39.0,39.0,1528.230180783663,None,3.0,2.644092780072242,1528.230180783663,None,1528.230180783663,None,1528.230180783663,None,1,2022_Apr_26_1002,Semantic-hierachy,2021.1.2,60.337352118170045,
