,Trial_num,image_name,image_path,pair_type,layers,block1.thisRepN,block1.thisTrialN,block1.thisN,block1.thisIndex,block2.thisRepN,block2.thisTrialN,block2.thisN,block2.thisIndex,block3.thisRepN,block3.thisTrialN,block3.thisN,block3.thisIndex,image_8.started,image_8.stopped,selected_semantic.response,selected_semantic.rt,selected_semantic.started,selected_semantic.stopped,Instruction.started,Instruction.stopped,Trial_number.started,Trial_number.stopped,text_2.started,text_2.stopped,session,date,expName,psychopyVersion,frameRate
0,Trial # 1,layer0-5_O2_to_T1.jpg,layer0-5/layer0-5_O2_to_T1.jpg,OT,layer0-5,0.0,0.0,0.0,0.0,,,,,,,,,14.01123871,None,1,4.439471837,14.01123871,None,14.01123871,None,14.01123871,None,,,1,2022_Apr_05_1630,Semantic-hierachy,2021.1.2,59.80963765
1,Trial # 2,layer0-5_O11_to_T7.jpg,layer0-5/layer0-5_O11_to_T7.jpg,OT,layer0-5,0.0,1.0,1.0,1.0,,,,,,,,,18.54562112,None,1,7.314871044,18.54562112,None,18.54562112,None,18.54562112,None,,,1,2022_Apr_05_1630,Semantic-hierachy,2021.1.2,59.80963765
2,Trial # 3,layer6-8_O3_to_O5.jpg,layer6-8/layer6-8_O3_to_O5.jpg,OO,layer6-8,0.0,2.0,2.0,2.0,,,,,,,,,25.96546424,None,3,4.531581925,25.96546424,None,25.96546424,None,25.96546424,None,,,1,2022_Apr_05_1630,Semantic-hierachy,2021.1.2,59.80963765
3,Trial # 4,layer6-8_O11_to_O4.jpg,layer6-8/layer6-8_O11_to_O4.jpg,OO,layer6-8,0.0,3.0,3.0,3.0,,,,,,,,,30.61528729,None,3,11.19775712,30.61528729,None,30.61528729,None,30.61528729,None,,,1,2022_Apr_05_1630,Semantic-hierachy,2021.1.2,59.80963765
4,Trial # 5,layer6-8_O8_to_T8.jpg,layer6-8/layer6-8_O8_to_T8.jpg,OT,layer6-8,0.0,4.0,4.0,4.0,,,,,,,,,41.91976163,None,3,2.361585195,41.91976163,None,41.91976163,None,41.91976163,None,,,1,2022_Apr_05_1630,Semantic-hierachy,2021.1.2,59.80963765
5,Trial # 6,layer0-5_O11_to_O8.jpg,layer0-5/layer0-5_O11_to_O8.jpg,OO,layer0-5,0.0,5.0,5.0,5.0,,,,,,,,,44.38692206,None,1,1.906340247,44.38692206,None,44.38692206,None,44.38692206,None,,,1,2022_Apr_05_1630,Semantic-hierachy,2021.1.2,59.80963765
6,Trial # 7,layer0-5_T10_to_T11.jpg,layer0-5/layer0-5_T10_to_T11.jpg,TT,layer0-5,0.0,6.0,6.0,6.0,,,,,,,,,46.40503815,None,1,1.274517889,46.40503815,None,46.40503815,None,46.40503815,None,,,1,2022_Apr_05_1630,Semantic-hierachy,2021.1.2,59.80963765
7,Trial # 8,layer9-17_O6_to_O9.jpg,layer9-17/layer9-17_O6_to_O9.jpg,OO,layer9-17,0.0,7.0,7.0,7.0,,,,,,,,,47.78897336,None,2,1.755130047,47.78897336,None,47.78897336,None,47.78897336,None,,,1,2022_Apr_05_1630,Semantic-hierachy,2021.1.2,59.80963765
8,Trial # 9,layer6-8_O12_to_O9.jpg,layer6-8/layer6-8_O12_to_O9.jpg,OO,layer6-8,0.0,8.0,8.0,8.0,,,,,,,,,49.6552116,None,3,6.154167301,49.6552116,None,49.6552116,None,49.6552116,None,,,1,2022_Apr_05_1630,Semantic-hierachy,2021.1.2,59.80963765
9,Trial # 10,layer0-5_O10_to_T2.jpg,layer0-5/layer0-5_O10_to_T2.jpg,OT,layer0-5,0.0,9.0,9.0,9.0,,,,,,,,,55.92434155,None,3,2.188005815,55.92434155,None,55.92434155,None,55.92434155,None,,,1,2022_Apr_05_1630,Semantic-hierachy,2021.1.2,59.80963765
10,Trial # 11,layer9-17_T10_to_T2.jpg,layer9-17/layer9-17_T10_to_T2.jpg,TT,layer9-17,0.0,10.0,10.0,10.0,,,,,,,,,58.22442102,None,3,1.606184784,58.22442102,None,58.22442102,None,58.22442102,None,,,1,2022_Apr_05_1630,Semantic-hierachy,2021.1.2,59.80963765
11,Trial # 12,layer6-8_T6_to_T7.jpg,layer6-8/layer6-8_T6_to_T7.jpg,TT,layer6-8,0.0,11.0,11.0,11.0,,,,,,,,,59.92489637,None,3,2.597308232,59.92489637,None,59.92489637,None,59.92489637,None,,,1,2022_Apr_05_1630,Semantic-hierachy,2021.1.2,59.80963765
12,Trial # 13,layer9-17_O10_to_T2.jpg,layer9-17/layer9-17_O10_to_T2.jpg,OT,layer9-17,0.0,12.0,12.0,12.0,,,,,,,,,62.64346089,None,2,1.807540291,62.64346089,None,62.64346089,None,62.64346089,None,,,1,2022_Apr_05_1630,Semantic-hierachy,2021.1.2,59.80963765
13,Trial # 14,layer6-8_T4_to_T7.jpg,layer6-8/layer6-8_T4_to_T7.jpg,TT,layer6-8,0.0,13.0,13.0,13.0,,,,,,,,,64.54311147,None,2,8.931984782,64.54311147,None,64.54311147,None,64.54311147,None,,,1,2022_Apr_05_1630,Semantic-hierachy,2021.1.2,59.80963765
14,Trial # 15,layer9-17_O8_to_T2.jpg,layer9-17/layer9-17_O8_to_T2.jpg,OT,layer9-17,0.0,14.0,14.0,14.0,,,,,,,,,73.57984837,None,2,12.02035495,73.57984837,None,73.57984837,None,73.57984837,None,,,1,2022_Apr_05_1630,Semantic-hierachy,2021.1.2,59.80963765
15,Trial # 16,layer0-5_T6_to_T9.jpg,layer0-5/layer0-5_T6_to_T9.jpg,TT,layer0-5,0.0,15.0,15.0,15.0,,,,,,,,,85.71701587,None,1,5.389509379,85.71701587,None,85.71701587,None,85.71701587,None,,,1,2022_Apr_05_1630,Semantic-hierachy,2021.1.2,59.80963765
16,Trial # 17,layer0-5_O11_to_O12.jpg,layer0-5/layer0-5_O11_to_O12.jpg,OO,layer0-5,0.0,16.0,16.0,16.0,,,,,,,,,91.20159426,None,1,2.904951154,91.20159426,None,91.20159426,None,91.20159426,None,,,1,2022_Apr_05_1630,Semantic-hierachy,2021.1.2,59.80963765
17,Trial # 18,layer0-5_T11_to_T5.jpg,layer0-5/layer0-5_T11_to_T5.jpg,TT,layer0-5,0.0,17.0,17.0,17.0,,,,,,,,,94.23543742,None,1,1.690769454,94.23543742,None,94.23543742,None,94.23543742,None,,,1,2022_Apr_05_1630,Semantic-hierachy,2021.1.2,59.80963765
18,Trial # 19,layer0-5_O6_to_T12.jpg,layer0-5/layer0-5_O6_to_T12.jpg,OT,layer0-5,0.0,18.0,18.0,18.0,,,,,,,,,96.03655818,None,1,1.74024668,96.03655818,None,96.03655818,None,96.03655818,None,,,1,2022_Apr_05_1630,Semantic-hierachy,2021.1.2,59.80963765
19,Trial # 20,layer6-8_T6_to_T8.jpg,layer6-8/layer6-8_T6_to_T8.jpg,TT,layer6-8,0.0,19.0,19.0,19.0,,,,,,,,,97.88666341,None,3,27.34812951,97.88666341,None,97.88666341,None,97.88666341,None,,,1,2022_Apr_05_1630,Semantic-hierachy,2021.1.2,59.80963765
20,Trial # 21,layer9-17_T2_to_T5.jpg,layer9-17/layer9-17_T2_to_T5.jpg,TT,layer9-17,0.0,20.0,20.0,20.0,,,,,,,,,125.4288861,None,2,13.73698315,125.4288861,None,125.4288861,None,125.4288861,None,,,1,2022_Apr_05_1630,Semantic-hierachy,2021.1.2,59.80963765
21,Trial # 22,layer6-8_O2_to_O6.jpg,layer6-8/layer6-8_O2_to_O6.jpg,OO,layer6-8,0.0,21.0,21.0,21.0,,,,,,,,,139.2832447,None,2,6.960488811,139.2832447,None,139.2832447,None,139.2832447,None,,,1,2022_Apr_05_1630,Semantic-hierachy,2021.1.2,59.80963765
22,Trial # 23,layer9-17_O3_to_T12.jpg,layer9-17/layer9-17_O3_to_T12.jpg,OT,layer9-17,0.0,22.0,22.0,22.0,,,,,,,,,146.3530195,None,2,1.291002993,146.3530195,None,146.3530195,None,146.3530195,None,,,1,2022_Apr_05_1630,Semantic-hierachy,2021.1.2,59.80963765
23,Trial # 24,layer0-5_O11_to_O3.jpg,layer0-5/layer0-5_O11_to_O3.jpg,OO,layer0-5,0.0,23.0,23.0,23.0,,,,,,,,,147.7519638,None,1,2.027069516,147.7519638,None,147.7519638,None,147.7519638,None,,,1,2022_Apr_05_1630,Semantic-hierachy,2021.1.2,59.80963765
24,Trial # 25,layer6-8_O2_to_O9.jpg,layer6-8/layer6-8_O2_to_O9.jpg,OO,layer6-8,0.0,24.0,24.0,24.0,,,,,,,,,149.8859215,None,3,16.86378959,149.8859215,None,149.8859215,None,149.8859215,None,,,1,2022_Apr_05_1630,Semantic-hierachy,2021.1.2,59.80963765
25,Trial # 26,layer9-17_O10_to_O8.jpg,layer9-17/layer9-17_O10_to_O8.jpg,OO,layer9-17,0.0,25.0,25.0,25.0,,,,,,,,,166.8420747,None,3,16.66151795,166.8420747,None,166.8420747,None,166.8420747,None,,,1,2022_Apr_05_1630,Semantic-hierachy,2021.1.2,59.80963765
26,Trial # 27,layer9-17_T4_to_T6.jpg,layer9-17/layer9-17_T4_to_T6.jpg,TT,layer9-17,0.0,26.0,26.0,26.0,,,,,,,,,183.6301499,None,2,2.02997576,183.6301499,None,183.6301499,None,183.6301499,None,,,1,2022_Apr_05_1630,Semantic-hierachy,2021.1.2,59.80963765
27,Trial # 28,layer6-8_O7_to_T8.jpg,layer6-8/layer6-8_O7_to_T8.jpg,OT,layer6-8,0.0,27.0,27.0,27.0,,,,,,,,,185.781277,None,2,1.139160644,185.781277,None,185.781277,None,185.781277,None,,,1,2022_Apr_05_1630,Semantic-hierachy,2021.1.2,59.80963765
28,Trial # 29,layer6-8_T4_to_T5.jpg,layer6-8/layer6-8_T4_to_T5.jpg,TT,layer6-8,0.0,28.0,28.0,28.0,,,,,,,,,187.0321951,None,3,1.920360446,187.0321951,None,187.0321951,None,187.0321951,None,,,1,2022_Apr_05_1630,Semantic-hierachy,2021.1.2,59.80963765
29,Trial # 30,layer6-8_T10_to_T9.jpg,layer6-8/layer6-8_T10_to_T9.jpg,TT,layer6-8,0.0,29.0,29.0,29.0,,,,,,,,,189.0649733,None,3,5.306856318,189.0649733,None,189.0649733,None,189.0649733,None,,,1,2022_Apr_05_1630,Semantic-hierachy,2021.1.2,59.80963765
30,Trial # 31,layer9-17_O1_to_O8.jpg,layer9-17/layer9-17_O1_to_O8.jpg,OO,layer9-17,0.0,30.0,30.0,30.0,,,,,,,,,194.4832127,None,2,1.912647234,194.4832127,None,194.4832127,None,194.4832127,None,,,1,2022_Apr_05_1630,Semantic-hierachy,2021.1.2,59.80963765
31,Trial # 32,layer9-17_O12_to_O7.jpg,layer9-17/layer9-17_O12_to_O7.jpg,OO,layer9-17,0.0,31.0,31.0,31.0,,,,,,,,,196.5010835,None,2,2.843642705,196.5010835,None,196.5010835,None,196.5010835,None,,,1,2022_Apr_05_1630,Semantic-hierachy,2021.1.2,59.80963765
32,Trial # 33,layer9-17_T10_to_T12.jpg,layer9-17/layer9-17_T10_to_T12.jpg,TT,layer9-17,0.0,32.0,32.0,32.0,,,,,,,,,199.4515282,None,4,3.801447301,199.4515282,None,199.4515282,None,199.4515282,None,,,1,2022_Apr_05_1630,Semantic-hierachy,2021.1.2,59.80963765
33,Trial # 34,layer0-5_T2_to_T6.jpg,layer0-5/layer0-5_T2_to_T6.jpg,TT,layer0-5,0.0,33.0,33.0,33.0,,,,,,,,,203.3703447,None,1,6.753658867,203.3703447,None,203.3703447,None,203.3703447,None,,,1,2022_Apr_05_1630,Semantic-hierachy,2021.1.2,59.80963765
34,Trial # 35,layer6-8_T11_to_T2.jpg,layer6-8/layer6-8_T11_to_T2.jpg,TT,layer6-8,0.0,34.0,34.0,34.0,,,,,,,,,210.2379633,None,2,3.761808586,210.2379633,None,210.2379633,None,210.2379633,None,,,1,2022_Apr_05_1630,Semantic-hierachy,2021.1.2,59.80963765
35,Trial # 36,layer6-8_O4_to_T3.jpg,layer6-8/layer6-8_O4_to_T3.jpg,OT,layer6-8,0.0,35.0,35.0,35.0,,,,,,,,,214.1063042,None,3,2.511721418,214.1063042,None,214.1063042,None,214.1063042,None,,,1,2022_Apr_05_1630,Semantic-hierachy,2021.1.2,59.80963765
36,Trial # 37,layer6-8_O3_to_T11.jpg,layer6-8/layer6-8_O3_to_T11.jpg,OT,layer6-8,0.0,36.0,36.0,36.0,,,,,,,,,216.7245122,None,2,3.001349768,216.7245122,None,216.7245122,None,216.7245122,None,,,1,2022_Apr_05_1630,Semantic-hierachy,2021.1.2,59.80963765
37,Trial # 38,layer6-8_T1_to_T2.jpg,layer6-8/layer6-8_T1_to_T2.jpg,TT,layer6-8,0.0,37.0,37.0,37.0,,,,,,,,,219.8416456,None,3,7.735077408,219.8416456,None,219.8416456,None,219.8416456,None,,,1,2022_Apr_05_1630,Semantic-hierachy,2021.1.2,59.80963765
38,Trial # 39,layer9-17_O2_to_O6.jpg,layer9-17/layer9-17_O2_to_O6.jpg,OO,layer9-17,0.0,38.0,38.0,38.0,,,,,,,,,227.6936045,None,3,7.656628751,227.6936045,None,227.6936045,None,227.6936045,None,,,1,2022_Apr_05_1630,Semantic-hierachy,2021.1.2,59.80963765
39,Trial # 40,layer9-17_O4_to_T2.jpg,layer9-17/layer9-17_O4_to_T2.jpg,OT,layer9-17,0.0,39.0,39.0,39.0,,,,,,,,,235.4460806,None,2,1.952908635,235.4460806,None,235.4460806,None,235.4460806,None,,,1,2022_Apr_05_1630,Semantic-hierachy,2021.1.2,59.80963765
40,Trial # 41,layer6-8_O5_to_T3.jpg,layer6-8/layer6-8_O5_to_T3.jpg,OT,layer6-8,0.0,40.0,40.0,40.0,,,,,,,,,237.5147036,None,3,26.3295817,237.5147036,None,237.5147036,None,237.5147036,None,,,1,2022_Apr_05_1630,Semantic-hierachy,2021.1.2,59.80963765
41,Trial # 42,layer6-8_O2_to_O3.jpg,layer6-8/layer6-8_O2_to_O3.jpg,OO,layer6-8,0.0,41.0,41.0,41.0,,,,,,,,,263.9387831,None,2,2.563074265,263.9387831,None,263.9387831,None,263.9387831,None,,,1,2022_Apr_05_1630,Semantic-hierachy,2021.1.2,59.80963765
42,Trial # 43,layer6-8_O1_to_T6.jpg,layer6-8/layer6-8_O1_to_T6.jpg,OT,layer6-8,0.0,42.0,42.0,42.0,,,,,,,,,266.6235197,None,3,36.6034226,266.6235197,None,266.6235197,None,266.6235197,None,,,1,2022_Apr_05_1630,Semantic-hierachy,2021.1.2,59.80963765
43,Trial # 44,layer6-8_O2_to_T12.jpg,layer6-8/layer6-8_O2_to_T12.jpg,OT,layer6-8,0.0,43.0,43.0,43.0,,,,,,,,,303.3670339,None,3,17.24949311,303.3670339,None,303.3670339,None,303.3670339,None,,,1,2022_Apr_05_1630,Semantic-hierachy,2021.1.2,59.80963765
44,Trial # 45,layer9-17_O2_to_O8.jpg,layer9-17/layer9-17_O2_to_O8.jpg,OO,layer9-17,0.0,44.0,44.0,44.0,,,,,,,,,320.7223532,None,3,2.167494606,320.7223532,None,320.7223532,None,320.7223532,None,,,1,2022_Apr_05_1630,Semantic-hierachy,2021.1.2,59.80963765
45,Trial # 46,layer9-17_O10_to_O4.jpg,layer9-17/layer9-17_O10_to_O4.jpg,OO,layer9-17,0.0,45.0,45.0,45.0,,,,,,,,,323.0065329,None,3,8.337354865,323.0065329,None,323.0065329,None,323.0065329,None,,,1,2022_Apr_05_1630,Semantic-hierachy,2021.1.2,59.80963765
46,Trial # 47,layer0-5_O1_to_O4.jpg,layer0-5/layer0-5_O1_to_O4.jpg,OO,layer0-5,0.0,46.0,46.0,46.0,,,,,,,,,331.4600402,None,1,7.842953002,331.4600402,None,331.4600402,None,331.4600402,None,,,1,2022_Apr_05_1630,Semantic-hierachy,2021.1.2,59.80963765
47,Trial # 48,layer0-5_T4_to_T5.jpg,layer0-5/layer0-5_T4_to_T5.jpg,TT,layer0-5,0.0,47.0,47.0,47.0,,,,,,,,,339.4119103,None,1,1.954965272,339.4119103,None,339.4119103,None,339.4119103,None,,,1,2022_Apr_05_1630,Semantic-hierachy,2021.1.2,59.80963765
48,Trial # 49,layer9-17_T12_to_T8.jpg,layer9-17/layer9-17_T12_to_T8.jpg,TT,layer9-17,0.0,48.0,48.0,48.0,,,,,,,,,341.5124325,None,2,2.018647707,341.5124325,None,341.5124325,None,341.5124325,None,,,1,2022_Apr_05_1630,Semantic-hierachy,2021.1.2,59.80963765
49,Trial # 50,layer0-5_T10_to_T5.jpg,layer0-5/layer0-5_T10_to_T5.jpg,TT,layer0-5,0.0,49.0,49.0,49.0,,,,,,,,,343.6465739,None,1,7.777283508,343.6465739,None,343.6465739,None,343.6465739,None,,,1,2022_Apr_05_1630,Semantic-hierachy,2021.1.2,59.80963765
50,Trial # 51,layer6-8_O10_to_O8.jpg,layer6-8/layer6-8_O10_to_O8.jpg,OO,layer6-8,0.0,50.0,50.0,50.0,,,,,,,,,351.5328755,None,3,4.418373767,351.5328755,None,351.5328755,None,351.5328755,None,,,1,2022_Apr_05_1630,Semantic-hierachy,2021.1.2,59.80963765
51,Trial # 52,layer9-17_O3_to_O5.jpg,layer9-17/layer9-17_O3_to_O5.jpg,OO,layer9-17,0.0,51.0,51.0,51.0,,,,,,,,,356.0503406,None,2,1.597518308,356.0503406,None,356.0503406,None,356.0503406,None,,,1,2022_Apr_05_1630,Semantic-hierachy,2021.1.2,59.80963765
52,Trial # 53,layer6-8_T1_to_T12.jpg,layer6-8/layer6-8_T1_to_T12.jpg,TT,layer6-8,0.0,52.0,52.0,52.0,,,,,,,,,357.767066,None,3,2.425469323,357.767066,None,357.767066,None,357.767066,None,,,1,2022_Apr_05_1630,Semantic-hierachy,2021.1.2,59.80963765
53,Trial # 54,layer0-5_O4_to_O9.jpg,layer0-5/layer0-5_O4_to_O9.jpg,OO,layer0-5,0.0,53.0,53.0,53.0,,,,,,,,,360.2841031,None,1,6.182418189,360.2841031,None,360.2841031,None,360.2841031,None,,,1,2022_Apr_05_1630,Semantic-hierachy,2021.1.2,59.80963765
54,Trial # 55,layer0-5_O5_to_O9.jpg,layer0-5/layer0-5_O5_to_O9.jpg,OO,layer0-5,0.0,54.0,54.0,54.0,,,,,,,,,366.5871867,None,1,6.323787083,366.5871867,None,366.5871867,None,366.5871867,None,,,1,2022_Apr_05_1630,Semantic-hierachy,2021.1.2,59.80963765
55,Trial # 56,layer0-5_O1_to_O2.jpg,layer0-5/layer0-5_O1_to_O2.jpg,OO,layer0-5,0.0,55.0,55.0,55.0,,,,,,,,,373.0218936,None,1,1.160722219,373.0218936,None,373.0218936,None,373.0218936,None,,,1,2022_Apr_05_1630,Semantic-hierachy,2021.1.2,59.80963765
56,Trial # 57,layer9-17_T12_to_T3.jpg,layer9-17/layer9-17_T12_to_T3.jpg,TT,layer9-17,0.0,56.0,56.0,56.0,,,,,,,,,374.288946,None,2,1.6891174,374.288946,None,374.288946,None,374.288946,None,,,1,2022_Apr_05_1630,Semantic-hierachy,2021.1.2,59.80963765
57,Trial # 58,layer0-5_O7_to_O9.jpg,layer0-5/layer0-5_O7_to_O9.jpg,OO,layer0-5,0.0,57.0,57.0,57.0,,,,,,,,,376.0896945,None,1,1.589698869,376.0896945,None,376.0896945,None,376.0896945,None,,,1,2022_Apr_05_1630,Semantic-hierachy,2021.1.2,59.80963765
58,Trial # 59,layer0-5_T5_to_T9.jpg,layer0-5/layer0-5_T5_to_T9.jpg,TT,layer0-5,0.0,58.0,58.0,58.0,,,,,,,,,377.7906723,None,1,1.487825653,377.7906723,None,377.7906723,None,377.7906723,None,,,1,2022_Apr_05_1630,Semantic-hierachy,2021.1.2,59.80963765
59,Trial # 60,layer9-17_O1_to_O9.jpg,layer9-17/layer9-17_O1_to_O9.jpg,OO,layer9-17,0.0,59.0,59.0,59.0,,,,,,,,,379.374002,None,3,5.274979412,379.374002,None,379.374002,None,379.374002,None,,,1,2022_Apr_05_1630,Semantic-hierachy,2021.1.2,59.80963765
60,Trial # 61,layer0-5_O6_to_O7.jpg,layer0-5/layer0-5_O6_to_O7.jpg,OO,layer0-5,0.0,60.0,60.0,60.0,,,,,,,,,384.7587088,None,1,1.823140704,384.7587088,None,384.7587088,None,384.7587088,None,,,1,2022_Apr_05_1630,Semantic-hierachy,2021.1.2,59.80963765
61,Trial # 62,layer9-17_T5_to_T6.jpg,layer9-17/layer9-17_T5_to_T6.jpg,TT,layer9-17,0.0,61.0,61.0,61.0,,,,,,,,,386.6929643,None,3,13.11210292,386.6929643,None,386.6929643,None,386.6929643,None,,,1,2022_Apr_05_1630,Semantic-hierachy,2021.1.2,59.80963765
62,Trial # 63,layer9-17_T4_to_T9.jpg,layer9-17/layer9-17_T4_to_T9.jpg,TT,layer9-17,0.0,62.0,62.0,62.0,,,,,,,,,399.9140212,None,2,1.627192487,399.9140212,None,399.9140212,None,399.9140212,None,,,1,2022_Apr_05_1630,Semantic-hierachy,2021.1.2,59.80963765
63,Trial # 64,layer0-5_O11_to_T1.jpg,layer0-5/layer0-5_O11_to_T1.jpg,OT,layer0-5,0.0,63.0,63.0,63.0,,,,,,,,,401.6314754,None,1,1.580063199,401.6314754,None,401.6314754,None,401.6314754,None,,,1,2022_Apr_05_1630,Semantic-hierachy,2021.1.2,59.80963765
64,Trial # 65,layer6-8_T5_to_T9.jpg,layer6-8/layer6-8_T5_to_T9.jpg,TT,layer6-8,0.0,64.0,64.0,64.0,,,,,,,,,403.3144962,None,3,2.863092232,403.3144962,None,403.3144962,None,403.3144962,None,,,1,2022_Apr_05_1630,Semantic-hierachy,2021.1.2,59.80963765
65,Trial # 66,layer0-5_T4_to_T7.jpg,layer0-5/layer0-5_T4_to_T7.jpg,TT,layer0-5,0.0,65.0,65.0,65.0,,,,,,,,,406.299194,None,1,2.361396331,406.299194,None,406.299194,None,406.299194,None,,,1,2022_Apr_05_1630,Semantic-hierachy,2021.1.2,59.80963765
66,Trial # 67,layer0-5_O2_to_O6.jpg,layer0-5/layer0-5_O2_to_O6.jpg,OO,layer0-5,0.0,66.0,66.0,66.0,,,,,,,,,408.7658111,None,1,1.274186839,408.7658111,None,408.7658111,None,408.7658111,None,,,1,2022_Apr_05_1630,Semantic-hierachy,2021.1.2,59.80963765
67,Trial # 68,layer9-17_O12_to_T3.jpg,layer9-17/layer9-17_O12_to_T3.jpg,OT,layer9-17,0.0,67.0,67.0,67.0,,,,,,,,,410.1506895,None,2,2.807368604,410.1506895,None,410.1506895,None,410.1506895,None,,,1,2022_Apr_05_1630,Semantic-hierachy,2021.1.2,59.80963765
68,Trial # 69,layer9-17_O7_to_O9.jpg,layer9-17/layer9-17_O7_to_O9.jpg,OO,layer9-17,0.0,68.0,68.0,68.0,,,,,,,,,413.0520994,None,3,4.584097243,413.0520994,None,413.0520994,None,413.0520994,None,,,1,2022_Apr_05_1630,Semantic-hierachy,2021.1.2,59.80963765
69,Trial # 70,layer9-17_T1_to_T8.jpg,layer9-17/layer9-17_T1_to_T8.jpg,TT,layer9-17,0.0,69.0,69.0,69.0,,,,,,,,,417.7370451,None,3,5.560139182,417.7370451,None,417.7370451,None,417.7370451,None,,,1,2022_Apr_05_1630,Semantic-hierachy,2021.1.2,59.80963765
70,Trial # 71,layer0-5_O3_to_T8.jpg,layer0-5/layer0-5_O3_to_T8.jpg,OT,layer0-5,0.0,70.0,70.0,70.0,,,,,,,,,423.4375883,None,1,4.054557317,423.4375883,None,423.4375883,None,423.4375883,None,,,1,2022_Apr_05_1630,Semantic-hierachy,2021.1.2,59.80963765
71,Trial # 72,layer9-17_O9_to_T2.jpg,layer9-17/layer9-17_O9_to_T2.jpg,OT,layer9-17,0.0,71.0,71.0,71.0,,,,,,,,,427.5897068,None,3,27.87307708,427.5897068,None,427.5897068,None,427.5897068,None,,,1,2022_Apr_05_1630,Semantic-hierachy,2021.1.2,59.80963765
72,Trial # 73,layer9-17_O5_to_O7.jpg,layer9-17/layer9-17_O5_to_O7.jpg,OO,layer9-17,0.0,72.0,72.0,72.0,,,,,,,,,455.5807285,None,2,2.503932647,455.5807285,None,455.5807285,None,455.5807285,None,,,1,2022_Apr_05_1630,Semantic-hierachy,2021.1.2,59.80963765
73,Trial # 74,layer0-5_T11_to_T9.jpg,layer0-5/layer0-5_T11_to_T9.jpg,TT,layer0-5,0.0,73.0,73.0,73.0,,,,,,,,,458.1818725,None,1,1.596973262,458.1818725,None,458.1818725,None,458.1818725,None,,,1,2022_Apr_05_1630,Semantic-hierachy,2021.1.2,59.80963765
74,Trial # 75,layer0-5_O11_to_T12.jpg,layer0-5/layer0-5_O11_to_T12.jpg,OT,layer0-5,0.0,74.0,74.0,74.0,,,,,,,,,459.8984933,None,1,1.992626467,459.8984933,None,459.8984933,None,459.8984933,None,,,1,2022_Apr_05_1630,Semantic-hierachy,2021.1.2,59.80963765
75,Trial # 76,layer9-17_T7_to_T9.jpg,layer9-17/layer9-17_T7_to_T9.jpg,TT,layer9-17,0.0,75.0,75.0,75.0,,,,,,,,,462.0006129,None,3,3.924403413,462.0006129,None,462.0006129,None,462.0006129,None,,,1,2022_Apr_05_1630,Semantic-hierachy,2021.1.2,59.80963765
76,Trial # 77,layer6-8_O6_to_T2.jpg,layer6-8/layer6-8_O6_to_T2.jpg,OT,layer6-8,0.0,76.0,76.0,76.0,,,,,,,,,466.0176436,None,2,2.99672175,466.0176436,None,466.0176436,None,466.0176436,None,,,1,2022_Apr_05_1630,Semantic-hierachy,2021.1.2,59.80963765
77,Trial # 78,layer9-17_T4_to_T5.jpg,layer9-17/layer9-17_T4_to_T5.jpg,TT,layer9-17,0.0,77.0,77.0,77.0,,,,,,,,,469.1179343,None,2,17.88876154,469.1179343,None,469.1179343,None,469.1179343,None,,,1,2022_Apr_05_1630,Semantic-hierachy,2021.1.2,59.80963765
78,Trial # 79,layer0-5_T2_to_T4.jpg,layer0-5/layer0-5_T2_to_T4.jpg,TT,layer0-5,0.0,78.0,78.0,78.0,,,,,,,,,487.1414948,None,1,2.616264981,487.1414948,None,487.1414948,None,487.1414948,None,,,1,2022_Apr_05_1630,Semantic-hierachy,2021.1.2,59.80963765
79,Trial # 80,layer0-5_T2_to_T8.jpg,layer0-5/layer0-5_T2_to_T8.jpg,TT,layer0-5,0.0,79.0,79.0,79.0,,,,,,,,,489.858383,None,1,3.06452707,489.858383,None,489.858383,None,489.858383,None,,,1,2022_Apr_05_1630,Semantic-hierachy,2021.1.2,59.80963765
80,Trial # 81,layer9-17_T3_to_T9.jpg,layer9-17/layer9-17_T3_to_T9.jpg,TT,layer9-17,0.0,80.0,80.0,80.0,,,,,,,,,493.0422033,None,3,3.760387665,493.0422033,None,493.0422033,None,493.0422033,None,,,1,2022_Apr_05_1630,Semantic-hierachy,2021.1.2,59.80963765
81,Trial # 82,layer9-17_O2_to_O5.jpg,layer9-17/layer9-17_O2_to_O5.jpg,OO,layer9-17,0.0,81.0,81.0,81.0,,,,,,,,,496.9114603,None,1,2.042171372,496.9114603,None,496.9114603,None,496.9114603,None,,,1,2022_Apr_05_1630,Semantic-hierachy,2021.1.2,59.80963765
82,Trial # 83,layer6-8_O6_to_O7.jpg,layer6-8/layer6-8_O6_to_O7.jpg,OO,layer6-8,0.0,82.0,82.0,82.0,,,,,,,,,499.0440808,None,3,5.931334869,499.0440808,None,499.0440808,None,499.0440808,None,,,1,2022_Apr_05_1630,Semantic-hierachy,2021.1.2,59.80963765
83,Trial # 84,layer9-17_O11_to_T1.jpg,layer9-17/layer9-17_O11_to_T1.jpg,OT,layer9-17,0.0,83.0,83.0,83.0,,,,,,,,,505.096295,None,2,1.442875718,505.096295,None,505.096295,None,505.096295,None,,,1,2022_Apr_05_1630,Semantic-hierachy,2021.1.2,59.80963765
84,Trial # 85,layer6-8_O5_to_T12.jpg,layer6-8/layer6-8_O5_to_T12.jpg,OT,layer6-8,0.0,84.0,84.0,84.0,,,,,,,,,506.6470018,None,3,4.52123287,506.6470018,None,506.6470018,None,506.6470018,None,,,1,2022_Apr_05_1630,Semantic-hierachy,2021.1.2,59.80963765
85,Trial # 86,layer6-8_O4_to_O7.jpg,layer6-8/layer6-8_O4_to_O7.jpg,OO,layer6-8,0.0,85.0,85.0,85.0,,,,,,,,,511.2658329,None,3,2.718628059,511.2658329,None,511.2658329,None,511.2658329,None,,,1,2022_Apr_05_1630,Semantic-hierachy,2021.1.2,59.80963765
86,Trial # 87,layer6-8_T10_to_T8.jpg,layer6-8/layer6-8_T10_to_T8.jpg,TT,layer6-8,0.0,86.0,86.0,86.0,,,,,,,,,514.0990956,None,2,1.861729152,514.0990956,None,514.0990956,None,514.0990956,None,,,1,2022_Apr_05_1630,Semantic-hierachy,2021.1.2,59.80963765
87,Trial # 88,layer6-8_O10_to_T3.jpg,layer6-8/layer6-8_O10_to_T3.jpg,OT,layer6-8,0.0,87.0,87.0,87.0,,,,,,,,,516.067503,None,3,3.260464408,516.067503,None,516.067503,None,516.067503,None,,,1,2022_Apr_05_1630,Semantic-hierachy,2021.1.2,59.80963765
88,Trial # 89,layer6-8_O5_to_O9.jpg,layer6-8/layer6-8_O5_to_O9.jpg,OO,layer6-8,0.0,88.0,88.0,88.0,,,,,,,,,519.4171083,None,3,3.362402953,519.4171083,None,519.4171083,None,519.4171083,None,,,1,2022_Apr_05_1630,Semantic-hierachy,2021.1.2,59.80963765
89,Trial # 90,layer6-8_O10_to_O11.jpg,layer6-8/layer6-8_O10_to_O11.jpg,OO,layer6-8,0.0,89.0,89.0,89.0,,,,,,,,,522.8859279,None,3,11.4530101,522.8859279,None,522.8859279,None,522.8859279,None,,,1,2022_Apr_05_1630,Semantic-hierachy,2021.1.2,59.80963765
90,Trial # 91,layer0-5_O4_to_T5.jpg,layer0-5/layer0-5_O4_to_T5.jpg,OT,layer0-5,0.0,90.0,90.0,90.0,,,,,,,,,534.4551927,None,1,1.688110306,534.4551927,None,534.4551927,None,534.4551927,None,,,1,2022_Apr_05_1630,Semantic-hierachy,2021.1.2,59.80963765
91,Trial # 92,layer0-5_T11_to_T12.jpg,layer0-5/layer0-5_T11_to_T12.jpg,TT,layer0-5,0.0,91.0,91.0,91.0,,,,,,,,,536.2396047,None,1,1.766403355,536.2396047,None,536.2396047,None,536.2396047,None,,,1,2022_Apr_05_1630,Semantic-hierachy,2021.1.2,59.80963765
92,Trial # 93,layer0-5_T10_to_T3.jpg,layer0-5/layer0-5_T10_to_T3.jpg,TT,layer0-5,0.0,92.0,92.0,92.0,,,,,,,,,538.1236371,None,1,5.440964243,538.1236371,None,538.1236371,None,538.1236371,None,,,1,2022_Apr_05_1630,Semantic-hierachy,2021.1.2,59.80963765
93,Trial # 94,layer0-5_O2_to_O8.jpg,layer0-5/layer0-5_O2_to_O8.jpg,OO,layer0-5,0.0,93.0,93.0,93.0,,,,,,,,,543.6578403,None,1,1.350587108,543.6578403,None,543.6578403,None,543.6578403,None,,,1,2022_Apr_05_1630,Semantic-hierachy,2021.1.2,59.80963765
94,Trial # 95,layer0-5_T3_to_T8.jpg,layer0-5/layer0-5_T3_to_T8.jpg,TT,layer0-5,0.0,94.0,94.0,94.0,,,,,,,,,545.1082834,None,1,1.409062964,545.1082834,None,545.1082834,None,545.1082834,None,,,1,2022_Apr_05_1630,Semantic-hierachy,2021.1.2,59.80963765
95,Trial # 96,layer0-5_O7_to_O8.jpg,layer0-5/layer0-5_O7_to_O8.jpg,OO,layer0-5,0.0,95.0,95.0,95.0,,,,,,,,,546.6263417,None,3,2.424684513,546.6263417,None,546.6263417,None,546.6263417,None,,,1,2022_Apr_05_1630,Semantic-hierachy,2021.1.2,59.80963765
96,Trial # 97,layer6-8_T10_to_T6.jpg,layer6-8/layer6-8_T10_to_T6.jpg,TT,layer6-8,0.0,96.0,96.0,96.0,,,,,,,,,549.1602743,None,2,8.028104684,549.1602743,None,549.1602743,None,549.1602743,None,,,1,2022_Apr_05_1630,Semantic-hierachy,2021.1.2,59.80963765
97,Trial # 98,layer0-5_O1_to_O5.jpg,layer0-5/layer0-5_O1_to_O5.jpg,OO,layer0-5,0.0,97.0,97.0,97.0,,,,,,,,,557.2957842,None,1,1.75994924,557.2957842,None,557.2957842,None,557.2957842,None,,,1,2022_Apr_05_1630,Semantic-hierachy,2021.1.2,59.80963765
98,Trial # 99,layer6-8_O1_to_O6.jpg,layer6-8/layer6-8_O1_to_O6.jpg,OO,layer6-8,0.0,98.0,98.0,98.0,,,,,,,,,559.1626043,None,2,2.658773501,559.1626043,None,559.1626043,None,559.1626043,None,,,1,2022_Apr_05_1630,Semantic-hierachy,2021.1.2,59.80963765
99,Trial # 100,layer6-8_O3_to_T1.jpg,layer6-8/layer6-8_O3_to_T1.jpg,OT,layer6-8,0.0,99.0,99.0,99.0,,,,,,,,,561.930659,None,2,1.443297912,561.930659,None,561.930659,None,561.930659,None,,,1,2022_Apr_05_1630,Semantic-hierachy,2021.1.2,59.80963765
100,Trial # 101,layer6-8_T1_to_T9.jpg,layer6-8/layer6-8_T1_to_T9.jpg,TT,layer6-8,0.0,100.0,100.0,100.0,,,,,,,,,563.4809252,None,2,5.611501002,563.4809252,None,563.4809252,None,563.4809252,None,,,1,2022_Apr_05_1630,Semantic-hierachy,2021.1.2,59.80963765
101,Trial # 102,layer9-17_O12_to_O6.jpg,layer9-17/layer9-17_O12_to_O6.jpg,OO,layer9-17,0.0,101.0,101.0,101.0,,,,,,,,,569.1987801,None,3,2.62003346,569.1987801,None,569.1987801,None,569.1987801,None,,,1,2022_Apr_05_1630,Semantic-hierachy,2021.1.2,59.80963765
102,Trial # 103,layer0-5_T4_to_T9.jpg,layer0-5/layer0-5_T4_to_T9.jpg,TT,layer0-5,0.0,102.0,102.0,102.0,,,,,,,,,571.9343559,None,1,1.642982079,571.9343559,None,571.9343559,None,571.9343559,None,,,1,2022_Apr_05_1630,Semantic-hierachy,2021.1.2,59.80963765
103,Trial # 104,layer6-8_O10_to_T1.jpg,layer6-8/layer6-8_O10_to_T1.jpg,OT,layer6-8,0.0,103.0,103.0,103.0,,,,,,,,,573.6840081,None,3,4.557956441,573.6840081,None,573.6840081,None,573.6840081,None,,,1,2022_Apr_05_1630,Semantic-hierachy,2021.1.2,59.80963765
104,Trial # 105,layer0-5_O6_to_T2.jpg,layer0-5/layer0-5_O6_to_T2.jpg,OT,layer0-5,0.0,104.0,104.0,104.0,,,,,,,,,578.3361944,None,1,1.998188223,578.3361944,None,578.3361944,None,578.3361944,None,,,1,2022_Apr_05_1630,Semantic-hierachy,2021.1.2,59.80963765
105,Trial # 106,layer9-17_T11_to_T2.jpg,layer9-17/layer9-17_T11_to_T2.jpg,TT,layer9-17,0.0,105.0,105.0,105.0,,,,,,,,,580.4522365,None,2,1.622398813,580.4522365,None,580.4522365,None,580.4522365,None,,,1,2022_Apr_05_1630,Semantic-hierachy,2021.1.2,59.80963765
106,Trial # 107,layer9-17_O12_to_O8.jpg,layer9-17/layer9-17_O12_to_O8.jpg,OO,layer9-17,0.0,106.0,106.0,106.0,,,,,,,,,582.1873961,None,2,4.328745725,582.1873961,None,582.1873961,None,582.1873961,None,,,1,2022_Apr_05_1630,Semantic-hierachy,2021.1.2,59.80963765
107,Trial # 108,layer0-5_T12_to_T3.jpg,layer0-5/layer0-5_T12_to_T3.jpg,TT,layer0-5,0.0,107.0,107.0,107.0,,,,,,,,,586.6214331,None,1,7.744212549,586.6214331,None,586.6214331,None,586.6214331,None,,,1,2022_Apr_05_1630,Semantic-hierachy,2021.1.2,59.80963765
108,Trial # 109,layer0-5_T1_to_T10.jpg,layer0-5/layer0-5_T1_to_T10.jpg,TT,layer0-5,0.0,108.0,108.0,108.0,,,,,,,,,594.4571773,None,1,5.34902789,594.4571773,None,594.4571773,None,594.4571773,None,,,1,2022_Apr_05_1630,Semantic-hierachy,2021.1.2,59.80963765
109,Trial # 110,layer6-8_O4_to_T5.jpg,layer6-8/layer6-8_O4_to_T5.jpg,OT,layer6-8,0.0,109.0,109.0,109.0,,,,,,,,,599.925375,None,3,11.27802336,599.925375,None,599.925375,None,599.925375,None,,,1,2022_Apr_05_1630,Semantic-hierachy,2021.1.2,59.80963765
110,Trial # 111,layer9-17_O11_to_O7.jpg,layer9-17/layer9-17_O11_to_O7.jpg,OO,layer9-17,0.0,110.0,110.0,110.0,,,,,,,,,611.3135223,None,2,17.62699437,611.3135223,None,611.3135223,None,611.3135223,None,,,1,2022_Apr_05_1630,Semantic-hierachy,2021.1.2,59.80963765
111,Trial # 112,layer0-5_O5_to_O8.jpg,layer0-5/layer0-5_O5_to_O8.jpg,OO,layer0-5,0.0,111.0,111.0,111.0,,,,,,,,,629.0843999,None,1,6.002618578,629.0843999,None,629.0843999,None,629.0843999,None,,,1,2022_Apr_05_1630,Semantic-hierachy,2021.1.2,59.80963765
112,Trial # 113,layer0-5_O10_to_O4.jpg,layer0-5/layer0-5_O10_to_O4.jpg,OO,layer0-5,0.0,112.0,112.0,112.0,,,,,,,,,635.1693769,None,1,1.893132646,635.1693769,None,635.1693769,None,635.1693769,None,,,1,2022_Apr_05_1630,Semantic-hierachy,2021.1.2,59.80963765
113,Trial # 114,layer9-17_O4_to_O8.jpg,layer9-17/layer9-17_O4_to_O8.jpg,OO,layer9-17,0.0,113.0,113.0,113.0,,,,,,,,,637.1710938,None,3,8.556846343,637.1710938,None,637.1710938,None,637.1710938,None,,,1,2022_Apr_05_1630,Semantic-hierachy,2021.1.2,59.80963765
114,Trial # 115,layer0-5_O2_to_T8.jpg,layer0-5/layer0-5_O2_to_T8.jpg,OT,layer0-5,0.0,114.0,114.0,114.0,,,,,,,,,645.8396955,None,1,2.012347945,645.8396955,None,645.8396955,None,645.8396955,None,,,1,2022_Apr_05_1630,Semantic-hierachy,2021.1.2,59.80963765
115,Trial # 116,layer9-17_T2_to_T3.jpg,layer9-17/layer9-17_T2_to_T3.jpg,TT,layer9-17,0.0,115.0,115.0,115.0,,,,,,,,,647.9412733,None,2,6.36446327,647.9412733,None,647.9412733,None,647.9412733,None,,,1,2022_Apr_05_1630,Semantic-hierachy,2021.1.2,59.80963765
116,Trial # 117,layer6-8_O1_to_T10.jpg,layer6-8/layer6-8_O1_to_T10.jpg,OT,layer6-8,0.0,116.0,116.0,116.0,,,,,,,,,654.4257268,None,3,4.012134701,654.4257268,None,654.4257268,None,654.4257268,None,,,1,2022_Apr_05_1630,Semantic-hierachy,2021.1.2,59.80963765
117,Trial # 118,layer0-5_T3_to_T7.jpg,layer0-5/layer0-5_T3_to_T7.jpg,TT,layer0-5,0.0,117.0,117.0,117.0,,,,,,,,,658.5447514,None,1,4.892954084,658.5447514,None,658.5447514,None,658.5447514,None,,,1,2022_Apr_05_1630,Semantic-hierachy,2021.1.2,59.80963765
118,Trial # 119,layer9-17_O1_to_O12.jpg,layer9-17/layer9-17_O1_to_O12.jpg,OO,layer9-17,0.0,118.0,118.0,118.0,,,,,,,,,663.5456741,None,2,2.342878314,663.5456741,None,663.5456741,None,663.5456741,None,,,1,2022_Apr_05_1630,Semantic-hierachy,2021.1.2,59.80963765
119,Trial # 120,layer6-8_O12_to_O2.jpg,layer6-8/layer6-8_O12_to_O2.jpg,OO,layer6-8,0.0,119.0,119.0,119.0,,,,,,,,,665.9959481,None,3,3.892015114,665.9959481,None,665.9959481,None,665.9959481,None,,,1,2022_Apr_05_1630,Semantic-hierachy,2021.1.2,59.80963765
120,Trial # 121,layer9-17_O10_to_O9.jpg,layer9-17/layer9-17_O10_to_O9.jpg,OO,layer9-17,0.0,120.0,120.0,120.0,,,,,,,,,669.9964497,None,2,1.39466637,669.9964497,None,669.9964497,None,669.9964497,None,,,1,2022_Apr_05_1630,Semantic-hierachy,2021.1.2,59.80963765
121,Trial # 122,layer6-8_O4_to_T10.jpg,layer6-8/layer6-8_O4_to_T10.jpg,OT,layer6-8,0.0,121.0,121.0,121.0,,,,,,,,,671.497676,None,3,9.795596046,671.497676,None,671.497676,None,671.497676,None,,,1,2022_Apr_05_1630,Semantic-hierachy,2021.1.2,59.80963765
122,Trial # 123,layer6-8_O2_to_T3.jpg,layer6-8/layer6-8_O2_to_T3.jpg,OT,layer6-8,0.0,122.0,122.0,122.0,,,,,,,,,681.450796,None,3,2.796256635,681.450796,None,681.450796,None,681.450796,None,,,1,2022_Apr_05_1630,Semantic-hierachy,2021.1.2,59.80963765
123,Trial # 124,layer0-5_O1_to_O7.jpg,layer0-5/layer0-5_O1_to_O7.jpg,OO,layer0-5,0.0,123.0,123.0,123.0,,,,,,,,,684.3678761,None,1,4.509785675,684.3678761,None,684.3678761,None,684.3678761,None,,,1,2022_Apr_05_1630,Semantic-hierachy,2021.1.2,59.80963765
124,Trial # 125,layer0-5_T8_to_T9.jpg,layer0-5/layer0-5_T8_to_T9.jpg,TT,layer0-5,0.0,124.0,124.0,124.0,,,,,,,,,688.9706131,None,1,1.209941809,688.9706131,None,688.9706131,None,688.9706131,None,,,1,2022_Apr_05_1630,Semantic-hierachy,2021.1.2,59.80963765
125,Trial # 126,layer0-5_O12_to_T8.jpg,layer0-5/layer0-5_O12_to_T8.jpg,OT,layer0-5,0.0,125.0,125.0,125.0,,,,,,,,,690.3029035,None,1,1.510608867,690.3029035,None,690.3029035,None,690.3029035,None,,,1,2022_Apr_05_1630,Semantic-hierachy,2021.1.2,59.80963765
126,Trial # 127,layer9-17_O4_to_O6.jpg,layer9-17/layer9-17_O4_to_O6.jpg,OO,layer9-17,0.0,126.0,126.0,126.0,,,,,,,,,691.921209,None,2,15.57622593,691.921209,None,691.921209,None,691.921209,None,,,1,2022_Apr_05_1630,Semantic-hierachy,2021.1.2,59.80963765
127,Trial # 128,layer6-8_O12_to_O6.jpg,layer6-8/layer6-8_O12_to_O6.jpg,OO,layer6-8,0.0,127.0,127.0,127.0,,,,,,,,,707.5919231,None,2,1.411260176,707.5919231,None,707.5919231,None,707.5919231,None,,,1,2022_Apr_05_1630,Semantic-hierachy,2021.1.2,59.80963765
128,Trial # 129,layer0-5_T4_to_T6.jpg,layer0-5/layer0-5_T4_to_T6.jpg,TT,layer0-5,0.0,128.0,128.0,128.0,,,,,,,,,709.1435846,None,1,1.903585609,709.1435846,None,709.1435846,None,709.1435846,None,,,1,2022_Apr_05_1630,Semantic-hierachy,2021.1.2,59.80963765
129,Trial # 130,layer9-17_O1_to_O3.jpg,layer9-17/layer9-17_O1_to_O3.jpg,OO,layer9-17,0.0,129.0,129.0,129.0,,,,,,,,,711.1442494,None,2,1.628841816,711.1442494,None,711.1442494,None,711.1442494,None,,,1,2022_Apr_05_1630,Semantic-hierachy,2021.1.2,59.80963765
130,Trial # 131,layer9-17_O10_to_O3.jpg,layer9-17/layer9-17_O10_to_O3.jpg,OO,layer9-17,0.0,130.0,130.0,130.0,,,,,,,,,712.8781938,None,2,1.361191543,712.8781938,None,712.8781938,None,712.8781938,None,,,1,2022_Apr_05_1630,Semantic-hierachy,2021.1.2,59.80963765
131,Trial # 132,layer9-17_O12_to_O3.jpg,layer9-17/layer9-17_O12_to_O3.jpg,OO,layer9-17,0.0,131.0,131.0,131.0,,,,,,,,,714.3604469,None,2,1.360101428,714.3604469,None,714.3604469,None,714.3604469,None,,,1,2022_Apr_05_1630,Semantic-hierachy,2021.1.2,59.80963765
132,Trial # 133,layer9-17_O11_to_O4.jpg,layer9-17/layer9-17_O11_to_O4.jpg,OO,layer9-17,0.0,132.0,132.0,132.0,,,,,,,,,715.8274462,None,4,15.6299881,715.8274462,None,715.8274462,None,715.8274462,None,,,1,2022_Apr_05_1630,Semantic-hierachy,2021.1.2,59.80963765
133,Trial # 134,layer9-17_T4_to_T7.jpg,layer9-17/layer9-17_T4_to_T7.jpg,TT,layer9-17,0.0,133.0,133.0,133.0,,,,,,,,,731.5660037,None,2,1.609924672,731.5660037,None,731.5660037,None,731.5660037,None,,,1,2022_Apr_05_1630,Semantic-hierachy,2021.1.2,59.80963765
134,Trial # 135,layer9-17_O1_to_T1.jpg,layer9-17/layer9-17_O1_to_T1.jpg,OT,layer9-17,0.0,134.0,134.0,134.0,,,,,,,,,733.2676231,None,3,2.757137272,733.2676231,None,733.2676231,None,733.2676231,None,,,1,2022_Apr_05_1630,Semantic-hierachy,2021.1.2,59.80963765
135,Trial # 136,layer6-8_T2_to_T5.jpg,layer6-8/layer6-8_T2_to_T5.jpg,TT,layer6-8,0.0,135.0,135.0,135.0,,,,,,,,,736.1188625,None,3,4.534985558,736.1188625,None,736.1188625,None,736.1188625,None,,,1,2022_Apr_05_1630,Semantic-hierachy,2021.1.2,59.80963765
136,Trial # 137,layer9-17_T11_to_T7.jpg,layer9-17/layer9-17_T11_to_T7.jpg,TT,layer9-17,0.0,136.0,136.0,136.0,,,,,,,,,740.7521085,None,2,4.95579485,740.7521085,None,740.7521085,None,740.7521085,None,,,1,2022_Apr_05_1630,Semantic-hierachy,2021.1.2,59.80963765
137,Trial # 138,layer6-8_O3_to_O8.jpg,layer6-8/layer6-8_O3_to_O8.jpg,OO,layer6-8,0.0,137.0,137.0,137.0,,,,,,,,,745.8204261,None,3,3.261776717,745.8204261,None,745.8204261,None,745.8204261,None,,,1,2022_Apr_05_1630,Semantic-hierachy,2021.1.2,59.80963765
138,Trial # 139,layer6-8_O1_to_T7.jpg,layer6-8/layer6-8_O1_to_T7.jpg,OT,layer6-8,0.0,138.0,138.0,138.0,,,,,,,,,749.1714049,None,3,3.316530932,749.1714049,None,749.1714049,None,749.1714049,None,,,1,2022_Apr_05_1630,Semantic-hierachy,2021.1.2,59.80963765
139,Trial # 140,layer9-17_T1_to_T3.jpg,layer9-17/layer9-17_T1_to_T3.jpg,TT,layer9-17,0.0,139.0,139.0,139.0,,,,,,,,,752.5898727,None,4,16.74726911,752.5898727,None,752.5898727,None,752.5898727,None,,,1,2022_Apr_05_1630,Semantic-hierachy,2021.1.2,59.80963765
140,Trial # 141,layer6-8_O10_to_O12.jpg,layer6-8/layer6-8_O10_to_O12.jpg,OO,layer6-8,0.0,140.0,140.0,140.0,,,,,,,,,769.444315,None,3,9.977154316,769.444315,None,769.444315,None,769.444315,None,,,1,2022_Apr_05_1630,Semantic-hierachy,2021.1.2,59.80963765
141,Trial # 142,layer6-8_O12_to_T11.jpg,layer6-8/layer6-8_O12_to_T11.jpg,OT,layer6-8,0.0,141.0,141.0,141.0,,,,,,,,,779.5311035,None,3,5.896253143,779.5311035,None,779.5311035,None,779.5311035,None,,,1,2022_Apr_05_1630,Semantic-hierachy,2021.1.2,59.80963765
142,Trial # 143,layer0-5_O11_to_O5.jpg,layer0-5/layer0-5_O11_to_O5.jpg,OO,layer0-5,0.0,142.0,142.0,142.0,,,,,,,,,785.5160235,None,1,1.800218927,785.5160235,None,785.5160235,None,785.5160235,None,,,1,2022_Apr_05_1630,Semantic-hierachy,2021.1.2,59.80963765
143,Trial # 144,layer6-8_O1_to_O8.jpg,layer6-8/layer6-8_O1_to_O8.jpg,OO,layer6-8,0.0,143.0,143.0,143.0,,,,,,,,,787.4176667,None,2,2.279801013,787.4176667,None,787.4176667,None,787.4176667,None,,,1,2022_Apr_05_1630,Semantic-hierachy,2021.1.2,59.80963765
144,Trial # 145,layer0-5_T2_to_T5.jpg,layer0-5/layer0-5_T2_to_T5.jpg,TT,layer0-5,0.0,144.0,144.0,144.0,,,,,,,,,789.8180348,None,1,2.142789493,789.8180348,None,789.8180348,None,789.8180348,None,,,1,2022_Apr_05_1630,Semantic-hierachy,2021.1.2,59.80963765
145,Trial # 146,layer9-17_O8_to_T3.jpg,layer9-17/layer9-17_O8_to_T3.jpg,OT,layer9-17,0.0,145.0,145.0,145.0,,,,,,,,,792.085815,None,2,2.32232451,792.085815,None,792.085815,None,792.085815,None,,,1,2022_Apr_05_1630,Semantic-hierachy,2021.1.2,59.80963765
146,Trial # 147,layer9-17_O8_to_T4.jpg,layer9-17/layer9-17_O8_to_T4.jpg,OT,layer9-17,0.0,146.0,146.0,146.0,,,,,,,,,794.5021725,None,2,3.032303348,794.5021725,None,794.5021725,None,794.5021725,None,,,1,2022_Apr_05_1630,Semantic-hierachy,2021.1.2,59.80963765
147,Trial # 148,layer9-17_O4_to_T9.jpg,layer9-17/layer9-17_O4_to_T9.jpg,OT,layer9-17,0.0,147.0,147.0,147.0,,,,,,,,,797.6364618,None,2,5.415843764,797.6364618,None,797.6364618,None,797.6364618,None,,,1,2022_Apr_05_1630,Semantic-hierachy,2021.1.2,59.80963765
148,Trial # 149,layer6-8_O4_to_O8.jpg,layer6-8/layer6-8_O4_to_O8.jpg,OO,layer6-8,0.0,148.0,148.0,148.0,,,,,,,,,803.1550976,None,2,3.21352359,803.1550976,None,803.1550976,None,803.1550976,None,,,1,2022_Apr_05_1630,Semantic-hierachy,2021.1.2,59.80963765
149,Trial # 150,layer0-5_O12_to_T7.jpg,layer0-5/layer0-5_O12_to_T7.jpg,OT,layer0-5,0.0,149.0,149.0,149.0,,,,,,,,,806.490082,None,1,2.955645758,806.490082,None,806.490082,None,806.490082,None,,,1,2022_Apr_05_1630,Semantic-hierachy,2021.1.2,59.80963765
150,Trial # 151,layer6-8_T1_to_T3.jpg,layer6-8/layer6-8_T1_to_T3.jpg,TT,layer6-8,,,,,0.0,0.0,0.0,0.0,,,,,811.6916738,None,3,2.065943631,811.6916738,None,811.6916738,None,811.6916738,None,,,1,2022_Apr_05_1630,Semantic-hierachy,2021.1.2,59.80963765
151,Trial # 152,layer0-5_O8_to_O9.jpg,layer0-5/layer0-5_O8_to_O9.jpg,OO,layer0-5,,,,,0.0,1.0,1.0,1.0,,,,,813.8748899,None,1,2.141870146,813.8748899,None,813.8748899,None,813.8748899,None,,,1,2022_Apr_05_1630,Semantic-hierachy,2021.1.2,59.80963765
152,Trial # 153,layer9-17_T1_to_T5.jpg,layer9-17/layer9-17_T1_to_T5.jpg,TT,layer9-17,,,,,0.0,2.0,2.0,2.0,,,,,816.1093125,None,2,1.738613269,816.1093125,None,816.1093125,None,816.1093125,None,,,1,2022_Apr_05_1630,Semantic-hierachy,2021.1.2,59.80963765
153,Trial # 154,layer6-8_T7_to_T9.jpg,layer6-8/layer6-8_T7_to_T9.jpg,TT,layer6-8,,,,,0.0,3.0,3.0,3.0,,,,,817.9604724,None,3,7.441884315,817.9604724,None,817.9604724,None,817.9604724,None,,,1,2022_Apr_05_1630,Semantic-hierachy,2021.1.2,59.80963765
154,Trial # 155,layer9-17_T12_to_T7.jpg,layer9-17/layer9-17_T12_to_T7.jpg,TT,layer9-17,,,,,0.0,4.0,4.0,4.0,,,,,825.5115793,None,3,1.494852946,825.5115793,None,825.5115793,None,825.5115793,None,,,1,2022_Apr_05_1630,Semantic-hierachy,2021.1.2,59.80963765
155,Trial # 156,layer0-5_O8_to_T11.jpg,layer0-5/layer0-5_O8_to_T11.jpg,OT,layer0-5,,,,,0.0,5.0,5.0,5.0,,,,,827.0959461,None,1,1.591356573,827.0959461,None,827.0959461,None,827.0959461,None,,,1,2022_Apr_05_1630,Semantic-hierachy,2021.1.2,59.80963765
156,Trial # 157,layer0-5_O1_to_O9.jpg,layer0-5/layer0-5_O1_to_O9.jpg,OO,layer0-5,,,,,0.0,6.0,6.0,6.0,,,,,828.7963204,None,1,4.944944289,828.7963204,None,828.7963204,None,828.7963204,None,,,1,2022_Apr_05_1630,Semantic-hierachy,2021.1.2,59.80963765
157,Trial # 158,layer0-5_O10_to_O12.jpg,layer0-5/layer0-5_O10_to_O12.jpg,OO,layer0-5,,,,,0.0,7.0,7.0,7.0,,,,,833.8308032,None,1,1.931114525,833.8308032,None,833.8308032,None,833.8308032,None,,,1,2022_Apr_05_1630,Semantic-hierachy,2021.1.2,59.80963765
158,Trial # 159,layer6-8_O10_to_T5.jpg,layer6-8/layer6-8_O10_to_T5.jpg,OT,layer6-8,,,,,0.0,8.0,8.0,8.0,,,,,835.8815025,None,3,1.794806953,835.8815025,None,835.8815025,None,835.8815025,None,,,1,2022_Apr_05_1630,Semantic-hierachy,2021.1.2,59.80963765
159,Trial # 160,layer6-8_O5_to_O6.jpg,layer6-8/layer6-8_O5_to_O6.jpg,OO,layer6-8,,,,,0.0,9.0,9.0,9.0,,,,,837.7664599,None,2,2.478538945,837.7664599,None,837.7664599,None,837.7664599,None,,,1,2022_Apr_05_1630,Semantic-hierachy,2021.1.2,59.80963765
160,Trial # 161,layer6-8_O6_to_T11.jpg,layer6-8/layer6-8_O6_to_T11.jpg,OT,layer6-8,,,,,0.0,10.0,10.0,10.0,,,,,840.3660266,None,2,8.962478011,840.3660266,None,840.3660266,None,840.3660266,None,,,1,2022_Apr_05_1630,Semantic-hierachy,2021.1.2,59.80963765
161,Trial # 162,layer9-17_O12_to_O9.jpg,layer9-17/layer9-17_O12_to_O9.jpg,OO,layer9-17,,,,,0.0,11.0,11.0,11.0,,,,,849.419245,None,2,2.981401553,849.419245,None,849.419245,None,849.419245,None,,,1,2022_Apr_05_1630,Semantic-hierachy,2021.1.2,59.80963765
162,Trial # 163,layer6-8_O12_to_T6.jpg,layer6-8/layer6-8_O12_to_T6.jpg,OT,layer6-8,,,,,0.0,12.0,12.0,12.0,,,,,852.5042186,None,3,1.562975847,852.5042186,None,852.5042186,None,852.5042186,None,,,1,2022_Apr_05_1630,Semantic-hierachy,2021.1.2,59.80963765
163,Trial # 164,layer0-5_T11_to_T7.jpg,layer0-5/layer0-5_T11_to_T7.jpg,TT,layer0-5,,,,,0.0,13.0,13.0,13.0,,,,,854.1703662,None,1,1.662093016,854.1703662,None,854.1703662,None,854.1703662,None,,,1,2022_Apr_05_1630,Semantic-hierachy,2021.1.2,59.80963765
164,Trial # 165,layer9-17_O10_to_T5.jpg,layer9-17/layer9-17_O10_to_T5.jpg,OT,layer9-17,,,,,0.0,14.0,14.0,14.0,,,,,855.9546409,None,4,14.69948515,855.9546409,None,855.9546409,None,855.9546409,None,,,1,2022_Apr_05_1630,Semantic-hierachy,2021.1.2,59.80963765
165,Trial # 166,layer9-17_T1_to_T6.jpg,layer9-17/layer9-17_T1_to_T6.jpg,TT,layer9-17,,,,,0.0,15.0,15.0,15.0,,,,,870.7759086,None,2,8.902292104,870.7759086,None,870.7759086,None,870.7759086,None,,,1,2022_Apr_05_1630,Semantic-hierachy,2021.1.2,59.80963765
166,Trial # 167,layer0-5_T1_to_T3.jpg,layer0-5/layer0-5_T1_to_T3.jpg,TT,layer0-5,,,,,0.0,16.0,16.0,16.0,,,,,879.7947365,None,1,1.657375624,879.7947365,None,879.7947365,None,879.7947365,None,,,1,2022_Apr_05_1630,Semantic-hierachy,2021.1.2,59.80963765
167,Trial # 168,layer0-5_O2_to_O9.jpg,layer0-5/layer0-5_O2_to_O9.jpg,OO,layer0-5,,,,,0.0,17.0,17.0,17.0,,,,,881.5627763,None,1,1.654514629,881.5627763,None,881.5627763,None,881.5627763,None,,,1,2022_Apr_05_1630,Semantic-hierachy,2021.1.2,59.80963765
168,Trial # 169,layer9-17_O3_to_T4.jpg,layer9-17/layer9-17_O3_to_T4.jpg,OT,layer9-17,,,,,0.0,18.0,18.0,18.0,,,,,883.3127743,None,2,2.147980648,883.3127743,None,883.3127743,None,883.3127743,None,,,1,2022_Apr_05_1630,Semantic-hierachy,2021.1.2,59.80963765
169,Trial # 170,layer6-8_O11_to_O9.jpg,layer6-8/layer6-8_O11_to_O9.jpg,OO,layer6-8,,,,,0.0,19.0,19.0,19.0,,,,,885.5800015,None,2,4.277596219,885.5800015,None,885.5800015,None,885.5800015,None,,,1,2022_Apr_05_1630,Semantic-hierachy,2021.1.2,59.80963765
170,Trial # 171,layer9-17_O1_to_O7.jpg,layer9-17/layer9-17_O1_to_O7.jpg,OO,layer9-17,,,,,0.0,20.0,20.0,20.0,,,,,889.9479683,None,3,3.63481883,889.9479683,None,889.9479683,None,889.9479683,None,,,1,2022_Apr_05_1630,Semantic-hierachy,2021.1.2,59.80963765
171,Trial # 172,layer0-5_T12_to_T4.jpg,layer0-5/layer0-5_T12_to_T4.jpg,TT,layer0-5,,,,,0.0,21.0,21.0,21.0,,,,,893.6992722,None,1,1.476202833,893.6992722,None,893.6992722,None,893.6992722,None,,,1,2022_Apr_05_1630,Semantic-hierachy,2021.1.2,59.80963765
172,Trial # 173,layer0-5_O4_to_T4.jpg,layer0-5/layer0-5_O4_to_T4.jpg,OT,layer0-5,,,,,0.0,22.0,22.0,22.0,,,,,895.2662631,None,1,6.164675084,895.2662631,None,895.2662631,None,895.2662631,None,,,1,2022_Apr_05_1630,Semantic-hierachy,2021.1.2,59.80963765
173,Trial # 174,layer6-8_T12_to_T5.jpg,layer6-8/layer6-8_T12_to_T5.jpg,TT,layer6-8,,,,,0.0,23.0,23.0,23.0,,,,,901.5360793,None,3,3.014083214,901.5360793,None,901.5360793,None,901.5360793,None,,,1,2022_Apr_05_1630,Semantic-hierachy,2021.1.2,59.80963765
174,Trial # 175,layer6-8_O11_to_T1.jpg,layer6-8/layer6-8_O11_to_T1.jpg,OT,layer6-8,,,,,0.0,24.0,24.0,24.0,,,,,904.6525416,None,3,2.098169249,904.6525416,None,904.6525416,None,904.6525416,None,,,1,2022_Apr_05_1630,Semantic-hierachy,2021.1.2,59.80963765
175,Trial # 176,layer0-5_O7_to_T8.jpg,layer0-5/layer0-5_O7_to_T8.jpg,OT,layer0-5,,,,,0.0,25.0,25.0,25.0,,,,,906.8709275,None,1,1.757232631,906.8709275,None,906.8709275,None,906.8709275,None,,,1,2022_Apr_05_1630,Semantic-hierachy,2021.1.2,59.80963765
176,Trial # 177,layer0-5_O11_to_T5.jpg,layer0-5/layer0-5_O11_to_T5.jpg,OT,layer0-5,,,,,0.0,26.0,26.0,26.0,,,,,908.7876242,None,1,1.984440233,908.7876242,None,908.7876242,None,908.7876242,None,,,1,2022_Apr_05_1630,Semantic-hierachy,2021.1.2,59.80963765
177,Trial # 178,layer9-17_O2_to_T2.jpg,layer9-17/layer9-17_O2_to_T2.jpg,OT,layer9-17,,,,,0.0,27.0,27.0,27.0,,,,,910.8709976,None,1,4.063033775,910.8709976,None,910.8709976,None,910.8709976,None,,,1,2022_Apr_05_1630,Semantic-hierachy,2021.1.2,59.80963765
178,Trial # 179,layer0-5_O4_to_T9.jpg,layer0-5/layer0-5_O4_to_T9.jpg,OT,layer0-5,,,,,0.0,28.0,28.0,28.0,,,,,915.0560099,None,1,5.307856085,915.0560099,None,915.0560099,None,915.0560099,None,,,1,2022_Apr_05_1630,Semantic-hierachy,2021.1.2,59.80963765
179,Trial # 180,layer9-17_T6_to_T8.jpg,layer9-17/layer9-17_T6_to_T8.jpg,TT,layer9-17,,,,,0.0,29.0,29.0,29.0,,,,,920.4577504,None,2,5.484137486,920.4577504,None,920.4577504,None,920.4577504,None,,,1,2022_Apr_05_1630,Semantic-hierachy,2021.1.2,59.80963765
180,Trial # 181,layer9-17_O12_to_O5.jpg,layer9-17/layer9-17_O12_to_O5.jpg,OO,layer9-17,,,,,0.0,30.0,30.0,30.0,,,,,926.0596118,None,2,7.346628347,926.0596118,None,926.0596118,None,926.0596118,None,,,1,2022_Apr_05_1630,Semantic-hierachy,2021.1.2,59.80963765
181,Trial # 182,layer6-8_O1_to_O7.jpg,layer6-8/layer6-8_O1_to_O7.jpg,OO,layer6-8,,,,,0.0,31.0,31.0,31.0,,,,,933.4950255,None,2,6.233659056,933.4950255,None,933.4950255,None,933.4950255,None,,,1,2022_Apr_05_1630,Semantic-hierachy,2021.1.2,59.80963765
182,Trial # 183,layer6-8_O3_to_T10.jpg,layer6-8/layer6-8_O3_to_T10.jpg,OT,layer6-8,,,,,0.0,32.0,32.0,32.0,,,,,939.8470543,None,3,1.972632337,939.8470543,None,939.8470543,None,939.8470543,None,,,1,2022_Apr_05_1630,Semantic-hierachy,2021.1.2,59.80963765
183,Trial # 184,layer0-5_O1_to_T11.jpg,layer0-5/layer0-5_O1_to_T11.jpg,OT,layer0-5,,,,,0.0,33.0,33.0,33.0,,,,,941.9825784,None,1,1.729334835,941.9825784,None,941.9825784,None,941.9825784,None,,,1,2022_Apr_05_1630,Semantic-hierachy,2021.1.2,59.80963765
184,Trial # 185,layer6-8_O8_to_O9.jpg,layer6-8/layer6-8_O8_to_O9.jpg,OO,layer6-8,,,,,0.0,34.0,34.0,34.0,,,,,943.8319588,None,2,15.13261505,943.8319588,None,943.8319588,None,943.8319588,None,,,1,2022_Apr_05_1630,Semantic-hierachy,2021.1.2,59.80963765
185,Trial # 186,layer9-17_O4_to_O9.jpg,layer9-17/layer9-17_O4_to_O9.jpg,OO,layer9-17,,,,,0.0,35.0,35.0,35.0,,,,,959.0707087,None,3,4.777470088,959.0707087,None,959.0707087,None,959.0707087,None,,,1,2022_Apr_05_1630,Semantic-hierachy,2021.1.2,59.80963765
186,Trial # 187,layer0-5_O12_to_O5.jpg,layer0-5/layer0-5_O12_to_O5.jpg,OO,layer0-5,,,,,0.0,36.0,36.0,36.0,,,,,963.9544622,None,1,1.694241286,963.9544622,None,963.9544622,None,963.9544622,None,,,1,2022_Apr_05_1630,Semantic-hierachy,2021.1.2,59.80963765
187,Trial # 188,layer6-8_T12_to_T4.jpg,layer6-8/layer6-8_T12_to_T4.jpg,TT,layer6-8,,,,,0.0,37.0,37.0,37.0,,,,,965.7390318,None,3,2.433621177,965.7390318,None,965.7390318,None,965.7390318,None,,,1,2022_Apr_05_1630,Semantic-hierachy,2021.1.2,59.80963765
188,Trial # 189,layer0-5_T6_to_T8.jpg,layer0-5/layer0-5_T6_to_T8.jpg,TT,layer0-5,,,,,0.0,38.0,38.0,38.0,,,,,968.2733027,None,1,2.161470878,968.2733027,None,968.2733027,None,968.2733027,None,,,1,2022_Apr_05_1630,Semantic-hierachy,2021.1.2,59.80963765
189,Trial # 190,layer6-8_O11_to_T2.jpg,layer6-8/layer6-8_O11_to_T2.jpg,OT,layer6-8,,,,,0.0,39.0,39.0,39.0,,,,,970.556148,None,3,2.074482025,970.556148,None,970.556148,None,970.556148,None,,,1,2022_Apr_05_1630,Semantic-hierachy,2021.1.2,59.80963765
190,Trial # 191,layer6-8_O1_to_O3.jpg,layer6-8/layer6-8_O1_to_O3.jpg,OO,layer6-8,,,,,0.0,40.0,40.0,40.0,,,,,972.7419289,None,2,2.508766661,972.7419289,None,972.7419289,None,972.7419289,None,,,1,2022_Apr_05_1630,Semantic-hierachy,2021.1.2,59.80963765
191,Trial # 192,layer0-5_O7_to_T1.jpg,layer0-5/layer0-5_O7_to_T1.jpg,OT,layer0-5,,,,,0.0,41.0,41.0,41.0,,,,,975.3414791,None,1,3.163665179,975.3414791,None,975.3414791,None,975.3414791,None,,,1,2022_Apr_05_1630,Semantic-hierachy,2021.1.2,59.80963765
192,Trial # 193,layer6-8_O3_to_T7.jpg,layer6-8/layer6-8_O3_to_T7.jpg,OT,layer6-8,,,,,0.0,42.0,42.0,42.0,,,,,978.6258647,None,3,1.70771325,978.6258647,None,978.6258647,None,978.6258647,None,,,1,2022_Apr_05_1630,Semantic-hierachy,2021.1.2,59.80963765
193,Trial # 194,layer9-17_T10_to_T6.jpg,layer9-17/layer9-17_T10_to_T6.jpg,TT,layer9-17,,,,,0.0,43.0,43.0,43.0,,,,,980.4259913,None,2,1.613709088,980.4259913,None,980.4259913,None,980.4259913,None,,,1,2022_Apr_05_1630,Semantic-hierachy,2021.1.2,59.80963765
194,Trial # 195,layer6-8_T2_to_T9.jpg,layer6-8/layer6-8_T2_to_T9.jpg,TT,layer6-8,,,,,0.0,44.0,44.0,44.0,,,,,982.1613129,None,3,1.824175336,982.1613129,None,982.1613129,None,982.1613129,None,,,1,2022_Apr_05_1630,Semantic-hierachy,2021.1.2,59.80963765
195,Trial # 196,layer0-5_O3_to_T3.jpg,layer0-5/layer0-5_O3_to_T3.jpg,OT,layer0-5,,,,,0.0,45.0,45.0,45.0,,,,,984.0941159,None,1,1.458931463,984.0941159,None,984.0941159,None,984.0941159,None,,,1,2022_Apr_05_1630,Semantic-hierachy,2021.1.2,59.80963765
196,Trial # 197,layer9-17_O1_to_O2.jpg,layer9-17/layer9-17_O1_to_O2.jpg,OO,layer9-17,,,,,0.0,46.0,46.0,46.0,,,,,985.6613354,None,3,3.59363447,985.6613354,None,985.6613354,None,985.6613354,None,,,1,2022_Apr_05_1630,Semantic-hierachy,2021.1.2,59.80963765
197,Trial # 198,layer9-17_T2_to_T9.jpg,layer9-17/layer9-17_T2_to_T9.jpg,TT,layer9-17,,,,,0.0,47.0,47.0,47.0,,,,,989.3626097,None,3,2.993740584,989.3626097,None,989.3626097,None,989.3626097,None,,,1,2022_Apr_05_1630,Semantic-hierachy,2021.1.2,59.80963765
198,Trial # 199,layer9-17_O6_to_T10.jpg,layer9-17/layer9-17_O6_to_T10.jpg,OT,layer9-17,,,,,0.0,48.0,48.0,48.0,,,,,992.4634111,None,2,1.309317302,992.4634111,None,992.4634111,None,992.4634111,None,,,1,2022_Apr_05_1630,Semantic-hierachy,2021.1.2,59.80963765
199,Trial # 200,layer0-5_T12_to_T5.jpg,layer0-5/layer0-5_T12_to_T5.jpg,TT,layer0-5,,,,,0.0,49.0,49.0,49.0,,,,,993.8636066,None,1,1.515032302,993.8636066,None,993.8636066,None,993.8636066,None,,,1,2022_Apr_05_1630,Semantic-hierachy,2021.1.2,59.80963765
200,Trial # 201,layer0-5_O10_to_T10.jpg,layer0-5/layer0-5_O10_to_T10.jpg,OT,layer0-5,,,,,0.0,50.0,50.0,50.0,,,,,995.4811161,None,1,2.081365621,995.4811161,None,995.4811161,None,995.4811161,None,,,1,2022_Apr_05_1630,Semantic-hierachy,2021.1.2,59.80963765
201,Trial # 202,layer9-17_T11_to_T12.jpg,layer9-17/layer9-17_T11_to_T12.jpg,TT,layer9-17,,,,,0.0,51.0,51.0,51.0,,,,,997.664913,None,2,7.181911442,997.664913,None,997.664913,None,997.664913,None,,,1,2022_Apr_05_1630,Semantic-hierachy,2021.1.2,59.80963765
202,Trial # 203,layer6-8_T3_to_T5.jpg,layer6-8/layer6-8_T3_to_T5.jpg,TT,layer6-8,,,,,0.0,52.0,52.0,52.0,,,,,1004.967706,None,3,4.291039909,1004.967706,None,1004.967706,None,1004.967706,None,,,1,2022_Apr_05_1630,Semantic-hierachy,2021.1.2,59.80963765
203,Trial # 204,layer0-5_O5_to_T10.jpg,layer0-5/layer0-5_O5_to_T10.jpg,OT,layer0-5,,,,,0.0,53.0,53.0,53.0,,,,,1009.351772,None,1,6.682444163,1009.351772,None,1009.351772,None,1009.351772,None,,,1,2022_Apr_05_1630,Semantic-hierachy,2021.1.2,59.80963765
204,Trial # 205,layer0-5_O10_to_O5.jpg,layer0-5/layer0-5_O10_to_O5.jpg,OO,layer0-5,,,,,0.0,54.0,54.0,54.0,,,,,1016.137035,None,1,1.378848368,1016.137035,None,1016.137035,None,1016.137035,None,,,1,2022_Apr_05_1630,Semantic-hierachy,2021.1.2,59.80963765
205,Trial # 206,layer0-5_O5_to_O7.jpg,layer0-5/layer0-5_O5_to_O7.jpg,OO,layer0-5,,,,,0.0,55.0,55.0,55.0,,,,,1017.63823,None,1,1.125590417,1017.63823,None,1017.63823,None,1017.63823,None,,,1,2022_Apr_05_1630,Semantic-hierachy,2021.1.2,59.80963765
206,Trial # 207,layer0-5_O3_to_T10.jpg,layer0-5/layer0-5_O3_to_T10.jpg,OT,layer0-5,,,,,0.0,56.0,56.0,56.0,,,,,1018.855449,None,1,3.098876059,1018.855449,None,1018.855449,None,1018.855449,None,,,1,2022_Apr_05_1630,Semantic-hierachy,2021.1.2,59.80963765
207,Trial # 208,layer0-5_O4_to_O5.jpg,layer0-5/layer0-5_O4_to_O5.jpg,OO,layer0-5,,,,,0.0,57.0,57.0,57.0,,,,,1022.073309,None,1,1.12294878,1022.073309,None,1022.073309,None,1022.073309,None,,,1,2022_Apr_05_1630,Semantic-hierachy,2021.1.2,59.80963765
208,Trial # 209,layer6-8_T12_to_T3.jpg,layer6-8/layer6-8_T12_to_T3.jpg,TT,layer6-8,,,,,0.0,58.0,58.0,58.0,,,,,1023.289926,None,3,2.046273492,1023.289926,None,1023.289926,None,1023.289926,None,,,1,2022_Apr_05_1630,Semantic-hierachy,2021.1.2,59.80963765
209,Trial # 210,layer6-8_O7_to_T9.jpg,layer6-8/layer6-8_O7_to_T9.jpg,OT,layer6-8,,,,,0.0,59.0,59.0,59.0,,,,,1025.440007,None,1,1.836153501,1025.440007,None,1025.440007,None,1025.440007,None,,,1,2022_Apr_05_1630,Semantic-hierachy,2021.1.2,59.80963765
210,Trial # 211,layer6-8_O1_to_O11.jpg,layer6-8/layer6-8_O1_to_O11.jpg,OO,layer6-8,,,,,0.0,60.0,60.0,60.0,,,,,1027.375023,None,3,7.947929986,1027.375023,None,1027.375023,None,1027.375023,None,,,1,2022_Apr_05_1630,Semantic-hierachy,2021.1.2,59.80963765
211,Trial # 212,layer6-8_T2_to_T6.jpg,layer6-8/layer6-8_T2_to_T6.jpg,TT,layer6-8,,,,,0.0,61.0,61.0,61.0,,,,,1035.426253,None,2,11.64944801,1035.426253,None,1035.426253,None,1035.426253,None,,,1,2022_Apr_05_1630,Semantic-hierachy,2021.1.2,59.80963765
212,Trial # 213,layer6-8_O10_to_O6.jpg,layer6-8/layer6-8_O10_to_O6.jpg,OO,layer6-8,,,,,0.0,62.0,62.0,62.0,,,,,1047.213819,None,3,3.20200135,1047.213819,None,1047.213819,None,1047.213819,None,,,1,2022_Apr_05_1630,Semantic-hierachy,2021.1.2,59.80963765
213,Trial # 214,layer9-17_T5_to_T8.jpg,layer9-17/layer9-17_T5_to_T8.jpg,TT,layer9-17,,,,,0.0,63.0,63.0,63.0,,,,,1050.515107,None,2,3.381236516,1050.515107,None,1050.515107,None,1050.515107,None,,,1,2022_Apr_05_1630,Semantic-hierachy,2021.1.2,59.80963765
214,Trial # 215,layer9-17_O3_to_T10.jpg,layer9-17/layer9-17_O3_to_T10.jpg,OT,layer9-17,,,,,0.0,64.0,64.0,64.0,,,,,1053.999058,None,2,3.469098961,1053.999058,None,1053.999058,None,1053.999058,None,,,1,2022_Apr_05_1630,Semantic-hierachy,2021.1.2,59.80963765
215,Trial # 216,layer6-8_O12_to_O3.jpg,layer6-8/layer6-8_O12_to_O3.jpg,OO,layer6-8,,,,,0.0,65.0,65.0,65.0,,,,,1057.566719,None,3,2.381336576,1057.566719,None,1057.566719,None,1057.566719,None,,,1,2022_Apr_05_1630,Semantic-hierachy,2021.1.2,59.80963765
216,Trial # 217,layer0-5_T10_to_T2.jpg,layer0-5/layer0-5_T10_to_T2.jpg,TT,layer0-5,,,,,0.0,66.0,66.0,66.0,,,,,1060.050491,None,1,2.846646791,1060.050491,None,1060.050491,None,1060.050491,None,,,1,2022_Apr_05_1630,Semantic-hierachy,2021.1.2,59.80963765
217,Trial # 218,layer9-17_O10_to_O6.jpg,layer9-17/layer9-17_O10_to_O6.jpg,OO,layer9-17,,,,,0.0,67.0,67.0,67.0,,,,,1063.0026,None,1,4.746935614,1063.0026,None,1063.0026,None,1063.0026,None,,,1,2022_Apr_05_1630,Semantic-hierachy,2021.1.2,59.80963765
218,Trial # 219,layer6-8_O6_to_O9.jpg,layer6-8/layer6-8_O6_to_O9.jpg,OO,layer6-8,,,,,0.0,68.0,68.0,68.0,,,,,1067.854292,None,3,9.297388556,1067.854292,None,1067.854292,None,1067.854292,None,,,1,2022_Apr_05_1630,Semantic-hierachy,2021.1.2,59.80963765
219,Trial # 220,layer0-5_O7_to_T2.jpg,layer0-5/layer0-5_O7_to_T2.jpg,OT,layer0-5,,,,,0.0,69.0,69.0,69.0,,,,,1077.273694,None,1,1.660623965,1077.273694,None,1077.273694,None,1077.273694,None,,,1,2022_Apr_05_1630,Semantic-hierachy,2021.1.2,59.80963765
220,Trial # 221,layer9-17_T12_to_T2.jpg,layer9-17/layer9-17_T12_to_T2.jpg,TT,layer9-17,,,,,0.0,70.0,70.0,70.0,,,,,1079.040869,None,4,11.59511979,1079.040869,None,1079.040869,None,1079.040869,None,,,1,2022_Apr_05_1630,Semantic-hierachy,2021.1.2,59.80963765
221,Trial # 222,layer9-17_O8_to_T11.jpg,layer9-17/layer9-17_O8_to_T11.jpg,OT,layer9-17,,,,,0.0,71.0,71.0,71.0,,,,,1090.726884,None,3,3.778939248,1090.726884,None,1090.726884,None,1090.726884,None,,,1,2022_Apr_05_1630,Semantic-hierachy,2021.1.2,59.80963765
222,Trial # 223,layer6-8_O3_to_T9.jpg,layer6-8/layer6-8_O3_to_T9.jpg,OT,layer6-8,,,,,0.0,72.0,72.0,72.0,,,,,1094.611337,None,3,2.417331511,1094.611337,None,1094.611337,None,1094.611337,None,,,1,2022_Apr_05_1630,Semantic-hierachy,2021.1.2,59.80963765
223,Trial # 224,layer0-5_O6_to_O9.jpg,layer0-5/layer0-5_O6_to_O9.jpg,OO,layer0-5,,,,,0.0,73.0,73.0,73.0,,,,,1097.14604,None,1,1.659123258,1097.14604,None,1097.14604,None,1097.14604,None,,,1,2022_Apr_05_1630,Semantic-hierachy,2021.1.2,59.80963765
224,Trial # 225,layer0-5_O12_to_T1.jpg,layer0-5/layer0-5_O12_to_T1.jpg,OT,layer0-5,,,,,0.0,74.0,74.0,74.0,,,,,1098.896448,None,1,2.696773409,1098.896448,None,1098.896448,None,1098.896448,None,,,1,2022_Apr_05_1630,Semantic-hierachy,2021.1.2,59.80963765
225,Trial # 226,layer9-17_O2_to_T8.jpg,layer9-17/layer9-17_O2_to_T8.jpg,OT,layer9-17,,,,,0.0,75.0,75.0,75.0,,,,,1101.714139,None,2,2.794298438,1101.714139,None,1101.714139,None,1101.714139,None,,,1,2022_Apr_05_1630,Semantic-hierachy,2021.1.2,59.80963765
226,Trial # 227,layer0-5_T4_to_T8.jpg,layer0-5/layer0-5_T4_to_T8.jpg,TT,layer0-5,,,,,0.0,76.0,76.0,76.0,,,,,1104.597499,None,1,1.289690537,1104.597499,None,1104.597499,None,1104.597499,None,,,1,2022_Apr_05_1630,Semantic-hierachy,2021.1.2,59.80963765
227,Trial # 228,layer9-17_O2_to_T1.jpg,layer9-17/layer9-17_O2_to_T1.jpg,OT,layer9-17,,,,,0.0,77.0,77.0,77.0,,,,,1105.998706,None,3,2.694613583,1105.998706,None,1105.998706,None,1105.998706,None,,,1,2022_Apr_05_1630,Semantic-hierachy,2021.1.2,59.80963765
228,Trial # 229,layer0-5_O11_to_O7.jpg,layer0-5/layer0-5_O11_to_O7.jpg,OO,layer0-5,,,,,0.0,78.0,78.0,78.0,,,,,1108.799387,None,1,1.391571971,1108.799387,None,1108.799387,None,1108.799387,None,,,1,2022_Apr_05_1630,Semantic-hierachy,2021.1.2,59.80963765
229,Trial # 230,layer6-8_T2_to_T8.jpg,layer6-8/layer6-8_T2_to_T8.jpg,TT,layer6-8,,,,,0.0,79.0,79.0,79.0,,,,,1110.299389,None,3,7.512438517,1110.299389,None,1110.299389,None,1110.299389,None,,,1,2022_Apr_05_1630,Semantic-hierachy,2021.1.2,59.80963765
230,Trial # 231,layer9-17_T4_to_T8.jpg,layer9-17/layer9-17_T4_to_T8.jpg,TT,layer9-17,,,,,0.0,80.0,80.0,80.0,,,,,1117.903271,None,2,4.396740599,1117.903271,None,1117.903271,None,1117.903271,None,,,1,2022_Apr_05_1630,Semantic-hierachy,2021.1.2,59.80963765
231,Trial # 232,layer9-17_T11_to_T3.jpg,layer9-17/layer9-17_T11_to_T3.jpg,TT,layer9-17,,,,,0.0,81.0,81.0,81.0,,,,,1122.436854,None,2,1.600809044,1122.436854,None,1122.436854,None,1122.436854,None,,,1,2022_Apr_05_1630,Semantic-hierachy,2021.1.2,59.80963765
232,Trial # 233,layer0-5_O3_to_T9.jpg,layer0-5/layer0-5_O3_to_T9.jpg,OT,layer0-5,,,,,0.0,82.0,82.0,82.0,,,,,1124.137407,None,1,1.662935588,1124.137407,None,1124.137407,None,1124.137407,None,,,1,2022_Apr_05_1630,Semantic-hierachy,2021.1.2,59.80963765
233,Trial # 234,layer9-17_T7_to_T8.jpg,layer9-17/layer9-17_T7_to_T8.jpg,TT,layer9-17,,,,,0.0,83.0,83.0,83.0,,,,,1125.921008,None,2,3.507110529,1125.921008,None,1125.921008,None,1125.921008,None,,,1,2022_Apr_05_1630,Semantic-hierachy,2021.1.2,59.80963765
234,Trial # 235,layer9-17_O3_to_O4.jpg,layer9-17/layer9-17_O3_to_O4.jpg,OO,layer9-17,,,,,0.0,84.0,84.0,84.0,,,,,1129.522632,None,2,1.227593239,1129.522632,None,1129.522632,None,1129.522632,None,,,1,2022_Apr_05_1630,Semantic-hierachy,2021.1.2,59.80963765
235,Trial # 236,layer6-8_O8_to_T6.jpg,layer6-8/layer6-8_O8_to_T6.jpg,OT,layer6-8,,,,,0.0,85.0,85.0,85.0,,,,,1130.85567,None,4,7.215099338,1130.85567,None,1130.85567,None,1130.85567,None,,,1,2022_Apr_05_1630,Semantic-hierachy,2021.1.2,59.80963765
236,Trial # 237,layer9-17_T6_to_T7.jpg,layer9-17/layer9-17_T6_to_T7.jpg,TT,layer9-17,,,,,0.0,86.0,86.0,86.0,,,,,1138.192416,None,2,1.557467745,1138.192416,None,1138.192416,None,1138.192416,None,,,1,2022_Apr_05_1630,Semantic-hierachy,2021.1.2,59.80963765
237,Trial # 238,layer0-5_T2_to_T9.jpg,layer0-5/layer0-5_T2_to_T9.jpg,TT,layer0-5,,,,,0.0,87.0,87.0,87.0,,,,,1139.85876,None,1,1.592947289,1139.85876,None,1139.85876,None,1139.85876,None,,,1,2022_Apr_05_1630,Semantic-hierachy,2021.1.2,59.80963765
238,Trial # 239,layer0-5_O2_to_O5.jpg,layer0-5/layer0-5_O2_to_O5.jpg,OO,layer0-5,,,,,0.0,88.0,88.0,88.0,,,,,1141.543155,None,1,1.293895557,1141.543155,None,1141.543155,None,1141.543155,None,,,1,2022_Apr_05_1630,Semantic-hierachy,2021.1.2,59.80963765
239,Trial # 240,layer6-8_O1_to_O5.jpg,layer6-8/layer6-8_O1_to_O5.jpg,OO,layer6-8,,,,,0.0,89.0,89.0,89.0,,,,,1142.943306,None,3,2.673250737,1142.943306,None,1142.943306,None,1142.943306,None,,,1,2022_Apr_05_1630,Semantic-hierachy,2021.1.2,59.80963765
240,Trial # 241,layer9-17_O3_to_O7.jpg,layer9-17/layer9-17_O3_to_O7.jpg,OO,layer9-17,,,,,0.0,90.0,90.0,90.0,,,,,1145.727116,None,2,1.476537599,1145.727116,None,1145.727116,None,1145.727116,None,,,1,2022_Apr_05_1630,Semantic-hierachy,2021.1.2,59.80963765
241,Trial # 242,layer6-8_O11_to_O8.jpg,layer6-8/layer6-8_O11_to_O8.jpg,OO,layer6-8,,,,,0.0,91.0,91.0,91.0,,,,,1147.312449,None,4,3.458749553,1147.312449,None,1147.312449,None,1147.312449,None,,,1,2022_Apr_05_1630,Semantic-hierachy,2021.1.2,59.80963765
242,Trial # 243,layer9-17_T1_to_T12.jpg,layer9-17/layer9-17_T1_to_T12.jpg,TT,layer9-17,,,,,0.0,92.0,92.0,92.0,,,,,1150.861868,None,2,3.566316414,1150.861868,None,1150.861868,None,1150.861868,None,,,1,2022_Apr_05_1630,Semantic-hierachy,2021.1.2,59.80963765
243,Trial # 244,layer9-17_O6_to_O8.jpg,layer9-17/layer9-17_O6_to_O8.jpg,OO,layer9-17,,,,,0.0,93.0,93.0,93.0,,,,,1154.580643,None,3,19.35624541,1154.580643,None,1154.580643,None,1154.580643,None,,,1,2022_Apr_05_1630,Semantic-hierachy,2021.1.2,59.80963765
244,Trial # 245,layer6-8_O4_to_T11.jpg,layer6-8/layer6-8_O4_to_T11.jpg,OT,layer6-8,,,,,0.0,94.0,94.0,94.0,,,,,1174.052644,None,3,1.225510432,1174.052644,None,1174.052644,None,1174.052644,None,,,1,2022_Apr_05_1630,Semantic-hierachy,2021.1.2,59.80963765
245,Trial # 246,layer9-17_T10_to_T3.jpg,layer9-17/layer9-17_T10_to_T3.jpg,TT,layer9-17,,,,,0.0,95.0,95.0,95.0,,,,,1175.369701,None,2,1.730586675,1175.369701,None,1175.369701,None,1175.369701,None,,,1,2022_Apr_05_1630,Semantic-hierachy,2021.1.2,59.80963765
246,Trial # 247,layer0-5_O10_to_O8.jpg,layer0-5/layer0-5_O10_to_O8.jpg,OO,layer0-5,,,,,0.0,96.0,96.0,96.0,,,,,1177.205021,None,1,2.066473573,1177.205021,None,1177.205021,None,1177.205021,None,,,1,2022_Apr_05_1630,Semantic-hierachy,2021.1.2,59.80963765
247,Trial # 248,layer6-8_O3_to_T12.jpg,layer6-8/layer6-8_O3_to_T12.jpg,OT,layer6-8,,,,,0.0,97.0,97.0,97.0,,,,,1179.387772,None,3,1.843594188,1179.387772,None,1179.387772,None,1179.387772,None,,,1,2022_Apr_05_1630,Semantic-hierachy,2021.1.2,59.80963765
248,Trial # 249,layer0-5_O12_to_T9.jpg,layer0-5/layer0-5_O12_to_T9.jpg,OT,layer0-5,,,,,0.0,98.0,98.0,98.0,,,,,1181.355696,None,1,4.35866767,1181.355696,None,1181.355696,None,1181.355696,None,,,1,2022_Apr_05_1630,Semantic-hierachy,2021.1.2,59.80963765
249,Trial # 250,layer9-17_T1_to_T9.jpg,layer9-17/layer9-17_T1_to_T9.jpg,TT,layer9-17,,,,,0.0,99.0,99.0,99.0,,,,,1185.806516,None,2,3.250612441,1185.806516,None,1185.806516,None,1185.806516,None,,,1,2022_Apr_05_1630,Semantic-hierachy,2021.1.2,59.80963765
250,Trial # 251,layer9-17_T11_to_T8.jpg,layer9-17/layer9-17_T11_to_T8.jpg,TT,layer9-17,,,,,0.0,100.0,100.0,100.0,,,,,1189.157507,None,2,3.444952678,1189.157507,None,1189.157507,None,1189.157507,None,,,1,2022_Apr_05_1630,Semantic-hierachy,2021.1.2,59.80963765
251,Trial # 252,layer9-17_T11_to_T5.jpg,layer9-17/layer9-17_T11_to_T5.jpg,TT,layer9-17,,,,,0.0,101.0,101.0,101.0,,,,,1192.691843,None,3,4.381258972,1192.691843,None,1192.691843,None,1192.691843,None,,,1,2022_Apr_05_1630,Semantic-hierachy,2021.1.2,59.80963765
252,Trial # 253,layer6-8_T10_to_T12.jpg,layer6-8/layer6-8_T10_to_T12.jpg,TT,layer6-8,,,,,0.0,102.0,102.0,102.0,,,,,1197.176886,None,3,2.047606758,1197.176886,None,1197.176886,None,1197.176886,None,,,1,2022_Apr_05_1630,Semantic-hierachy,2021.1.2,59.80963765
253,Trial # 254,layer9-17_O5_to_T1.jpg,layer9-17/layer9-17_O5_to_T1.jpg,OT,layer9-17,,,,,0.0,103.0,103.0,103.0,,,,,1199.327374,None,2,2.128938173,1199.327374,None,1199.327374,None,1199.327374,None,,,1,2022_Apr_05_1630,Semantic-hierachy,2021.1.2,59.80963765
254,Trial # 255,layer6-8_T2_to_T3.jpg,layer6-8/layer6-8_T2_to_T3.jpg,TT,layer6-8,,,,,0.0,104.0,104.0,104.0,,,,,1201.578547,None,3,2.142197954,1201.578547,None,1201.578547,None,1201.578547,None,,,1,2022_Apr_05_1630,Semantic-hierachy,2021.1.2,59.80963765
255,Trial # 256,layer6-8_O2_to_T6.jpg,layer6-8/layer6-8_O2_to_T6.jpg,OT,layer6-8,,,,,0.0,105.0,105.0,105.0,,,,,1203.812136,None,3,1.481642725,1203.812136,None,1203.812136,None,1203.812136,None,,,1,2022_Apr_05_1630,Semantic-hierachy,2021.1.2,59.80963765
256,Trial # 257,layer6-8_T11_to_T9.jpg,layer6-8/layer6-8_T11_to_T9.jpg,TT,layer6-8,,,,,0.0,106.0,106.0,106.0,,,,,1205.412459,None,3,2.259958206,1205.412459,None,1205.412459,None,1205.412459,None,,,1,2022_Apr_05_1630,Semantic-hierachy,2021.1.2,59.80963765
257,Trial # 258,layer6-8_O5_to_T9.jpg,layer6-8/layer6-8_O5_to_T9.jpg,OT,layer6-8,,,,,0.0,107.0,107.0,107.0,,,,,1207.779848,None,3,2.160408175,1207.779848,None,1207.779848,None,1207.779848,None,,,1,2022_Apr_05_1630,Semantic-hierachy,2021.1.2,59.80963765
258,Trial # 259,layer6-8_O9_to_T8.jpg,layer6-8/layer6-8_O9_to_T8.jpg,OT,layer6-8,,,,,0.0,108.0,108.0,108.0,,,,,1210.030161,None,3,1.231300427,1210.030161,None,1210.030161,None,1210.030161,None,,,1,2022_Apr_05_1630,Semantic-hierachy,2021.1.2,59.80963765
259,Trial # 260,layer6-8_T1_to_T5.jpg,layer6-8/layer6-8_T1_to_T5.jpg,TT,layer6-8,,,,,0.0,109.0,109.0,109.0,,,,,1211.365472,None,3,1.55829509,1211.365472,None,1211.365472,None,1211.365472,None,,,1,2022_Apr_05_1630,Semantic-hierachy,2021.1.2,59.80963765
260,Trial # 261,layer0-5_O11_to_T2.jpg,layer0-5/layer0-5_O11_to_T2.jpg,OT,layer0-5,,,,,0.0,110.0,110.0,110.0,,,,,1213.014928,None,1,1.698578129,1213.014928,None,1213.014928,None,1213.014928,None,,,1,2022_Apr_05_1630,Semantic-hierachy,2021.1.2,59.80963765
261,Trial # 262,layer0-5_O7_to_T4.jpg,layer0-5/layer0-5_O7_to_T4.jpg,OT,layer0-5,,,,,0.0,111.0,111.0,111.0,,,,,1214.832106,None,1,1.292774564,1214.832106,None,1214.832106,None,1214.832106,None,,,1,2022_Apr_05_1630,Semantic-hierachy,2021.1.2,59.80963765
262,Trial # 263,layer6-8_T12_to_T8.jpg,layer6-8/layer6-8_T12_to_T8.jpg,TT,layer6-8,,,,,0.0,112.0,112.0,112.0,,,,,1216.217109,None,2,2.124659965,1216.217109,None,1216.217109,None,1216.217109,None,,,1,2022_Apr_05_1630,Semantic-hierachy,2021.1.2,59.80963765
263,Trial # 264,layer6-8_O4_to_O9.jpg,layer6-8/layer6-8_O4_to_O9.jpg,OO,layer6-8,,,,,0.0,113.0,113.0,113.0,,,,,1218.449917,None,3,2.475746053,1218.449917,None,1218.449917,None,1218.449917,None,,,1,2022_Apr_05_1630,Semantic-hierachy,2021.1.2,59.80963765
264,Trial # 265,layer0-5_T1_to_T5.jpg,layer0-5/layer0-5_T1_to_T5.jpg,TT,layer0-5,,,,,0.0,114.0,114.0,114.0,,,,,1221.033155,None,1,1.962140135,1221.033155,None,1221.033155,None,1221.033155,None,,,1,2022_Apr_05_1630,Semantic-hierachy,2021.1.2,59.80963765
265,Trial # 266,layer0-5_O12_to_O7.jpg,layer0-5/layer0-5_O12_to_O7.jpg,OO,layer0-5,,,,,0.0,115.0,115.0,115.0,,,,,1223.08528,None,1,1.16290254,1223.08528,None,1223.08528,None,1223.08528,None,,,1,2022_Apr_05_1630,Semantic-hierachy,2021.1.2,59.80963765
266,Trial # 267,layer6-8_T8_to_T9.jpg,layer6-8/layer6-8_T8_to_T9.jpg,TT,layer6-8,,,,,0.0,116.0,116.0,116.0,,,,,1224.351464,None,4,5.901111354,1224.351464,None,1224.351464,None,1224.351464,None,,,1,2022_Apr_05_1630,Semantic-hierachy,2021.1.2,59.80963765
267,Trial # 268,layer9-17_O11_to_T10.jpg,layer9-17/layer9-17_O11_to_T10.jpg,OT,layer9-17,,,,,0.0,117.0,117.0,117.0,,,,,1230.369947,None,2,1.48728067,1230.369947,None,1230.369947,None,1230.369947,None,,,1,2022_Apr_05_1630,Semantic-hierachy,2021.1.2,59.80963765
268,Trial # 269,layer0-5_O8_to_T9.jpg,layer0-5/layer0-5_O8_to_T9.jpg,OT,layer0-5,,,,,0.0,118.0,118.0,118.0,,,,,1231.954564,None,1,1.5787407,1231.954564,None,1231.954564,None,1231.954564,None,,,1,2022_Apr_05_1630,Semantic-hierachy,2021.1.2,59.80963765
269,Trial # 270,layer9-17_O10_to_O11.jpg,layer9-17/layer9-17_O10_to_O11.jpg,OO,layer9-17,,,,,0.0,119.0,119.0,119.0,,,,,1233.638555,None,3,2.165593423,1233.638555,None,1233.638555,None,1233.638555,None,,,1,2022_Apr_05_1630,Semantic-hierachy,2021.1.2,59.80963765
270,Trial # 271,layer0-5_T1_to_T9.jpg,layer0-5/layer0-5_T1_to_T9.jpg,TT,layer0-5,,,,,0.0,120.0,120.0,120.0,,,,,1235.921687,None,1,1.406883648,1235.921687,None,1235.921687,None,1235.921687,None,,,1,2022_Apr_05_1630,Semantic-hierachy,2021.1.2,59.80963765
271,Trial # 272,layer6-8_T11_to_T8.jpg,layer6-8/layer6-8_T11_to_T8.jpg,TT,layer6-8,,,,,0.0,121.0,121.0,121.0,,,,,1237.489559,None,3,3.244764929,1237.489559,None,1237.489559,None,1237.489559,None,,,1,2022_Apr_05_1630,Semantic-hierachy,2021.1.2,59.80963765
272,Trial # 273,layer9-17_O10_to_O12.jpg,layer9-17/layer9-17_O10_to_O12.jpg,OO,layer9-17,,,,,0.0,122.0,122.0,122.0,,,,,1240.840031,None,2,1.943255647,1240.840031,None,1240.840031,None,1240.840031,None,,,1,2022_Apr_05_1630,Semantic-hierachy,2021.1.2,59.80963765
273,Trial # 274,layer0-5_T12_to_T6.jpg,layer0-5/layer0-5_T12_to_T6.jpg,TT,layer0-5,,,,,0.0,123.0,123.0,123.0,,,,,1242.874224,None,1,1.763650189,1242.874224,None,1242.874224,None,1242.874224,None,,,1,2022_Apr_05_1630,Semantic-hierachy,2021.1.2,59.80963765
274,Trial # 275,layer9-17_O11_to_O5.jpg,layer9-17/layer9-17_O11_to_O5.jpg,OO,layer9-17,,,,,0.0,124.0,124.0,124.0,,,,,1244.741312,None,2,3.464253178,1244.741312,None,1244.741312,None,1244.741312,None,,,1,2022_Apr_05_1630,Semantic-hierachy,2021.1.2,59.80963765
275,Trial # 276,layer9-17_O1_to_O4.jpg,layer9-17/layer9-17_O1_to_O4.jpg,OO,layer9-17,,,,,0.0,125.0,125.0,125.0,,,,,1248.326711,None,3,5.170737053,1248.326711,None,1248.326711,None,1248.326711,None,,,1,2022_Apr_05_1630,Semantic-hierachy,2021.1.2,59.80963765
276,Trial # 277,layer6-8_O11_to_O3.jpg,layer6-8/layer6-8_O11_to_O3.jpg,OO,layer6-8,,,,,0.0,126.0,126.0,126.0,,,,,1253.611904,None,2,2.711735584,1253.611904,None,1253.611904,None,1253.611904,None,,,1,2022_Apr_05_1630,Semantic-hierachy,2021.1.2,59.80963765
277,Trial # 278,layer6-8_T10_to_T11.jpg,layer6-8/layer6-8_T10_to_T11.jpg,TT,layer6-8,,,,,0.0,127.0,127.0,127.0,,,,,1256.428372,None,3,3.680649616,1256.428372,None,1256.428372,None,1256.428372,None,,,1,2022_Apr_05_1630,Semantic-hierachy,2021.1.2,59.80963765
278,Trial # 279,layer0-5_O7_to_T3.jpg,layer0-5/layer0-5_O7_to_T3.jpg,OT,layer0-5,,,,,0.0,128.0,128.0,128.0,,,,,1260.212769,None,1,1.431230793,1260.212769,None,1260.212769,None,1260.212769,None,,,1,2022_Apr_05_1630,Semantic-hierachy,2021.1.2,59.80963765
279,Trial # 280,layer9-17_T1_to_T10.jpg,layer9-17/layer9-17_T1_to_T10.jpg,TT,layer9-17,,,,,0.0,129.0,129.0,129.0,,,,,1261.764062,None,2,2.077158536,1261.764062,None,1261.764062,None,1261.764062,None,,,1,2022_Apr_05_1630,Semantic-hierachy,2021.1.2,59.80963765
280,Trial # 281,layer9-17_O6_to_T7.jpg,layer9-17/layer9-17_O6_to_T7.jpg,OT,layer9-17,,,,,0.0,130.0,130.0,130.0,,,,,1263.947024,None,2,1.291119391,1263.947024,None,1263.947024,None,1263.947024,None,,,1,2022_Apr_05_1630,Semantic-hierachy,2021.1.2,59.80963765
281,Trial # 282,layer0-5_O10_to_O7.jpg,layer0-5/layer0-5_O10_to_O7.jpg,OO,layer0-5,,,,,0.0,131.0,131.0,131.0,,,,,1265.347311,None,1,1.736822878,1265.347311,None,1265.347311,None,1265.347311,None,,,1,2022_Apr_05_1630,Semantic-hierachy,2021.1.2,59.80963765
282,Trial # 283,layer0-5_O1_to_O11.jpg,layer0-5/layer0-5_O1_to_O11.jpg,OO,layer0-5,,,,,0.0,132.0,132.0,132.0,,,,,1267.199065,None,1,1.674683504,1267.199065,None,1267.199065,None,1267.199065,None,,,1,2022_Apr_05_1630,Semantic-hierachy,2021.1.2,59.80963765
283,Trial # 284,layer6-8_O7_to_O8.jpg,layer6-8/layer6-8_O7_to_O8.jpg,OO,layer6-8,,,,,0.0,133.0,133.0,133.0,,,,,1268.965489,None,2,2.329740958,1268.965489,None,1268.965489,None,1268.965489,None,,,1,2022_Apr_05_1630,Semantic-hierachy,2021.1.2,59.80963765
284,Trial # 285,layer0-5_T7_to_T8.jpg,layer0-5/layer0-5_T7_to_T8.jpg,TT,layer0-5,,,,,0.0,134.0,134.0,134.0,,,,,1271.400346,None,1,10.08138537,1271.400346,None,1271.400346,None,1271.400346,None,,,1,2022_Apr_05_1630,Semantic-hierachy,2021.1.2,59.80963765
285,Trial # 286,layer9-17_T11_to_T6.jpg,layer9-17/layer9-17_T11_to_T6.jpg,TT,layer9-17,,,,,0.0,135.0,135.0,135.0,,,,,1281.587061,None,3,1.9790195,1281.587061,None,1281.587061,None,1281.587061,None,,,1,2022_Apr_05_1630,Semantic-hierachy,2021.1.2,59.80963765
286,Trial # 287,layer0-5_T2_to_T7.jpg,layer0-5/layer0-5_T2_to_T7.jpg,TT,layer0-5,,,,,0.0,136.0,136.0,136.0,,,,,1283.68639,None,1,1.628761638,1283.68639,None,1283.68639,None,1283.68639,None,,,1,2022_Apr_05_1630,Semantic-hierachy,2021.1.2,59.80963765
287,Trial # 288,layer9-17_O10_to_O2.jpg,layer9-17/layer9-17_O10_to_O2.jpg,OO,layer9-17,,,,,0.0,137.0,137.0,137.0,,,,,1285.403542,None,2,2.922837679,1285.403542,None,1285.403542,None,1285.403542,None,,,1,2022_Apr_05_1630,Semantic-hierachy,2021.1.2,59.80963765
288,Trial # 289,layer0-5_T10_to_T9.jpg,layer0-5/layer0-5_T10_to_T9.jpg,TT,layer0-5,,,,,0.0,138.0,138.0,138.0,,,,,1288.42148,None,1,3.967623697,1288.42148,None,1288.42148,None,1288.42148,None,,,1,2022_Apr_05_1630,Semantic-hierachy,2021.1.2,59.80963765
289,Trial # 290,layer6-8_O11_to_O5.jpg,layer6-8/layer6-8_O11_to_O5.jpg,OO,layer6-8,,,,,0.0,139.0,139.0,139.0,,,,,1292.489579,None,2,10.81829506,1292.489579,None,1292.489579,None,1292.489579,None,,,1,2022_Apr_05_1630,Semantic-hierachy,2021.1.2,59.80963765
290,Trial # 291,layer6-8_O3_to_O7.jpg,layer6-8/layer6-8_O3_to_O7.jpg,OO,layer6-8,,,,,0.0,140.0,140.0,140.0,,,,,1303.426659,None,2,2.777165146,1303.426659,None,1303.426659,None,1303.426659,None,,,1,2022_Apr_05_1630,Semantic-hierachy,2021.1.2,59.80963765
291,Trial # 292,layer9-17_O12_to_T11.jpg,layer9-17/layer9-17_O12_to_T11.jpg,OT,layer9-17,,,,,0.0,141.0,141.0,141.0,,,,,1306.293728,None,2,1.433170811,1306.293728,None,1306.293728,None,1306.293728,None,,,1,2022_Apr_05_1630,Semantic-hierachy,2021.1.2,59.80963765
292,Trial # 293,layer9-17_O2_to_O4.jpg,layer9-17/layer9-17_O2_to_O4.jpg,OO,layer9-17,,,,,0.0,142.0,142.0,142.0,,,,,1307.827649,None,3,1.993444073,1307.827649,None,1307.827649,None,1307.827649,None,,,1,2022_Apr_05_1630,Semantic-hierachy,2021.1.2,59.80963765
293,Trial # 294,layer6-8_O1_to_T12.jpg,layer6-8/layer6-8_O1_to_T12.jpg,OT,layer6-8,,,,,0.0,143.0,143.0,143.0,,,,,1309.927646,None,3,1.810582592,1309.927646,None,1309.927646,None,1309.927646,None,,,1,2022_Apr_05_1630,Semantic-hierachy,2021.1.2,59.80963765
294,Trial # 295,layer9-17_O11_to_T5.jpg,layer9-17/layer9-17_O11_to_T5.jpg,OT,layer9-17,,,,,0.0,144.0,144.0,144.0,,,,,1311.845683,None,3,2.509806218,1311.845683,None,1311.845683,None,1311.845683,None,,,1,2022_Apr_05_1630,Semantic-hierachy,2021.1.2,59.80963765
295,Trial # 296,layer0-5_O10_to_O9.jpg,layer0-5/layer0-5_O10_to_O9.jpg,OO,layer0-5,,,,,0.0,145.0,145.0,145.0,,,,,1314.446049,None,1,1.582190715,1314.446049,None,1314.446049,None,1314.446049,None,,,1,2022_Apr_05_1630,Semantic-hierachy,2021.1.2,59.80963765
296,Trial # 297,layer6-8_O12_to_T10.jpg,layer6-8/layer6-8_O12_to_T10.jpg,OT,layer6-8,,,,,0.0,146.0,146.0,146.0,,,,,1316.129985,None,3,1.664688579,1316.129985,None,1316.129985,None,1316.129985,None,,,1,2022_Apr_05_1630,Semantic-hierachy,2021.1.2,59.80963765
297,Trial # 298,layer6-8_O3_to_T2.jpg,layer6-8/layer6-8_O3_to_T2.jpg,OT,layer6-8,,,,,0.0,147.0,147.0,147.0,,,,,1317.89838,None,3,2.065212926,1317.89838,None,1317.89838,None,1317.89838,None,,,1,2022_Apr_05_1630,Semantic-hierachy,2021.1.2,59.80963765
298,Trial # 299,layer9-17_O2_to_T5.jpg,layer9-17/layer9-17_O2_to_T5.jpg,OT,layer9-17,,,,,0.0,148.0,148.0,148.0,,,,,1320.081162,None,3,1.376676971,1320.081162,None,1320.081162,None,1320.081162,None,,,1,2022_Apr_05_1630,Semantic-hierachy,2021.1.2,59.80963765
299,Trial # 300,layer0-5_O3_to_T7.jpg,layer0-5/layer0-5_O3_to_T7.jpg,OT,layer0-5,,,,,0.0,149.0,149.0,149.0,,,,,1321.548575,None,1,1.998056058,1321.548575,None,1321.548575,None,1321.548575,None,,,1,2022_Apr_05_1630,Semantic-hierachy,2021.1.2,59.80963765
300,Trial # 301,layer9-17_O11_to_O6.jpg,layer9-17/layer9-17_O11_to_O6.jpg,OO,layer9-17,,,,,,,,,0.0,0.0,0.0,0.0,1329.534033,None,2,2.692628538,1329.534033,None,1329.534033,None,1329.534033,None,,,1,2022_Apr_05_1630,Semantic-hierachy,2021.1.2,59.80963765
301,Trial # 302,layer0-5_O3_to_O7.jpg,layer0-5/layer0-5_O3_to_O7.jpg,OO,layer0-5,,,,,,,,,0.0,1.0,1.0,1.0,1332.335086,None,1,2.708048833,1332.335086,None,1332.335086,None,1332.335086,None,,,1,2022_Apr_05_1630,Semantic-hierachy,2021.1.2,59.80963765
302,Trial # 303,layer6-8_O11_to_T3.jpg,layer6-8/layer6-8_O11_to_T3.jpg,OT,layer6-8,,,,,,,,,0.0,2.0,2.0,2.0,1335.135472,None,3,1.743119735,1335.135472,None,1335.135472,None,1335.135472,None,,,1,2022_Apr_05_1630,Semantic-hierachy,2021.1.2,59.80963765
303,Trial # 304,layer6-8_O2_to_T7.jpg,layer6-8/layer6-8_O2_to_T7.jpg,OT,layer6-8,,,,,,,,,0.0,3.0,3.0,3.0,1336.987347,None,3,6.096706201,1336.987347,None,1336.987347,None,1336.987347,None,,,1,2022_Apr_05_1630,Semantic-hierachy,2021.1.2,59.80963765
304,Trial # 305,layer0-5_T1_to_T7.jpg,layer0-5/layer0-5_T1_to_T7.jpg,TT,layer0-5,,,,,,,,,0.0,4.0,4.0,4.0,1343.171323,None,1,1.410979615,1343.171323,None,1343.171323,None,1343.171323,None,,,1,2022_Apr_05_1630,Semantic-hierachy,2021.1.2,59.80963765
305,Trial # 306,layer6-8_O7_to_T11.jpg,layer6-8/layer6-8_O7_to_T11.jpg,OT,layer6-8,,,,,,,,,0.0,5.0,5.0,5.0,1344.688899,None,3,1.681004346,1344.688899,None,1344.688899,None,1344.688899,None,,,1,2022_Apr_05_1630,Semantic-hierachy,2021.1.2,59.80963765
306,Trial # 307,layer9-17_O5_to_T5.jpg,layer9-17/layer9-17_O5_to_T5.jpg,OT,layer9-17,,,,,,,,,0.0,6.0,6.0,6.0,1346.473494,None,2,2.278998073,1346.473494,None,1346.473494,None,1346.473494,None,,,1,2022_Apr_05_1630,Semantic-hierachy,2021.1.2,59.80963765
307,Trial # 308,layer9-17_T12_to_T5.jpg,layer9-17/layer9-17_T12_to_T5.jpg,TT,layer9-17,,,,,,,,,0.0,7.0,7.0,7.0,1348.873789,None,2,1.905358795,1348.873789,None,1348.873789,None,1348.873789,None,,,1,2022_Apr_05_1630,Semantic-hierachy,2021.1.2,59.80963765
308,Trial # 309,layer6-8_O11_to_O2.jpg,layer6-8/layer6-8_O11_to_O2.jpg,OO,layer6-8,,,,,,,,,0.0,8.0,8.0,8.0,1350.890197,None,2,2.793536103,1350.890197,None,1350.890197,None,1350.890197,None,,,1,2022_Apr_05_1630,Semantic-hierachy,2021.1.2,59.80963765
309,Trial # 310,layer6-8_O10_to_O7.jpg,layer6-8/layer6-8_O10_to_O7.jpg,OO,layer6-8,,,,,,,,,0.0,9.0,9.0,9.0,1353.79168,None,2,1.290093736,1353.79168,None,1353.79168,None,1353.79168,None,,,1,2022_Apr_05_1630,Semantic-hierachy,2021.1.2,59.80963765
310,Trial # 311,layer9-17_O10_to_T11.jpg,layer9-17/layer9-17_O10_to_T11.jpg,OT,layer9-17,,,,,,,,,0.0,10.0,10.0,10.0,1355.175662,None,2,0.992476329,1355.175662,None,1355.175662,None,1355.175662,None,,,1,2022_Apr_05_1630,Semantic-hierachy,2021.1.2,59.80963765
311,Trial # 312,layer6-8_O11_to_O12.jpg,layer6-8/layer6-8_O11_to_O12.jpg,OO,layer6-8,,,,,,,,,0.0,11.0,11.0,11.0,1356.260303,None,3,3.730007507,1356.260303,None,1356.260303,None,1356.260303,None,,,1,2022_Apr_05_1630,Semantic-hierachy,2021.1.2,59.80963765
312,Trial # 313,layer9-17_O9_to_T8.jpg,layer9-17/layer9-17_O9_to_T8.jpg,OT,layer9-17,,,,,,,,,0.0,12.0,12.0,12.0,1360.09402,None,2,3.521842545,1360.09402,None,1360.09402,None,1360.09402,None,,,1,2022_Apr_05_1630,Semantic-hierachy,2021.1.2,59.80963765
313,Trial # 314,layer0-5_O3_to_T2.jpg,layer0-5/layer0-5_O3_to_T2.jpg,OT,layer0-5,,,,,,,,,0.0,13.0,13.0,13.0,1363.728047,None,1,2.226538737,1363.728047,None,1363.728047,None,1363.728047,None,,,1,2022_Apr_05_1630,Semantic-hierachy,2021.1.2,59.80963765
314,Trial # 315,layer9-17_T1_to_T11.jpg,layer9-17/layer9-17_T1_to_T11.jpg,TT,layer9-17,,,,,,,,,0.0,14.0,14.0,14.0,1366.044919,None,2,1.71596716,1366.044919,None,1366.044919,None,1366.044919,None,,,1,2022_Apr_05_1630,Semantic-hierachy,2021.1.2,59.80963765
315,Trial # 316,layer6-8_T10_to_T7.jpg,layer6-8/layer6-8_T10_to_T7.jpg,TT,layer6-8,,,,,,,,,0.0,15.0,15.0,15.0,1367.863356,None,3,2.278431833,1367.863356,None,1367.863356,None,1367.863356,None,,,1,2022_Apr_05_1630,Semantic-hierachy,2021.1.2,59.80963765
316,Trial # 317,layer0-5_T6_to_T7.jpg,layer0-5/layer0-5_T6_to_T7.jpg,TT,layer0-5,,,,,,,,,0.0,16.0,16.0,16.0,1370.246633,None,1,2.40217762,1370.246633,None,1370.246633,None,1370.246633,None,,,1,2022_Apr_05_1630,Semantic-hierachy,2021.1.2,59.80963765
317,Trial # 318,layer9-17_O1_to_T3.jpg,layer9-17/layer9-17_O1_to_T3.jpg,OT,layer9-17,,,,,,,,,0.0,17.0,17.0,17.0,1372.748619,None,2,3.296785026,1372.748619,None,1372.748619,None,1372.748619,None,,,1,2022_Apr_05_1630,Semantic-hierachy,2021.1.2,59.80963765
318,Trial # 319,layer0-5_O2_to_T5.jpg,layer0-5/layer0-5_O2_to_T5.jpg,OT,layer0-5,,,,,,,,,0.0,18.0,18.0,18.0,1376.148386,None,1,1.830675506,1376.148386,None,1376.148386,None,1376.148386,None,,,1,2022_Apr_05_1630,Semantic-hierachy,2021.1.2,59.80963765
319,Trial # 320,layer6-8_O7_to_T10.jpg,layer6-8/layer6-8_O7_to_T10.jpg,OT,layer6-8,,,,,,,,,0.0,19.0,19.0,19.0,1378.082812,None,3,2.295448398,1378.082812,None,1378.082812,None,1378.082812,None,,,1,2022_Apr_05_1630,Semantic-hierachy,2021.1.2,59.80963765
320,Trial # 321,layer0-5_O5_to_O6.jpg,layer0-5/layer0-5_O5_to_O6.jpg,OO,layer0-5,,,,,,,,,0.0,20.0,20.0,20.0,1380.499939,None,1,1.82519027,1380.499939,None,1380.499939,None,1380.499939,None,,,1,2022_Apr_05_1630,Semantic-hierachy,2021.1.2,59.80963765
321,Trial # 322,layer9-17_O5_to_T4.jpg,layer9-17/layer9-17_O5_to_T4.jpg,OT,layer9-17,,,,,,,,,0.0,21.0,21.0,21.0,1382.418247,None,1,1.34795298,1382.418247,None,1382.418247,None,1382.418247,None,,,1,2022_Apr_05_1630,Semantic-hierachy,2021.1.2,59.80963765
322,Trial # 323,layer0-5_T12_to_T2.jpg,layer0-5/layer0-5_T12_to_T2.jpg,TT,layer0-5,,,,,,,,,0.0,22.0,22.0,22.0,1383.867568,None,1,1.780114213,1383.867568,None,1383.867568,None,1383.867568,None,,,1,2022_Apr_05_1630,Semantic-hierachy,2021.1.2,59.80963765
323,Trial # 324,layer0-5_O2_to_O4.jpg,layer0-5/layer0-5_O2_to_O4.jpg,OO,layer0-5,,,,,,,,,0.0,23.0,23.0,23.0,1385.751171,None,1,1.884311024,1385.751171,None,1385.751171,None,1385.751171,None,,,1,2022_Apr_05_1630,Semantic-hierachy,2021.1.2,59.80963765
324,Trial # 325,layer6-8_O1_to_O9.jpg,layer6-8/layer6-8_O1_to_O9.jpg,OO,layer6-8,,,,,,,,,0.0,24.0,24.0,24.0,1387.735664,None,3,5.663112208,1387.735664,None,1387.735664,None,1387.735664,None,,,1,2022_Apr_05_1630,Semantic-hierachy,2021.1.2,59.80963765
325,Trial # 326,layer0-5_T3_to_T5.jpg,layer0-5/layer0-5_T3_to_T5.jpg,TT,layer0-5,,,,,,,,,0.0,25.0,25.0,25.0,1393.504582,None,1,4.645695962,1393.504582,None,1393.504582,None,1393.504582,None,,,1,2022_Apr_05_1630,Semantic-hierachy,2021.1.2,59.80963765
326,Trial # 327,layer6-8_O8_to_T12.jpg,layer6-8/layer6-8_O8_to_T12.jpg,OT,layer6-8,,,,,,,,,0.0,26.0,26.0,26.0,1398.273448,None,3,1.627612153,1398.273448,None,1398.273448,None,1398.273448,None,,,1,2022_Apr_05_1630,Semantic-hierachy,2021.1.2,59.80963765
327,Trial # 328,layer9-17_T11_to_T4.jpg,layer9-17/layer9-17_T11_to_T4.jpg,TT,layer9-17,,,,,,,,,0.0,27.0,27.0,27.0,1399.988815,None,3,2.115389105,1399.988815,None,1399.988815,None,1399.988815,None,,,1,2022_Apr_05_1630,Semantic-hierachy,2021.1.2,59.80963765
328,Trial # 329,layer9-17_O6_to_T2.jpg,layer9-17/layer9-17_O6_to_T2.jpg,OT,layer9-17,,,,,,,,,0.0,28.0,28.0,28.0,1402.206833,None,1,1.83078281,1402.206833,None,1402.206833,None,1402.206833,None,,,1,2022_Apr_05_1630,Semantic-hierachy,2021.1.2,59.80963765
329,Trial # 330,layer9-17_T10_to_T9.jpg,layer9-17/layer9-17_T10_to_T9.jpg,TT,layer9-17,,,,,,,,,0.0,29.0,29.0,29.0,1404.140368,None,3,7.293802421,1404.140368,None,1404.140368,None,1404.140368,None,,,1,2022_Apr_05_1630,Semantic-hierachy,2021.1.2,59.80963765
330,Trial # 331,layer0-5_O2_to_O3.jpg,layer0-5/layer0-5_O2_to_O3.jpg,OO,layer0-5,,,,,,,,,0.0,30.0,30.0,30.0,1411.526171,None,1,1.583127259,1411.526171,None,1411.526171,None,1411.526171,None,,,1,2022_Apr_05_1630,Semantic-hierachy,2021.1.2,59.80963765
331,Trial # 332,layer6-8_O1_to_O12.jpg,layer6-8/layer6-8_O1_to_O12.jpg,OO,layer6-8,,,,,,,,,0.0,31.0,31.0,31.0,1413.209988,None,3,2.678211583,1413.209988,None,1413.209988,None,1413.209988,None,,,1,2022_Apr_05_1630,Semantic-hierachy,2021.1.2,59.80963765
332,Trial # 333,layer0-5_O5_to_T12.jpg,layer0-5/layer0-5_O5_to_T12.jpg,OT,layer0-5,,,,,,,,,0.0,32.0,32.0,32.0,1415.993663,None,1,2.49686957,1415.993663,None,1415.993663,None,1415.993663,None,,,1,2022_Apr_05_1630,Semantic-hierachy,2021.1.2,59.80963765
333,Trial # 334,layer9-17_O11_to_T6.jpg,layer9-17/layer9-17_O11_to_T6.jpg,OT,layer9-17,,,,,,,,,0.0,33.0,33.0,33.0,1418.594674,None,3,24.07131693,1418.594674,None,1418.594674,None,1418.594674,None,,,1,2022_Apr_05_1630,Semantic-hierachy,2021.1.2,59.80963765
334,Trial # 335,layer0-5_O4_to_T1.jpg,layer0-5/layer0-5_O4_to_T1.jpg,OT,layer0-5,,,,,,,,,0.0,34.0,34.0,34.0,1442.803465,None,1,1.863735683,1442.803465,None,1442.803465,None,1442.803465,None,,,1,2022_Apr_05_1630,Semantic-hierachy,2021.1.2,59.80963765
335,Trial # 336,layer6-8_T1_to_T6.jpg,layer6-8/layer6-8_T1_to_T6.jpg,TT,layer6-8,,,,,,,,,0.0,35.0,35.0,35.0,1444.786249,None,3,2.226288859,1444.786249,None,1444.786249,None,1444.786249,None,,,1,2022_Apr_05_1630,Semantic-hierachy,2021.1.2,59.80963765
336,Trial # 337,layer0-5_O12_to_O6.jpg,layer0-5/layer0-5_O12_to_O6.jpg,OO,layer0-5,,,,,,,,,0.0,36.0,36.0,36.0,1447.104387,None,1,1.399085254,1447.104387,None,1447.104387,None,1447.104387,None,,,1,2022_Apr_05_1630,Semantic-hierachy,2021.1.2,59.80963765
337,Trial # 338,layer0-5_O1_to_O10.jpg,layer0-5/layer0-5_O1_to_O10.jpg,OO,layer0-5,,,,,,,,,0.0,37.0,37.0,37.0,1448.604016,None,1,1.250581782,1448.604016,None,1448.604016,None,1448.604016,None,,,1,2022_Apr_05_1630,Semantic-hierachy,2021.1.2,59.80963765
338,Trial # 339,layer0-5_O9_to_T9.jpg,layer0-5/layer0-5_O9_to_T9.jpg,OT,layer0-5,,,,,,,,,0.0,38.0,38.0,38.0,1449.971707,None,1,1.441584694,1449.971707,None,1449.971707,None,1449.971707,None,,,1,2022_Apr_05_1630,Semantic-hierachy,2021.1.2,59.80963765
339,Trial # 340,layer6-8_O6_to_T10.jpg,layer6-8/layer6-8_O6_to_T10.jpg,OT,layer6-8,,,,,,,,,0.0,39.0,39.0,39.0,1451.522134,None,3,1.598001969,1451.522134,None,1451.522134,None,1451.522134,None,,,1,2022_Apr_05_1630,Semantic-hierachy,2021.1.2,59.80963765
340,Trial # 341,layer9-17_O3_to_T3.jpg,layer9-17/layer9-17_O3_to_T3.jpg,OT,layer9-17,,,,,,,,,0.0,40.0,40.0,40.0,1453.222886,None,2,1.413898617,1453.222886,None,1453.222886,None,1453.222886,None,,,1,2022_Apr_05_1630,Semantic-hierachy,2021.1.2,59.80963765
341,Trial # 342,layer0-5_O8_to_T8.jpg,layer0-5/layer0-5_O8_to_T8.jpg,OT,layer0-5,,,,,,,,,0.0,41.0,41.0,41.0,1454.75566,None,1,1.828368771,1454.75566,None,1454.75566,None,1454.75566,None,,,1,2022_Apr_05_1630,Semantic-hierachy,2021.1.2,59.80963765
342,Trial # 343,layer9-17_O11_to_O3.jpg,layer9-17/layer9-17_O11_to_O3.jpg,OO,layer9-17,,,,,,,,,0.0,42.0,42.0,42.0,1456.690083,None,2,1.56176588,1456.690083,None,1456.690083,None,1456.690083,None,,,1,2022_Apr_05_1630,Semantic-hierachy,2021.1.2,59.80963765
343,Trial # 344,layer9-17_O10_to_T12.jpg,layer9-17/layer9-17_O10_to_T12.jpg,OT,layer9-17,,,,,,,,,0.0,43.0,43.0,43.0,1458.341334,None,3,3.131760093,1458.341334,None,1458.341334,None,1458.341334,None,,,1,2022_Apr_05_1630,Semantic-hierachy,2021.1.2,59.80963765
344,Trial # 345,layer6-8_T3_to_T6.jpg,layer6-8/layer6-8_T3_to_T6.jpg,TT,layer6-8,,,,,,,,,0.0,44.0,44.0,44.0,1461.575288,None,3,2.196569181,1461.575288,None,1461.575288,None,1461.575288,None,,,1,2022_Apr_05_1630,Semantic-hierachy,2021.1.2,59.80963765
345,Trial # 346,layer6-8_O1_to_O4.jpg,layer6-8/layer6-8_O1_to_O4.jpg,OO,layer6-8,,,,,,,,,0.0,45.0,45.0,45.0,1463.875991,None,3,3.913568974,1463.875991,None,1463.875991,None,1463.875991,None,,,1,2022_Apr_05_1630,Semantic-hierachy,2021.1.2,59.80963765
346,Trial # 347,layer0-5_O8_to_T3.jpg,layer0-5/layer0-5_O8_to_T3.jpg,OT,layer0-5,,,,,,,,,0.0,46.0,46.0,46.0,1467.927742,None,1,1.435510839,1467.927742,None,1467.927742,None,1467.927742,None,,,1,2022_Apr_05_1630,Semantic-hierachy,2021.1.2,59.80963765
347,Trial # 348,layer9-17_T2_to_T7.jpg,layer9-17/layer9-17_T2_to_T7.jpg,TT,layer9-17,,,,,,,,,0.0,47.0,47.0,47.0,1469.461206,None,3,2.014221408,1469.461206,None,1469.461206,None,1469.461206,None,,,1,2022_Apr_05_1630,Semantic-hierachy,2021.1.2,59.80963765
348,Trial # 349,layer0-5_O9_to_T4.jpg,layer0-5/layer0-5_O9_to_T4.jpg,OT,layer0-5,,,,,,,,,0.0,48.0,48.0,48.0,1471.594975,None,1,4.192569345,1471.594975,None,1471.594975,None,1471.594975,None,,,1,2022_Apr_05_1630,Semantic-hierachy,2021.1.2,59.80963765
349,Trial # 350,layer9-17_T12_to_T9.jpg,layer9-17/layer9-17_T12_to_T9.jpg,TT,layer9-17,,,,,,,,,0.0,49.0,49.0,49.0,1475.878927,None,2,4.398815449,1475.878927,None,1475.878927,None,1475.878927,None,,,1,2022_Apr_05_1630,Semantic-hierachy,2021.1.2,59.80963765
350,Trial # 351,layer6-8_O11_to_O6.jpg,layer6-8/layer6-8_O11_to_O6.jpg,OO,layer6-8,,,,,,,,,0.0,50.0,50.0,50.0,1480.396735,None,2,2.895594126,1480.396735,None,1480.396735,None,1480.396735,None,,,1,2022_Apr_05_1630,Semantic-hierachy,2021.1.2,59.80963765
351,Trial # 352,layer0-5_O10_to_O11.jpg,layer0-5/layer0-5_O10_to_O11.jpg,OO,layer0-5,,,,,,,,,0.0,51.0,51.0,51.0,1483.381785,None,1,2.628948899,1483.381785,None,1483.381785,None,1483.381785,None,,,1,2022_Apr_05_1630,Semantic-hierachy,2021.1.2,59.80963765
352,Trial # 353,layer9-17_O4_to_T7.jpg,layer9-17/layer9-17_O4_to_T7.jpg,OT,layer9-17,,,,,,,,,0.0,52.0,52.0,52.0,1486.131446,None,2,5.293675977,1486.131446,None,1486.131446,None,1486.131446,None,,,1,2022_Apr_05_1630,Semantic-hierachy,2021.1.2,59.80963765
353,Trial # 354,layer0-5_O2_to_T11.jpg,layer0-5/layer0-5_O2_to_T11.jpg,OT,layer0-5,,,,,,,,,0.0,53.0,53.0,53.0,1491.518592,None,1,1.930939109,1491.518592,None,1491.518592,None,1491.518592,None,,,1,2022_Apr_05_1630,Semantic-hierachy,2021.1.2,59.80963765
354,Trial # 355,layer9-17_O5_to_O6.jpg,layer9-17/layer9-17_O5_to_O6.jpg,OO,layer9-17,,,,,,,,,0.0,54.0,54.0,54.0,1493.55138,None,2,3.916979137,1493.55138,None,1493.55138,None,1493.55138,None,,,1,2022_Apr_05_1630,Semantic-hierachy,2021.1.2,59.80963765
355,Trial # 356,layer6-8_O5_to_T10.jpg,layer6-8/layer6-8_O5_to_T10.jpg,OT,layer6-8,,,,,,,,,0.0,55.0,55.0,55.0,1497.585648,None,3,5.56225679,1497.585648,None,1497.585648,None,1497.585648,None,,,1,2022_Apr_05_1630,Semantic-hierachy,2021.1.2,59.80963765
356,Trial # 357,layer6-8_T3_to_T4.jpg,layer6-8/layer6-8_T3_to_T4.jpg,TT,layer6-8,,,,,,,,,0.0,56.0,56.0,56.0,1503.254456,None,3,1.67719905,1503.254456,None,1503.254456,None,1503.254456,None,,,1,2022_Apr_05_1630,Semantic-hierachy,2021.1.2,59.80963765
357,Trial # 358,layer6-8_T4_to_T8.jpg,layer6-8/layer6-8_T4_to_T8.jpg,TT,layer6-8,,,,,,,,,0.0,57.0,57.0,57.0,1505.021124,None,3,2.350799091,1505.021124,None,1505.021124,None,1505.021124,None,,,1,2022_Apr_05_1630,Semantic-hierachy,2021.1.2,59.80963765
358,Trial # 359,layer0-5_O2_to_T4.jpg,layer0-5/layer0-5_O2_to_T4.jpg,OT,layer0-5,,,,,,,,,0.0,58.0,58.0,58.0,1507.473354,None,1,1.499457459,1507.473354,None,1507.473354,None,1507.473354,None,,,1,2022_Apr_05_1630,Semantic-hierachy,2021.1.2,59.80963765
359,Trial # 360,layer0-5_O4_to_O7.jpg,layer0-5/layer0-5_O4_to_O7.jpg,OO,layer0-5,,,,,,,,,0.0,59.0,59.0,59.0,1509.089195,None,1,1.204613333,1509.089195,None,1509.089195,None,1509.089195,None,,,1,2022_Apr_05_1630,Semantic-hierachy,2021.1.2,59.80963765
360,Trial # 361,layer9-17_O12_to_T7.jpg,layer9-17/layer9-17_O12_to_T7.jpg,OT,layer9-17,,,,,,,,,0.0,60.0,60.0,60.0,1510.38935,None,2,2.016199319,1510.38935,None,1510.38935,None,1510.38935,None,,,1,2022_Apr_05_1630,Semantic-hierachy,2021.1.2,59.80963765
361,Trial # 362,layer6-8_O11_to_T8.jpg,layer6-8/layer6-8_O11_to_T8.jpg,OT,layer6-8,,,,,,,,,0.0,61.0,61.0,61.0,1512.508591,None,3,2.628853343,1512.508591,None,1512.508591,None,1512.508591,None,,,1,2022_Apr_05_1630,Semantic-hierachy,2021.1.2,59.80963765
362,Trial # 363,layer9-17_O10_to_T6.jpg,layer9-17/layer9-17_O10_to_T6.jpg,OT,layer9-17,,,,,,,,,0.0,62.0,62.0,62.0,1515.257796,None,3,2.966459317,1515.257796,None,1515.257796,None,1515.257796,None,,,1,2022_Apr_05_1630,Semantic-hierachy,2021.1.2,59.80963765
363,Trial # 364,layer0-5_O5_to_T7.jpg,layer0-5/layer0-5_O5_to_T7.jpg,OT,layer0-5,,,,,,,,,0.0,63.0,63.0,63.0,1518.34331,None,1,5.744627215,1518.34331,None,1518.34331,None,1518.34331,None,,,1,2022_Apr_05_1630,Semantic-hierachy,2021.1.2,59.80963765
364,Trial # 365,layer9-17_O11_to_O2.jpg,layer9-17/layer9-17_O11_to_O2.jpg,OO,layer9-17,,,,,,,,,0.0,64.0,64.0,64.0,1524.177512,None,3,2.383271431,1524.177512,None,1524.177512,None,1524.177512,None,,,1,2022_Apr_05_1630,Semantic-hierachy,2021.1.2,59.80963765
365,Trial # 366,layer9-17_O4_to_T10.jpg,layer9-17/layer9-17_O4_to_T10.jpg,OT,layer9-17,,,,,,,,,0.0,65.0,65.0,65.0,1526.662868,None,2,2.449983641,1526.662868,None,1526.662868,None,1526.662868,None,,,1,2022_Apr_05_1630,Semantic-hierachy,2021.1.2,59.80963765
366,Trial # 367,layer6-8_T11_to_T5.jpg,layer6-8/layer6-8_T11_to_T5.jpg,TT,layer6-8,,,,,,,,,0.0,66.0,66.0,66.0,1529.212136,None,2,2.682678864,1529.212136,None,1529.212136,None,1529.212136,None,,,1,2022_Apr_05_1630,Semantic-hierachy,2021.1.2,59.80963765
367,Trial # 368,layer9-17_O4_to_T5.jpg,layer9-17/layer9-17_O4_to_T5.jpg,OT,layer9-17,,,,,,,,,0.0,67.0,67.0,67.0,1531.997292,None,2,3.04918901,1531.997292,None,1531.997292,None,1531.997292,None,,,1,2022_Apr_05_1630,Semantic-hierachy,2021.1.2,59.80963765
368,Trial # 369,layer6-8_T2_to_T7.jpg,layer6-8/layer6-8_T2_to_T7.jpg,TT,layer6-8,,,,,,,,,0.0,68.0,68.0,68.0,1535.163901,None,3,3.295802926,1535.163901,None,1535.163901,None,1535.163901,None,,,1,2022_Apr_05_1630,Semantic-hierachy,2021.1.2,59.80963765
369,Trial # 370,layer0-5_O1_to_T2.jpg,layer0-5/layer0-5_O1_to_T2.jpg,OT,layer0-5,,,,,,,,,0.0,69.0,69.0,69.0,1538.599621,None,1,1.492027225,1538.599621,None,1538.599621,None,1538.599621,None,,,1,2022_Apr_05_1630,Semantic-hierachy,2021.1.2,59.80963765
370,Trial # 371,layer0-5_O12_to_T3.jpg,layer0-5/layer0-5_O12_to_T3.jpg,OT,layer0-5,,,,,,,,,0.0,70.0,70.0,70.0,1540.182353,None,1,1.215070012,1540.182353,None,1540.182353,None,1540.182353,None,,,1,2022_Apr_05_1630,Semantic-hierachy,2021.1.2,59.80963765
371,Trial # 372,layer9-17_O2_to_O3.jpg,layer9-17/layer9-17_O2_to_O3.jpg,OO,layer9-17,,,,,,,,,0.0,71.0,71.0,71.0,1541.484188,None,3,2.195022989,1541.484188,None,1541.484188,None,1541.484188,None,,,1,2022_Apr_05_1630,Semantic-hierachy,2021.1.2,59.80963765
372,Trial # 373,layer9-17_O12_to_T2.jpg,layer9-17/layer9-17_O12_to_T2.jpg,OT,layer9-17,,,,,,,,,0.0,72.0,72.0,72.0,1543.783764,None,3,2.411575277,1543.783764,None,1543.783764,None,1543.783764,None,,,1,2022_Apr_05_1630,Semantic-hierachy,2021.1.2,59.80963765
373,Trial # 374,layer0-5_O1_to_O12.jpg,layer0-5/layer0-5_O1_to_O12.jpg,OO,layer0-5,,,,,,,,,0.0,73.0,73.0,73.0,1546.317962,None,3,2.010893753,1546.317962,None,1546.317962,None,1546.317962,None,,,1,2022_Apr_05_1630,Semantic-hierachy,2021.1.2,59.80963765
374,Trial # 375,layer0-5_O12_to_O9.jpg,layer0-5/layer0-5_O12_to_O9.jpg,OO,layer0-5,,,,,,,,,0.0,74.0,74.0,74.0,1548.418132,None,1,2.012041203,1548.418132,None,1548.418132,None,1548.418132,None,,,1,2022_Apr_05_1630,Semantic-hierachy,2021.1.2,59.80963765
375,Trial # 376,layer6-8_T12_to_T2.jpg,layer6-8/layer6-8_T12_to_T2.jpg,TT,layer6-8,,,,,,,,,0.0,75.0,75.0,75.0,1550.551853,None,3,2.21100409,1550.551853,None,1550.551853,None,1550.551853,None,,,1,2022_Apr_05_1630,Semantic-hierachy,2021.1.2,59.80963765
376,Trial # 377,layer0-5_O2_to_T7.jpg,layer0-5/layer0-5_O2_to_T7.jpg,OT,layer0-5,,,,,,,,,0.0,76.0,76.0,76.0,1552.870792,None,1,1.62543357,1552.870792,None,1552.870792,None,1552.870792,None,,,1,2022_Apr_05_1630,Semantic-hierachy,2021.1.2,59.80963765
377,Trial # 378,layer9-17_T8_to_T9.jpg,layer9-17/layer9-17_T8_to_T9.jpg,TT,layer9-17,,,,,,,,,0.0,77.0,77.0,77.0,1554.586437,None,3,2.582987003,1554.586437,None,1554.586437,None,1554.586437,None,,,1,2022_Apr_05_1630,Semantic-hierachy,2021.1.2,59.80963765
378,Trial # 379,layer6-8_T1_to_T4.jpg,layer6-8/layer6-8_T1_to_T4.jpg,TT,layer6-8,,,,,,,,,0.0,78.0,78.0,78.0,1557.287848,None,3,1.910439645,1557.287848,None,1557.287848,None,1557.287848,None,,,1,2022_Apr_05_1630,Semantic-hierachy,2021.1.2,59.80963765
379,Trial # 380,layer0-5_O2_to_T6.jpg,layer0-5/layer0-5_O2_to_T6.jpg,OT,layer0-5,,,,,,,,,0.0,79.0,79.0,79.0,1559.28887,None,1,1.765763652,1559.28887,None,1559.28887,None,1559.28887,None,,,1,2022_Apr_05_1630,Semantic-hierachy,2021.1.2,59.80963765
380,Trial # 381,layer9-17_T10_to_T4.jpg,layer9-17/layer9-17_T10_to_T4.jpg,TT,layer9-17,,,,,,,,,0.0,80.0,80.0,80.0,1561.155353,None,3,2.315290596,1561.155353,None,1561.155353,None,1561.155353,None,,,1,2022_Apr_05_1630,Semantic-hierachy,2021.1.2,59.80963765
381,Trial # 382,layer6-8_O5_to_O7.jpg,layer6-8/layer6-8_O5_to_O7.jpg,OO,layer6-8,,,,,,,,,0.0,81.0,81.0,81.0,1563.590559,None,2,3.927800836,1563.590559,None,1563.590559,None,1563.590559,None,,,1,2022_Apr_05_1630,Semantic-hierachy,2021.1.2,59.80963765
382,Trial # 383,layer9-17_O10_to_T7.jpg,layer9-17/layer9-17_O10_to_T7.jpg,OT,layer9-17,,,,,,,,,0.0,82.0,82.0,82.0,1567.608724,None,2,1.580602513,1567.608724,None,1567.608724,None,1567.608724,None,,,1,2022_Apr_05_1630,Semantic-hierachy,2021.1.2,59.80963765
383,Trial # 384,layer9-17_T12_to_T6.jpg,layer9-17/layer9-17_T12_to_T6.jpg,TT,layer9-17,,,,,,,,,0.0,83.0,83.0,83.0,1569.374751,None,2,1.643196285,1569.374751,None,1569.374751,None,1569.374751,None,,,1,2022_Apr_05_1630,Semantic-hierachy,2021.1.2,59.80963765
384,Trial # 385,layer0-5_O7_to_T10.jpg,layer0-5/layer0-5_O7_to_T10.jpg,OT,layer0-5,,,,,,,,,0.0,84.0,84.0,84.0,1571.125456,None,1,2.279407359,1571.125456,None,1571.125456,None,1571.125456,None,,,1,2022_Apr_05_1630,Semantic-hierachy,2021.1.2,59.80963765
385,Trial # 386,layer0-5_O3_to_O6.jpg,layer0-5/layer0-5_O3_to_O6.jpg,OO,layer0-5,,,,,,,,,0.0,85.0,85.0,85.0,1573.493429,None,1,1.69939831,1573.493429,None,1573.493429,None,1573.493429,None,,,1,2022_Apr_05_1630,Semantic-hierachy,2021.1.2,59.80963765
386,Trial # 387,layer9-17_O11_to_T12.jpg,layer9-17/layer9-17_O11_to_T12.jpg,OT,layer9-17,,,,,,,,,0.0,86.0,86.0,86.0,1575.292725,None,3,9.434175775,1575.292725,None,1575.292725,None,1575.292725,None,,,1,2022_Apr_05_1630,Semantic-hierachy,2021.1.2,59.80963765
387,Trial # 388,layer6-8_O1_to_O10.jpg,layer6-8/layer6-8_O1_to_O10.jpg,OO,layer6-8,,,,,,,,,0.0,87.0,87.0,87.0,1584.846215,None,3,1.771496025,1584.846215,None,1584.846215,None,1584.846215,None,,,1,2022_Apr_05_1630,Semantic-hierachy,2021.1.2,59.80963765
388,Trial # 389,layer9-17_O6_to_O7.jpg,layer9-17/layer9-17_O6_to_O7.jpg,OO,layer9-17,,,,,,,,,0.0,88.0,88.0,88.0,1586.714661,None,2,1.68160147,1586.714661,None,1586.714661,None,1586.714661,None,,,1,2022_Apr_05_1630,Semantic-hierachy,2021.1.2,59.80963765
389,Trial # 390,layer0-5_T5_to_T6.jpg,layer0-5/layer0-5_T5_to_T6.jpg,TT,layer0-5,,,,,,,,,0.0,89.0,89.0,89.0,1588.514044,None,1,5.526167995,1588.514044,None,1588.514044,None,1588.514044,None,,,1,2022_Apr_05_1630,Semantic-hierachy,2021.1.2,59.80963765
390,Trial # 391,layer9-17_O2_to_T12.jpg,layer9-17/layer9-17_O2_to_T12.jpg,OT,layer9-17,,,,,,,,,0.0,90.0,90.0,90.0,1594.132829,None,3,6.388518221,1594.132829,None,1594.132829,None,1594.132829,None,,,1,2022_Apr_05_1630,Semantic-hierachy,2021.1.2,59.80963765
391,Trial # 392,layer0-5_T10_to_T7.jpg,layer0-5/layer0-5_T10_to_T7.jpg,TT,layer0-5,,,,,,,,,0.0,91.0,91.0,91.0,1600.633919,None,1,1.624800517,1600.633919,None,1600.633919,None,1600.633919,None,,,1,2022_Apr_05_1630,Semantic-hierachy,2021.1.2,59.80963765
392,Trial # 393,layer9-17_O11_to_O8.jpg,layer9-17/layer9-17_O11_to_O8.jpg,OO,layer9-17,,,,,,,,,0.0,92.0,92.0,92.0,1602.335105,None,2,3.220036236,1602.335105,None,1602.335105,None,1602.335105,None,,,1,2022_Apr_05_1630,Semantic-hierachy,2021.1.2,59.80963765
393,Trial # 394,layer0-5_T11_to_T8.jpg,layer0-5/layer0-5_T11_to_T8.jpg,TT,layer0-5,,,,,,,,,0.0,93.0,93.0,93.0,1605.685698,None,1,1.559771267,1605.685698,None,1605.685698,None,1605.685698,None,,,1,2022_Apr_05_1630,Semantic-hierachy,2021.1.2,59.80963765
