,Trial_num,image_name,image_path,pair_type,layers,block1.thisRepN,block1.thisTrialN,block1.thisN,block1.thisIndex,block2.thisRepN,block2.thisTrialN,block2.thisN,block2.thisIndex,block3.thisRepN,block3.thisTrialN,block3.thisN,block3.thisIndex,image_8.started,image_8.stopped,selected_semantic.response,selected_semantic.rt,selected_semantic.started,selected_semantic.stopped,Instruction.started,Instruction.stopped,Trial_number.started,Trial_number.stopped,session,date,expName,psychopyVersion,Unnamed: 33
0,Trial # 1,layer0-5_O2_to_T1.jpg,layer0-5/layer0-5_O2_to_T1.jpg,OT,layer0-5,0.0,0.0,0.0,0.0,,,,,,,,,38.34414964192547,None,1.0,62.25866315397434,38.34414964192547,None,38.34414964192547,None,38.34414964192547,None,1,2022_Apr_14_1419,Semantic-hierachy,2021.1.2,
1,Trial # 2,layer0-5_O11_to_T7.jpg,layer0-5/layer0-5_O11_to_T7.jpg,OT,layer0-5,0.0,1.0,1.0,1.0,,,,,,,,,101.51439771894366,None,1.0,6.461509899934754,101.51439771894366,None,101.51439771894366,None,101.51439771894366,None,1,2022_Apr_14_1419,Semantic-hierachy,2021.1.2,
2,Trial # 3,layer6-8_O3_to_O5.jpg,layer6-8/layer6-8_O3_to_O5.jpg,OO,layer6-8,0.0,2.0,2.0,2.0,,,,,,,,,109.1656316809822,None,4.0,8.11187503207475,109.1656316809822,None,109.1656316809822,None,109.1656316809822,None,1,2022_Apr_14_1419,Semantic-hierachy,2021.1.2,
3,Trial # 4,layer6-8_O11_to_O4.jpg,layer6-8/layer6-8_O11_to_O4.jpg,OO,layer6-8,0.0,3.0,3.0,3.0,,,,,,,,,117.98499912186526,None,3.0,9.32527557690628,117.98499912186526,None,117.98499912186526,None,117.98499912186526,None,1,2022_Apr_14_1419,Semantic-hierachy,2021.1.2,
4,Trial # 5,layer6-8_O8_to_T8.jpg,layer6-8/layer6-8_O8_to_T8.jpg,OT,layer6-8,0.0,4.0,4.0,4.0,,,,,,,,,127.65480129979552,None,3.0,6.874918641988188,127.65480129979552,None,127.65480129979552,None,127.65480129979552,None,1,2022_Apr_14_1419,Semantic-hierachy,2021.1.2,
5,Trial # 6,layer0-5_O11_to_O8.jpg,layer0-5/layer0-5_O11_to_O8.jpg,OO,layer0-5,0.0,5.0,5.0,5.0,,,,,,,,,134.90674613998272,None,1.0,4.292289210949093,134.90674613998272,None,134.90674613998272,None,134.90674613998272,None,1,2022_Apr_14_1419,Semantic-hierachy,2021.1.2,
6,Trial # 7,layer0-5_T10_to_T11.jpg,layer0-5/layer0-5_T10_to_T11.jpg,TT,layer0-5,0.0,6.0,6.0,6.0,,,,,,,,,139.4415799838025,None,1.0,2.3608217400033027,139.4415799838025,None,139.4415799838025,None,139.4415799838025,None,1,2022_Apr_14_1419,Semantic-hierachy,2021.1.2,
7,Trial # 8,layer9-17_O6_to_O9.jpg,layer9-17/layer9-17_O6_to_O9.jpg,OO,layer9-17,0.0,7.0,7.0,7.0,,,,,,,,,142.1264544900041,None,2.0,3.7918800651095808,142.1264544900041,None,142.1264544900041,None,142.1264544900041,None,1,2022_Apr_14_1419,Semantic-hierachy,2021.1.2,
8,Trial # 9,layer6-8_O12_to_O9.jpg,layer6-8/layer6-8_O12_to_O9.jpg,OO,layer6-8,0.0,8.0,8.0,8.0,,,,,,,,,146.27788657695055,None,3.0,2.324970559915528,146.27788657695055,None,146.27788657695055,None,146.27788657695055,None,1,2022_Apr_14_1419,Semantic-hierachy,2021.1.2,
9,Trial # 10,layer0-5_O10_to_T2.jpg,layer0-5/layer0-5_O10_to_T2.jpg,OT,layer0-5,0.0,9.0,9.0,9.0,,,,,,,,,148.82832336984575,None,4.0,7.344684512121603,148.82832336984575,None,148.82832336984575,None,148.82832336984575,None,1,2022_Apr_14_1419,Semantic-hierachy,2021.1.2,
10,Trial # 11,layer9-17_T10_to_T2.jpg,layer9-17/layer9-17_T10_to_T2.jpg,TT,layer9-17,0.0,10.0,10.0,10.0,,,,,,,,,156.43120755883865,None,4.0,3.476606310112402,156.43120755883865,None,156.43120755883865,None,156.43120755883865,None,1,2022_Apr_14_1419,Semantic-hierachy,2021.1.2,
11,Trial # 12,layer6-8_T6_to_T7.jpg,layer6-8/layer6-8_T6_to_T7.jpg,TT,layer6-8,0.0,11.0,11.0,11.0,,,,,,,,,160.24826946295798,None,3.0,2.526519356062636,160.24826946295798,None,160.24826946295798,None,160.24826946295798,None,1,2022_Apr_14_1419,Semantic-hierachy,2021.1.2,
12,Trial # 13,layer9-17_O10_to_T2.jpg,layer9-17/layer9-17_O10_to_T2.jpg,OT,layer9-17,0.0,12.0,12.0,12.0,,,,,,,,,162.98253411892802,None,2.0,2.5242480179294944,162.98253411892802,None,162.98253411892802,None,162.98253411892802,None,1,2022_Apr_14_1419,Semantic-hierachy,2021.1.2,
13,Trial # 14,layer6-8_T4_to_T7.jpg,layer6-8/layer6-8_T4_to_T7.jpg,TT,layer6-8,0.0,13.0,13.0,13.0,,,,,,,,,165.85110761900432,None,4.0,4.741239287890494,165.85110761900432,None,165.85110761900432,None,165.85110761900432,None,1,2022_Apr_14_1419,Semantic-hierachy,2021.1.2,
14,Trial # 15,layer9-17_O8_to_T2.jpg,layer9-17/layer9-17_O8_to_T2.jpg,OT,layer9-17,0.0,14.0,14.0,14.0,,,,,,,,,170.90250036888756,None,2.0,2.725403778022155,170.90250036888756,None,170.90250036888756,None,170.90250036888756,None,1,2022_Apr_14_1419,Semantic-hierachy,2021.1.2,
15,Trial # 16,layer0-5_T6_to_T9.jpg,layer0-5/layer0-5_T6_to_T9.jpg,TT,layer0-5,0.0,15.0,15.0,15.0,,,,,,,,,173.91863376786932,None,1.0,2.108313255012036,173.91863376786932,None,173.91863376786932,None,173.91863376786932,None,1,2022_Apr_14_1419,Semantic-hierachy,2021.1.2,
16,Trial # 17,layer0-5_O11_to_O12.jpg,layer0-5/layer0-5_O11_to_O12.jpg,OO,layer0-5,0.0,16.0,16.0,16.0,,,,,,,,,176.30332455597818,None,1.0,1.6060972139239311,176.30332455597818,None,176.30332455597818,None,176.30332455597818,None,1,2022_Apr_14_1419,Semantic-hierachy,2021.1.2,
17,Trial # 18,layer0-5_T11_to_T5.jpg,layer0-5/layer0-5_T11_to_T5.jpg,TT,layer0-5,0.0,17.0,17.0,17.0,,,,,,,,,179.67047177092172,None,1.0,2.8109585458878428,179.67047177092172,None,179.67047177092172,None,179.67047177092172,None,1,2022_Apr_14_1419,Semantic-hierachy,2021.1.2,
18,Trial # 19,layer0-5_O6_to_T12.jpg,layer0-5/layer0-5_O6_to_T12.jpg,OT,layer0-5,0.0,18.0,18.0,18.0,,,,,,,,,184.30525534483604,None,1.0,2.66057575494051,184.30525534483604,None,184.30525534483604,None,184.30525534483604,None,1,2022_Apr_14_1419,Semantic-hierachy,2021.1.2,
19,Trial # 20,layer6-8_T6_to_T8.jpg,layer6-8/layer6-8_T6_to_T8.jpg,TT,layer6-8,0.0,19.0,19.0,19.0,,,,,,,,,187.1909235089552,None,4.0,2.475396737921983,187.1909235089552,None,187.1909235089552,None,187.1909235089552,None,1,2022_Apr_14_1419,Semantic-hierachy,2021.1.2,
20,Trial # 21,layer9-17_T2_to_T5.jpg,layer9-17/layer9-17_T2_to_T5.jpg,TT,layer9-17,0.0,20.0,20.0,20.0,,,,,,,,,190.0909700449556,None,2.0,1.94309271289967,190.0909700449556,None,190.0909700449556,None,190.0909700449556,None,1,2022_Apr_14_1419,Semantic-hierachy,2021.1.2,
21,Trial # 22,layer6-8_O2_to_O6.jpg,layer6-8/layer6-8_O2_to_O6.jpg,OO,layer6-8,0.0,21.0,21.0,21.0,,,,,,,,,192.42544001084752,None,4.0,2.076006379211321,192.42544001084752,None,192.42544001084752,None,192.42544001084752,None,1,2022_Apr_14_1419,Semantic-hierachy,2021.1.2,
22,Trial # 23,layer9-17_O3_to_T12.jpg,layer9-17/layer9-17_O3_to_T12.jpg,OT,layer9-17,0.0,22.0,22.0,22.0,,,,,,,,,194.70852985791865,None,2.0,2.426346370950341,194.70852985791865,None,194.70852985791865,None,194.70852985791865,None,1,2022_Apr_14_1419,Semantic-hierachy,2021.1.2,
23,Trial # 24,layer0-5_O11_to_O3.jpg,layer0-5/layer0-5_O11_to_O3.jpg,OO,layer0-5,0.0,23.0,23.0,23.0,,,,,,,,,197.42650897195563,None,1.0,7.382598445983604,197.42650897195563,None,197.42650897195563,None,197.42650897195563,None,1,2022_Apr_14_1419,Semantic-hierachy,2021.1.2,
24,Trial # 25,layer6-8_O2_to_O9.jpg,layer6-8/layer6-8_O2_to_O9.jpg,OO,layer6-8,0.0,24.0,24.0,24.0,,,,,,,,,204.99520650482737,None,4.0,2.406303497031331,204.99520650482737,None,204.99520650482737,None,204.99520650482737,None,1,2022_Apr_14_1419,Semantic-hierachy,2021.1.2,
25,Trial # 26,layer9-17_O10_to_O8.jpg,layer9-17/layer9-17_O10_to_O8.jpg,OO,layer9-17,0.0,25.0,25.0,25.0,,,,,,,,,207.6296842319425,None,4.0,5.744065243983641,207.6296842319425,None,207.6296842319425,None,207.6296842319425,None,1,2022_Apr_14_1419,Semantic-hierachy,2021.1.2,
26,Trial # 27,layer9-17_T4_to_T6.jpg,layer9-17/layer9-17_T4_to_T6.jpg,TT,layer9-17,0.0,26.0,26.0,26.0,,,,,,,,,213.6975511929486,None,2.0,4.676638894947246,213.6975511929486,None,213.6975511929486,None,213.6975511929486,None,1,2022_Apr_14_1419,Semantic-hierachy,2021.1.2,
27,Trial # 28,layer6-8_O7_to_T8.jpg,layer6-8/layer6-8_O7_to_T8.jpg,OT,layer6-8,0.0,27.0,27.0,27.0,,,,,,,,,218.66564466478303,None,2.0,1.4728227318264544,218.66564466478303,None,218.66564466478303,None,218.66564466478303,None,1,2022_Apr_14_1419,Semantic-hierachy,2021.1.2,
28,Trial # 29,layer6-8_T4_to_T5.jpg,layer6-8/layer6-8_T4_to_T5.jpg,TT,layer6-8,0.0,28.0,28.0,28.0,,,,,,,,,220.349270576844,None,4.0,3.441737919813022,220.349270576844,None,220.349270576844,None,220.349270576844,None,1,2022_Apr_14_1419,Semantic-hierachy,2021.1.2,
29,Trial # 30,layer6-8_T10_to_T9.jpg,layer6-8/layer6-8_T10_to_T9.jpg,TT,layer6-8,0.0,29.0,29.0,29.0,,,,,,,,,224.10161018488,None,4.0,1.4757841541431844,224.10161018488,None,224.10161018488,None,224.10161018488,None,1,2022_Apr_14_1419,Semantic-hierachy,2021.1.2,
30,Trial # 31,layer9-17_O1_to_O8.jpg,layer9-17/layer9-17_O1_to_O8.jpg,OO,layer9-17,0.0,30.0,30.0,30.0,,,,,,,,,227.9026792808436,None,2.0,2.8907921460922807,227.9026792808436,None,227.9026792808436,None,227.9026792808436,None,1,2022_Apr_14_1419,Semantic-hierachy,2021.1.2,
31,Trial # 32,layer9-17_O12_to_O7.jpg,layer9-17/layer9-17_O12_to_O7.jpg,OO,layer9-17,0.0,31.0,31.0,31.0,,,,,,,,,231.2041113059968,None,2.0,1.409930643159896,231.2041113059968,None,231.2041113059968,None,231.2041113059968,None,1,2022_Apr_14_1419,Semantic-hierachy,2021.1.2,
32,Trial # 33,layer9-17_T10_to_T12.jpg,layer9-17/layer9-17_T10_to_T12.jpg,TT,layer9-17,0.0,32.0,32.0,32.0,,,,,,,,,232.87086690287103,None,4.0,2.426381949800998,232.87086690287103,None,232.87086690287103,None,232.87086690287103,None,1,2022_Apr_14_1419,Semantic-hierachy,2021.1.2,
33,Trial # 34,layer0-5_T2_to_T6.jpg,layer0-5/layer0-5_T2_to_T6.jpg,TT,layer0-5,0.0,33.0,33.0,33.0,,,,,,,,,235.5042701398488,None,4.0,2.4928041719831526,235.5042701398488,None,235.5042701398488,None,235.5042701398488,None,1,2022_Apr_14_1419,Semantic-hierachy,2021.1.2,
34,Trial # 35,layer6-8_T11_to_T2.jpg,layer6-8/layer6-8_T11_to_T2.jpg,TT,layer6-8,0.0,34.0,34.0,34.0,,,,,,,,,238.3391085728072,None,4.0,1.7242116720881313,238.3391085728072,None,238.3391085728072,None,238.3391085728072,None,1,2022_Apr_14_1419,Semantic-hierachy,2021.1.2,
35,Trial # 36,layer6-8_O4_to_T3.jpg,layer6-8/layer6-8_O4_to_T3.jpg,OT,layer6-8,0.0,35.0,35.0,35.0,,,,,,,,,241.723196616862,None,4.0,1.2807147970888764,241.723196616862,None,241.723196616862,None,241.723196616862,None,1,2022_Apr_14_1419,Semantic-hierachy,2021.1.2,
36,Trial # 37,layer6-8_O3_to_T11.jpg,layer6-8/layer6-8_O3_to_T11.jpg,OT,layer6-8,0.0,36.0,36.0,36.0,,,,,,,,,243.40748684783463,None,2.0,2.011507832910865,243.40748684783463,None,243.40748684783463,None,243.40748684783463,None,1,2022_Apr_14_1419,Semantic-hierachy,2021.1.2,
37,Trial # 38,layer6-8_T1_to_T2.jpg,layer6-8/layer6-8_T1_to_T2.jpg,TT,layer6-8,0.0,37.0,37.0,37.0,,,,,,,,,245.8911931908224,None,3.0,6.362561807967722,245.8911931908224,None,245.8911931908224,None,245.8911931908224,None,1,2022_Apr_14_1419,Semantic-hierachy,2021.1.2,
38,Trial # 39,layer9-17_O2_to_O6.jpg,layer9-17/layer9-17_O2_to_O6.jpg,OO,layer9-17,0.0,38.0,38.0,38.0,,,,,,,,,252.5269328809809,None,4.0,2.843610571930185,252.5269328809809,None,252.5269328809809,None,252.5269328809809,None,1,2022_Apr_14_1419,Semantic-hierachy,2021.1.2,
39,Trial # 40,layer9-17_O4_to_T2.jpg,layer9-17/layer9-17_O4_to_T2.jpg,OT,layer9-17,0.0,39.0,39.0,39.0,,,,,,,,,255.7282871617936,None,2.0,2.3440131039824337,255.7282871617936,None,255.7282871617936,None,255.7282871617936,None,1,2022_Apr_14_1419,Semantic-hierachy,2021.1.2,
40,Trial # 41,layer6-8_O5_to_T3.jpg,layer6-8/layer6-8_O5_to_T3.jpg,OT,layer6-8,0.0,40.0,40.0,40.0,,,,,,,,,258.3789126169868,None,3.0,2.192374134203419,258.3789126169868,None,258.3789126169868,None,258.3789126169868,None,1,2022_Apr_14_1419,Semantic-hierachy,2021.1.2,
41,Trial # 42,layer6-8_O2_to_O3.jpg,layer6-8/layer6-8_O2_to_O3.jpg,OO,layer6-8,0.0,41.0,41.0,41.0,,,,,,,,,260.8461141139269,None,4.0,2.4250943791121244,260.8461141139269,None,260.8461141139269,None,260.8461141139269,None,1,2022_Apr_14_1419,Semantic-hierachy,2021.1.2,
42,Trial # 43,layer6-8_O1_to_T6.jpg,layer6-8/layer6-8_O1_to_T6.jpg,OT,layer6-8,0.0,42.0,42.0,42.0,,,,,,,,,263.78001382388175,None,3.0,1.992467758944258,263.78001382388175,None,263.78001382388175,None,263.78001382388175,None,1,2022_Apr_14_1419,Semantic-hierachy,2021.1.2,
43,Trial # 44,layer6-8_O2_to_T12.jpg,layer6-8/layer6-8_O2_to_T12.jpg,OT,layer6-8,0.0,43.0,43.0,43.0,,,,,,,,,266.4311099827755,None,3.0,1.324781609000638,266.4311099827755,None,266.4311099827755,None,266.4311099827755,None,1,2022_Apr_14_1419,Semantic-hierachy,2021.1.2,
44,Trial # 45,layer9-17_O2_to_O8.jpg,layer9-17/layer9-17_O2_to_O8.jpg,OO,layer9-17,0.0,44.0,44.0,44.0,,,,,,,,,268.03203476779163,None,4.0,5.3774224480148405,268.03203476779163,None,268.03203476779163,None,268.03203476779163,None,1,2022_Apr_14_1419,Semantic-hierachy,2021.1.2,
45,Trial # 46,layer9-17_O10_to_O4.jpg,layer9-17/layer9-17_O10_to_O4.jpg,OO,layer9-17,0.0,45.0,45.0,45.0,,,,,,,,,274.6172398349736,None,3.0,1.810471658129245,274.6172398349736,None,274.6172398349736,None,274.6172398349736,None,1,2022_Apr_14_1419,Semantic-hierachy,2021.1.2,
46,Trial # 47,layer0-5_O1_to_O4.jpg,layer0-5/layer0-5_O1_to_O4.jpg,OO,layer0-5,0.0,46.0,46.0,46.0,,,,,,,,,276.6850570768584,None,1.0,3.850170827936381,276.6850570768584,None,276.6850570768584,None,276.6850570768584,None,1,2022_Apr_14_1419,Semantic-hierachy,2021.1.2,
47,Trial # 48,layer0-5_T4_to_T5.jpg,layer0-5/layer0-5_T4_to_T5.jpg,TT,layer0-5,0.0,47.0,47.0,47.0,,,,,,,,,280.9194296789356,None,1.0,2.5910568051040173,280.9194296789356,None,280.9194296789356,None,280.9194296789356,None,1,2022_Apr_14_1419,Semantic-hierachy,2021.1.2,
48,Trial # 49,layer9-17_T12_to_T8.jpg,layer9-17/layer9-17_T12_to_T8.jpg,TT,layer9-17,0.0,48.0,48.0,48.0,,,,,,,,,283.76951189897954,None,2.0,1.4085639149416238,283.76951189897954,None,283.76951189897954,None,283.76951189897954,None,1,2022_Apr_14_1419,Semantic-hierachy,2021.1.2,
49,Trial # 50,layer0-5_T10_to_T5.jpg,layer0-5/layer0-5_T10_to_T5.jpg,TT,layer0-5,0.0,49.0,49.0,49.0,,,,,,,,,285.3701288229786,None,3.0,3.758110706927255,285.3701288229786,None,285.3701288229786,None,285.3701288229786,None,1,2022_Apr_14_1419,Semantic-hierachy,2021.1.2,
50,Trial # 51,layer6-8_O10_to_O8.jpg,layer6-8/layer6-8_O10_to_O8.jpg,OO,layer6-8,0.0,50.0,50.0,50.0,,,,,,,,,289.9716345118359,None,3.0,2.442571800202132,289.9716345118359,None,289.9716345118359,None,289.9716345118359,None,1,2022_Apr_14_1419,Semantic-hierachy,2021.1.2,
51,Trial # 52,layer9-17_O3_to_O5.jpg,layer9-17/layer9-17_O3_to_O5.jpg,OO,layer9-17,0.0,51.0,51.0,51.0,,,,,,,,,292.723066134844,None,2.0,1.624700838001445,292.723066134844,None,292.723066134844,None,292.723066134844,None,1,2022_Apr_14_1419,Semantic-hierachy,2021.1.2,
52,Trial # 53,layer6-8_T1_to_T12.jpg,layer6-8/layer6-8_T1_to_T12.jpg,TT,layer6-8,0.0,52.0,52.0,52.0,,,,,,,,,294.53998472192325,None,3.0,2.3936526409816,294.53998472192325,None,294.53998472192325,None,294.53998472192325,None,1,2022_Apr_14_1419,Semantic-hierachy,2021.1.2,
53,Trial # 54,layer0-5_O4_to_O9.jpg,layer0-5/layer0-5_O4_to_O9.jpg,OO,layer0-5,0.0,53.0,53.0,53.0,,,,,,,,,297.20740766683593,None,4.0,3.255139166954905,297.20740766683593,None,297.20740766683593,None,297.20740766683593,None,1,2022_Apr_14_1419,Semantic-hierachy,2021.1.2,
54,Trial # 55,layer0-5_O5_to_O9.jpg,layer0-5/layer0-5_O5_to_O9.jpg,OO,layer0-5,0.0,54.0,54.0,54.0,,,,,,,,,300.92528674192727,None,1.0,3.478422734187916,300.92528674192727,None,300.92528674192727,None,300.92528674192727,None,1,2022_Apr_14_1419,Semantic-hierachy,2021.1.2,
55,Trial # 56,layer0-5_O1_to_O2.jpg,layer0-5/layer0-5_O1_to_O2.jpg,OO,layer0-5,0.0,55.0,55.0,55.0,,,,,,,,,304.7427820779849,None,1.0,1.725663874996826,304.7427820779849,None,304.7427820779849,None,304.7427820779849,None,1,2022_Apr_14_1419,Semantic-hierachy,2021.1.2,
56,Trial # 57,layer9-17_T12_to_T3.jpg,layer9-17/layer9-17_T12_to_T3.jpg,TT,layer9-17,0.0,56.0,56.0,56.0,,,,,,,,,307.2613639750052,None,2.0,1.8749525619205087,307.2613639750052,None,307.2613639750052,None,307.2613639750052,None,1,2022_Apr_14_1419,Semantic-hierachy,2021.1.2,
57,Trial # 58,layer0-5_O7_to_O9.jpg,layer0-5/layer0-5_O7_to_O9.jpg,OO,layer0-5,0.0,57.0,57.0,57.0,,,,,,,,,309.7267974668648,None,1.0,1.89222188689746,309.7267974668648,None,309.7267974668648,None,309.7267974668648,None,1,2022_Apr_14_1419,Semantic-hierachy,2021.1.2,
58,Trial # 59,layer0-5_T5_to_T9.jpg,layer0-5/layer0-5_T5_to_T9.jpg,TT,layer0-5,0.0,58.0,58.0,58.0,,,,,,,,,311.9622834317852,None,1.0,1.4379044980742035,311.9622834317852,None,311.9622834317852,None,311.9622834317852,None,1,2022_Apr_14_1419,Semantic-hierachy,2021.1.2,
59,Trial # 60,layer9-17_O1_to_O9.jpg,layer9-17/layer9-17_O1_to_O9.jpg,OO,layer9-17,0.0,59.0,59.0,59.0,,,,,,,,,313.8790845829062,None,4.0,6.562627071049064,313.8790845829062,None,313.8790845829062,None,313.8790845829062,None,1,2022_Apr_14_1419,Semantic-hierachy,2021.1.2,
60,Trial # 61,layer0-5_O6_to_O7.jpg,layer0-5/layer0-5_O6_to_O7.jpg,OO,layer0-5,0.0,60.0,60.0,60.0,,,,,,,,,320.71557191200554,None,1.0,1.890738502144813,320.71557191200554,None,320.71557191200554,None,320.71557191200554,None,1,2022_Apr_14_1419,Semantic-hierachy,2021.1.2,
61,Trial # 62,layer9-17_T5_to_T6.jpg,layer9-17/layer9-17_T5_to_T6.jpg,TT,layer9-17,0.0,61.0,61.0,61.0,,,,,,,,,322.8322005488444,None,2.0,3.508678474929184,322.8322005488444,None,322.8322005488444,None,322.8322005488444,None,1,2022_Apr_14_1419,Semantic-hierachy,2021.1.2,
62,Trial # 63,layer9-17_T4_to_T9.jpg,layer9-17/layer9-17_T4_to_T9.jpg,TT,layer9-17,0.0,62.0,62.0,62.0,,,,,,,,,326.6840582618024,None,2.0,1.4200100000016391,326.6840582618024,None,326.6840582618024,None,326.6840582618024,None,1,2022_Apr_14_1419,Semantic-hierachy,2021.1.2,
63,Trial # 64,layer0-5_O11_to_T1.jpg,layer0-5/layer0-5_O11_to_T1.jpg,OT,layer0-5,0.0,63.0,63.0,63.0,,,,,,,,,328.3497569710016,None,1.0,1.639944755937904,328.3497569710016,None,328.3497569710016,None,328.3497569710016,None,1,2022_Apr_14_1419,Semantic-hierachy,2021.1.2,
64,Trial # 65,layer6-8_T5_to_T9.jpg,layer6-8/layer6-8_T5_to_T9.jpg,TT,layer6-8,0.0,64.0,64.0,64.0,,,,,,,,,330.3339667138644,None,1.0,2.010791938053444,330.3339667138644,None,330.3339667138644,None,330.3339667138644,None,1,2022_Apr_14_1419,Semantic-hierachy,2021.1.2,
65,Trial # 66,layer0-5_T4_to_T7.jpg,layer0-5/layer0-5_T4_to_T7.jpg,TT,layer0-5,0.0,65.0,65.0,65.0,,,,,,,,,332.7183349749539,None,1.0,1.488945173099637,332.7183349749539,None,332.7183349749539,None,332.7183349749539,None,1,2022_Apr_14_1419,Semantic-hierachy,2021.1.2,
66,Trial # 67,layer0-5_O2_to_O6.jpg,layer0-5/layer0-5_O2_to_O6.jpg,OO,layer0-5,0.0,66.0,66.0,66.0,,,,,,,,,334.9854464768432,None,1.0,1.0262211018707603,334.9854464768432,None,334.9854464768432,None,334.9854464768432,None,1,2022_Apr_14_1419,Semantic-hierachy,2021.1.2,
67,Trial # 68,layer9-17_O12_to_T3.jpg,layer9-17/layer9-17_O12_to_T3.jpg,OT,layer9-17,0.0,67.0,67.0,67.0,,,,,,,,,336.3701348018367,None,2.0,1.658581332070753,336.3701348018367,None,336.3701348018367,None,336.3701348018367,None,1,2022_Apr_14_1419,Semantic-hierachy,2021.1.2,
68,Trial # 69,layer9-17_O7_to_O9.jpg,layer9-17/layer9-17_O7_to_O9.jpg,OO,layer9-17,0.0,68.0,68.0,68.0,,,,,,,,,338.33683930290863,None,4.0,4.846934919944033,338.33683930290863,None,338.33683930290863,None,338.33683930290863,None,1,2022_Apr_14_1419,Semantic-hierachy,2021.1.2,
69,Trial # 70,layer9-17_T1_to_T8.jpg,layer9-17/layer9-17_T1_to_T8.jpg,TT,layer9-17,0.0,69.0,69.0,69.0,,,,,,,,,343.48848611093126,None,4.0,5.928513714112341,343.48848611093126,None,343.48848611093126,None,343.48848611093126,None,1,2022_Apr_14_1419,Semantic-hierachy,2021.1.2,
70,Trial # 71,layer0-5_O3_to_T8.jpg,layer0-5/layer0-5_O3_to_T8.jpg,OT,layer0-5,0.0,70.0,70.0,70.0,,,,,,,,,349.80581637099385,None,1.0,3.172521605854854,349.80581637099385,None,349.80581637099385,None,349.80581637099385,None,1,2022_Apr_14_1419,Semantic-hierachy,2021.1.2,
71,Trial # 72,layer9-17_O9_to_T2.jpg,layer9-17/layer9-17_O9_to_T2.jpg,OT,layer9-17,0.0,71.0,71.0,71.0,,,,,,,,,353.27433157595806,None,4.0,2.388493814971298,353.27433157595806,None,353.27433157595806,None,353.27433157595806,None,1,2022_Apr_14_1419,Semantic-hierachy,2021.1.2,
72,Trial # 73,layer9-17_O5_to_O7.jpg,layer9-17/layer9-17_O5_to_O7.jpg,OO,layer9-17,0.0,72.0,72.0,72.0,,,,,,,,,356.0594200019259,None,2.0,1.940108838956803,356.0594200019259,None,356.0594200019259,None,356.0594200019259,None,1,2022_Apr_14_1419,Semantic-hierachy,2021.1.2,
73,Trial # 74,layer0-5_T11_to_T9.jpg,layer0-5/layer0-5_T11_to_T9.jpg,TT,layer0-5,0.0,73.0,73.0,73.0,,,,,,,,,358.4925301198382,None,2.0,1.5106427411083132,358.4925301198382,None,358.4925301198382,None,358.4925301198382,None,1,2022_Apr_14_1419,Semantic-hierachy,2021.1.2,
74,Trial # 75,layer0-5_O11_to_T12.jpg,layer0-5/layer0-5_O11_to_T12.jpg,OT,layer0-5,0.0,74.0,74.0,74.0,,,,,,,,,360.34295830200426,None,1.0,2.2622253780718893,360.34295830200426,None,360.34295830200426,None,360.34295830200426,None,1,2022_Apr_14_1419,Semantic-hierachy,2021.1.2,
75,Trial # 76,layer9-17_T7_to_T9.jpg,layer9-17/layer9-17_T7_to_T9.jpg,TT,layer9-17,0.0,75.0,75.0,75.0,,,,,,,,,363.1158740348183,None,4.0,7.329192511970177,363.1158740348183,None,363.1158740348183,None,363.1158740348183,None,1,2022_Apr_14_1419,Semantic-hierachy,2021.1.2,
76,Trial # 77,layer6-8_O6_to_T2.jpg,layer6-8/layer6-8_O6_to_T2.jpg,OT,layer6-8,0.0,76.0,76.0,76.0,,,,,,,,,370.697914688848,None,4.0,2.2354709680657834,370.697914688848,None,370.697914688848,None,370.697914688848,None,1,2022_Apr_14_1419,Semantic-hierachy,2021.1.2,
77,Trial # 78,layer9-17_T4_to_T5.jpg,layer9-17/layer9-17_T4_to_T5.jpg,TT,layer9-17,0.0,77.0,77.0,77.0,,,,,,,,,373.4313165149652,None,2.0,2.393772874958813,373.4313165149652,None,373.4313165149652,None,373.4313165149652,None,1,2022_Apr_14_1419,Semantic-hierachy,2021.1.2,
78,Trial # 79,layer0-5_T2_to_T4.jpg,layer0-5/layer0-5_T2_to_T4.jpg,TT,layer0-5,0.0,78.0,78.0,78.0,,,,,,,,,376.08260893798433,None,1.0,2.227705175988376,376.08260893798433,None,376.08260893798433,None,376.08260893798433,None,1,2022_Apr_14_1419,Semantic-hierachy,2021.1.2,
79,Trial # 80,layer0-5_T2_to_T8.jpg,layer0-5/layer0-5_T2_to_T8.jpg,TT,layer0-5,0.0,79.0,79.0,79.0,,,,,,,,,378.4820437619928,None,1.0,1.3038399398792535,378.4820437619928,None,378.4820437619928,None,378.4820437619928,None,1,2022_Apr_14_1419,Semantic-hierachy,2021.1.2,
80,Trial # 81,layer9-17_T3_to_T9.jpg,layer9-17/layer9-17_T3_to_T9.jpg,TT,layer9-17,0.0,80.0,80.0,80.0,,,,,,,,,380.0492840129882,None,2.0,1.940003438154236,380.0492840129882,None,380.0492840129882,None,380.0492840129882,None,1,2022_Apr_14_1419,Semantic-hierachy,2021.1.2,
81,Trial # 82,layer9-17_O2_to_O5.jpg,layer9-17/layer9-17_O2_to_O5.jpg,OO,layer9-17,0.0,81.0,81.0,81.0,,,,,,,,,382.334022779949,None,2.0,1.7246898580342531,382.334022779949,None,382.334022779949,None,382.334022779949,None,1,2022_Apr_14_1419,Semantic-hierachy,2021.1.2,
82,Trial # 83,layer6-8_O6_to_O7.jpg,layer6-8/layer6-8_O6_to_O7.jpg,OO,layer6-8,0.0,82.0,82.0,82.0,,,,,,,,,384.35054123285227,None,4.0,2.627360066166148,384.35054123285227,None,384.35054123285227,None,384.35054123285227,None,1,2022_Apr_14_1419,Semantic-hierachy,2021.1.2,
83,Trial # 84,layer9-17_O11_to_T1.jpg,layer9-17/layer9-17_O11_to_T1.jpg,OT,layer9-17,0.0,83.0,83.0,83.0,,,,,,,,,387.1859037729446,None,2.0,1.7196928588673472,387.1859037729446,None,387.1859037729446,None,387.1859037729446,None,1,2022_Apr_14_1419,Semantic-hierachy,2021.1.2,
84,Trial # 85,layer6-8_O5_to_T12.jpg,layer6-8/layer6-8_O5_to_T12.jpg,OT,layer6-8,0.0,84.0,84.0,84.0,,,,,,,,,389.0853026448749,None,2.0,1.3601253731176255,389.0853026448749,None,389.0853026448749,None,389.0853026448749,None,1,2022_Apr_14_1419,Semantic-hierachy,2021.1.2,
85,Trial # 86,layer6-8_O4_to_O7.jpg,layer6-8/layer6-8_O4_to_O7.jpg,OO,layer6-8,0.0,85.0,85.0,85.0,,,,,,,,,390.6522737587802,None,4.0,1.9284899930935355,390.6522737587802,None,390.6522737587802,None,390.6522737587802,None,1,2022_Apr_14_1419,Semantic-hierachy,2021.1.2,
86,Trial # 87,layer6-8_T10_to_T8.jpg,layer6-8/layer6-8_T10_to_T8.jpg,TT,layer6-8,0.0,86.0,86.0,86.0,,,,,,,,,392.8864748198539,None,2.0,1.9386276518926024,392.8864748198539,None,392.8864748198539,None,392.8864748198539,None,1,2022_Apr_14_1419,Semantic-hierachy,2021.1.2,
87,Trial # 88,layer6-8_O10_to_T3.jpg,layer6-8/layer6-8_O10_to_T3.jpg,OT,layer6-8,0.0,87.0,87.0,87.0,,,,,,,,,395.12086482997984,None,4.0,3.2904568039812148,395.12086482997984,None,395.12086482997984,None,395.12086482997984,None,1,2022_Apr_14_1419,Semantic-hierachy,2021.1.2,
88,Trial # 89,layer6-8_O5_to_O9.jpg,layer6-8/layer6-8_O5_to_O9.jpg,OO,layer6-8,0.0,88.0,88.0,88.0,,,,,,,,,398.6886098377872,None,4.0,1.3764329159166664,398.6886098377872,None,398.6886098377872,None,398.6886098377872,None,1,2022_Apr_14_1419,Semantic-hierachy,2021.1.2,
89,Trial # 90,layer6-8_O10_to_O11.jpg,layer6-8/layer6-8_O10_to_O11.jpg,OO,layer6-8,0.0,89.0,89.0,89.0,,,,,,,,,400.6734235829208,None,4.0,4.123480872949585,400.6734235829208,None,400.6734235829208,None,400.6734235829208,None,1,2022_Apr_14_1419,Semantic-hierachy,2021.1.2,
90,Trial # 91,layer0-5_O4_to_T5.jpg,layer0-5/layer0-5_O4_to_T5.jpg,OT,layer0-5,0.0,90.0,90.0,90.0,,,,,,,,,407.0577179337852,None,1.0,2.009141682181508,407.0577179337852,None,407.0577179337852,None,407.0577179337852,None,1,2022_Apr_14_1419,Semantic-hierachy,2021.1.2,
91,Trial # 92,layer0-5_T11_to_T12.jpg,layer0-5/layer0-5_T11_to_T12.jpg,TT,layer0-5,0.0,91.0,91.0,91.0,,,,,,,,,409.2580775108654,None,1.0,1.4235224078875035,409.2580775108654,None,409.2580775108654,None,409.2580775108654,None,1,2022_Apr_14_1419,Semantic-hierachy,2021.1.2,
92,Trial # 93,layer0-5_T10_to_T3.jpg,layer0-5/layer0-5_T10_to_T3.jpg,TT,layer0-5,0.0,92.0,92.0,92.0,,,,,,,,,410.9091981109232,None,1.0,1.456166435033083,410.9091981109232,None,410.9091981109232,None,410.9091981109232,None,1,2022_Apr_14_1419,Semantic-hierachy,2021.1.2,
93,Trial # 94,layer0-5_O2_to_O8.jpg,layer0-5/layer0-5_O2_to_O8.jpg,OO,layer0-5,0.0,93.0,93.0,93.0,,,,,,,,,412.526093327906,None,1.0,1.0922546540386977,412.526093327906,None,412.526093327906,None,412.526093327906,None,1,2022_Apr_14_1419,Semantic-hierachy,2021.1.2,
94,Trial # 95,layer0-5_T3_to_T8.jpg,layer0-5/layer0-5_T3_to_T8.jpg,TT,layer0-5,0.0,94.0,94.0,94.0,,,,,,,,,413.7930538638029,None,1.0,1.110199809074402,413.7930538638029,None,413.7930538638029,None,413.7930538638029,None,1,2022_Apr_14_1419,Semantic-hierachy,2021.1.2,
95,Trial # 96,layer0-5_O7_to_O8.jpg,layer0-5/layer0-5_O7_to_O8.jpg,OO,layer0-5,0.0,95.0,95.0,95.0,,,,,,,,,415.2433665120043,None,1.0,2.32383531704545,415.2433665120043,None,415.2433665120043,None,415.2433665120043,None,1,2022_Apr_14_1419,Semantic-hierachy,2021.1.2,
96,Trial # 97,layer6-8_T10_to_T6.jpg,layer6-8/layer6-8_T10_to_T6.jpg,TT,layer6-8,0.0,96.0,96.0,96.0,,,,,,,,,418.3783380209934,None,4.0,4.85959346499294,418.3783380209934,None,418.3783380209934,None,418.3783380209934,None,1,2022_Apr_14_1419,Semantic-hierachy,2021.1.2,
97,Trial # 98,layer0-5_O1_to_O5.jpg,layer0-5/layer0-5_O1_to_O5.jpg,OO,layer0-5,0.0,97.0,97.0,97.0,,,,,,,,,423.41285893088207,None,1.0,3.271486646030098,423.41285893088207,None,423.41285893088207,None,423.41285893088207,None,1,2022_Apr_14_1419,Semantic-hierachy,2021.1.2,
98,Trial # 99,layer6-8_O1_to_O6.jpg,layer6-8/layer6-8_O1_to_O6.jpg,OO,layer6-8,0.0,98.0,98.0,98.0,,,,,,,,,426.9978558048606,None,4.0,4.889134094119072,426.9978558048606,None,426.9978558048606,None,426.9978558048606,None,1,2022_Apr_14_1419,Semantic-hierachy,2021.1.2,
99,Trial # 100,layer6-8_O3_to_T1.jpg,layer6-8/layer6-8_O3_to_T1.jpg,OT,layer6-8,0.0,99.0,99.0,99.0,,,,,,,,,432.0662637269125,None,3.0,2.6948318649083376,432.0662637269125,None,432.0662637269125,None,432.0662637269125,None,1,2022_Apr_14_1419,Semantic-hierachy,2021.1.2,
100,Trial # 101,layer6-8_T1_to_T9.jpg,layer6-8/layer6-8_T1_to_T9.jpg,TT,layer6-8,0.0,100.0,100.0,100.0,,,,,,,,,435.250086665852,None,4.0,4.424967224011198,435.250086665852,None,435.250086665852,None,435.250086665852,None,1,2022_Apr_14_1419,Semantic-hierachy,2021.1.2,
101,Trial # 102,layer9-17_O12_to_O6.jpg,layer9-17/layer9-17_O12_to_O6.jpg,OO,layer9-17,0.0,101.0,101.0,101.0,,,,,,,,,439.9673128977884,None,2.0,2.442099134903401,439.9673128977884,None,439.9673128977884,None,439.9673128977884,None,1,2022_Apr_14_1419,Semantic-hierachy,2021.1.2,
102,Trial # 103,layer0-5_T4_to_T9.jpg,layer0-5/layer0-5_T4_to_T9.jpg,TT,layer0-5,0.0,102.0,102.0,102.0,,,,,,,,,442.78655070392415,None,1.0,1.807135947979987,442.78655070392415,None,442.78655070392415,None,442.78655070392415,None,1,2022_Apr_14_1419,Semantic-hierachy,2021.1.2,
103,Trial # 104,layer6-8_O10_to_T1.jpg,layer6-8/layer6-8_O10_to_T1.jpg,OT,layer6-8,0.0,103.0,103.0,103.0,,,,,,,,,444.8694832317997,None,3.0,2.706854729913175,444.8694832317997,None,444.8694832317997,None,444.8694832317997,None,1,2022_Apr_14_1419,Semantic-hierachy,2021.1.2,
104,Trial # 105,layer0-5_O6_to_T2.jpg,layer0-5/layer0-5_O6_to_T2.jpg,OT,layer0-5,0.0,104.0,104.0,104.0,,,,,,,,,448.1534003769048,None,1.0,1.7590127950534225,448.1534003769048,None,448.1534003769048,None,448.1534003769048,None,1,2022_Apr_14_1419,Semantic-hierachy,2021.1.2,
105,Trial # 106,layer9-17_T11_to_T2.jpg,layer9-17/layer9-17_T11_to_T2.jpg,TT,layer9-17,0.0,105.0,105.0,105.0,,,,,,,,,450.1709858467802,None,2.0,1.6416353250388056,450.1709858467802,None,450.1709858467802,None,450.1709858467802,None,1,2022_Apr_14_1419,Semantic-hierachy,2021.1.2,
106,Trial # 107,layer9-17_O12_to_O8.jpg,layer9-17/layer9-17_O12_to_O8.jpg,OO,layer9-17,0.0,106.0,106.0,106.0,,,,,,,,,452.2389078519773,None,3.0,2.390228524804116,452.2389078519773,None,452.2389078519773,None,452.2389078519773,None,1,2022_Apr_14_1419,Semantic-hierachy,2021.1.2,
107,Trial # 108,layer0-5_T12_to_T3.jpg,layer0-5/layer0-5_T12_to_T3.jpg,TT,layer0-5,0.0,107.0,107.0,107.0,,,,,,,,,455.1055976478383,None,1.0,1.829900516895577,455.1055976478383,None,455.1055976478383,None,455.1055976478383,None,1,2022_Apr_14_1419,Semantic-hierachy,2021.1.2,
108,Trial # 109,layer0-5_T1_to_T10.jpg,layer0-5/layer0-5_T1_to_T10.jpg,TT,layer0-5,0.0,108.0,108.0,108.0,,,,,,,,,457.24063970986754,None,1.0,1.276366438018158,457.24063970986754,None,457.24063970986754,None,457.24063970986754,None,1,2022_Apr_14_1419,Semantic-hierachy,2021.1.2,
109,Trial # 110,layer6-8_O4_to_T5.jpg,layer6-8/layer6-8_O4_to_T5.jpg,OT,layer6-8,0.0,109.0,109.0,109.0,,,,,,,,,458.79036458791234,None,3.0,2.9457976140547544,458.79036458791234,None,458.79036458791234,None,458.79036458791234,None,1,2022_Apr_14_1419,Semantic-hierachy,2021.1.2,
110,Trial # 111,layer9-17_O11_to_O7.jpg,layer9-17/layer9-17_O11_to_O7.jpg,OO,layer9-17,0.0,110.0,110.0,110.0,,,,,,,,,461.9089019938838,None,2.0,5.41397529700771,461.9089019938838,None,461.9089019938838,None,461.9089019938838,None,1,2022_Apr_14_1419,Semantic-hierachy,2021.1.2,
111,Trial # 112,layer0-5_O5_to_O8.jpg,layer0-5/layer0-5_O5_to_O8.jpg,OO,layer0-5,0.0,111.0,111.0,111.0,,,,,,,,,468.52636459399946,None,1.0,2.361794676166028,468.52636459399946,None,468.52636459399946,None,468.52636459399946,None,1,2022_Apr_14_1419,Semantic-hierachy,2021.1.2,
112,Trial # 113,layer0-5_O10_to_O4.jpg,layer0-5/layer0-5_O10_to_O4.jpg,OO,layer0-5,0.0,112.0,112.0,112.0,,,,,,,,,471.4954782179557,None,1.0,1.1940259840339422,471.4954782179557,None,471.4954782179557,None,471.4954782179557,None,1,2022_Apr_14_1419,Semantic-hierachy,2021.1.2,
113,Trial # 114,layer9-17_O4_to_O8.jpg,layer9-17/layer9-17_O4_to_O8.jpg,OO,layer9-17,0.0,113.0,113.0,113.0,,,,,,,,,473.06222750386223,None,4.0,2.926723922835663,473.06222750386223,None,473.06222750386223,None,473.06222750386223,None,1,2022_Apr_14_1419,Semantic-hierachy,2021.1.2,
114,Trial # 115,layer0-5_O2_to_T8.jpg,layer0-5/layer0-5_O2_to_T8.jpg,OT,layer0-5,0.0,114.0,114.0,114.0,,,,,,,,,476.2958771837875,None,1.0,1.8076240078080448,476.2958771837875,None,476.2958771837875,None,476.2958771837875,None,1,2022_Apr_14_1419,Semantic-hierachy,2021.1.2,
115,Trial # 116,layer9-17_T2_to_T3.jpg,layer9-17/layer9-17_T2_to_T3.jpg,TT,layer9-17,0.0,115.0,115.0,115.0,,,,,,,,,478.5306200399064,None,2.0,2.091336381155997,478.5306200399064,None,478.5306200399064,None,478.5306200399064,None,1,2022_Apr_14_1419,Semantic-hierachy,2021.1.2,
116,Trial # 117,layer6-8_O1_to_T10.jpg,layer6-8/layer6-8_O1_to_T10.jpg,OT,layer6-8,0.0,116.0,116.0,116.0,,,,,,,,,482.0310955930036,None,3.0,2.038829947123304,482.0310955930036,None,482.0310955930036,None,482.0310955930036,None,1,2022_Apr_14_1419,Semantic-hierachy,2021.1.2,
117,Trial # 118,layer0-5_T3_to_T7.jpg,layer0-5/layer0-5_T3_to_T7.jpg,TT,layer0-5,0.0,117.0,117.0,117.0,,,,,,,,,484.2974343779497,None,1.0,1.6410676799714563,484.2974343779497,None,484.2974343779497,None,484.2974343779497,None,1,2022_Apr_14_1419,Semantic-hierachy,2021.1.2,
118,Trial # 119,layer9-17_O1_to_O12.jpg,layer9-17/layer9-17_O1_to_O12.jpg,OO,layer9-17,0.0,118.0,118.0,118.0,,,,,,,,,486.24903524294496,None,2.0,2.192711968906224,486.24903524294496,None,486.24903524294496,None,486.24903524294496,None,1,2022_Apr_14_1419,Semantic-hierachy,2021.1.2,
119,Trial # 120,layer6-8_O12_to_O2.jpg,layer6-8/layer6-8_O12_to_O2.jpg,OO,layer6-8,0.0,119.0,119.0,119.0,,,,,,,,,488.7166671718005,None,3.0,1.9124167680274693,488.7166671718005,None,488.7166671718005,None,488.7166671718005,None,1,2022_Apr_14_1419,Semantic-hierachy,2021.1.2,
120,Trial # 121,layer9-17_O10_to_O9.jpg,layer9-17/layer9-17_O10_to_O9.jpg,OO,layer9-17,0.0,120.0,120.0,120.0,,,,,,,,,490.98478568182327,None,2.0,1.6073271739296615,490.98478568182327,None,490.98478568182327,None,490.98478568182327,None,1,2022_Apr_14_1419,Semantic-hierachy,2021.1.2,
121,Trial # 122,layer6-8_O4_to_T10.jpg,layer6-8/layer6-8_O4_to_T10.jpg,OT,layer6-8,0.0,121.0,121.0,121.0,,,,,,,,,492.7842783478554,None,3.0,2.2063045769464225,492.7842783478554,None,492.7842783478554,None,492.7842783478554,None,1,2022_Apr_14_1419,Semantic-hierachy,2021.1.2,
122,Trial # 123,layer6-8_O2_to_T3.jpg,layer6-8/layer6-8_O2_to_T3.jpg,OT,layer6-8,0.0,122.0,122.0,122.0,,,,,,,,,495.2177562029101,None,3.0,2.4746847699861974,495.2177562029101,None,495.2177562029101,None,495.2177562029101,None,1,2022_Apr_14_1419,Semantic-hierachy,2021.1.2,
123,Trial # 124,layer0-5_O1_to_O7.jpg,layer0-5/layer0-5_O1_to_O7.jpg,OO,layer0-5,0.0,123.0,123.0,123.0,,,,,,,,,498.1191415609792,None,1.0,1.7216894540470091,498.1191415609792,None,498.1191415609792,None,498.1191415609792,None,1,2022_Apr_14_1419,Semantic-hierachy,2021.1.2,
124,Trial # 125,layer0-5_T8_to_T9.jpg,layer0-5/layer0-5_T8_to_T9.jpg,TT,layer0-5,0.0,124.0,124.0,124.0,,,,,,,,,500.0690645438153,None,1.0,1.6940924958325922,500.0690645438153,None,500.0690645438153,None,500.0690645438153,None,1,2022_Apr_14_1419,Semantic-hierachy,2021.1.2,
125,Trial # 126,layer0-5_O12_to_T8.jpg,layer0-5/layer0-5_O12_to_T8.jpg,OT,layer0-5,0.0,125.0,125.0,125.0,,,,,,,,,502.1046260888688,None,1.0,1.328310162993148,502.1046260888688,None,502.1046260888688,None,502.1046260888688,None,1,2022_Apr_14_1419,Semantic-hierachy,2021.1.2,
126,Trial # 127,layer9-17_O4_to_O6.jpg,layer9-17/layer9-17_O4_to_O6.jpg,OO,layer9-17,0.0,126.0,126.0,126.0,,,,,,,,,503.6878298919182,None,2.0,4.894671357935295,503.6878298919182,None,503.6878298919182,None,503.6878298919182,None,1,2022_Apr_14_1419,Semantic-hierachy,2021.1.2,
127,Trial # 128,layer6-8_O12_to_O6.jpg,layer6-8/layer6-8_O12_to_O6.jpg,OO,layer6-8,0.0,127.0,127.0,127.0,,,,,,,,,509.1560289459303,None,3.0,2.3291128799319267,509.1560289459303,None,509.1560289459303,None,509.1560289459303,None,1,2022_Apr_14_1419,Semantic-hierachy,2021.1.2,
128,Trial # 129,layer0-5_T4_to_T6.jpg,layer0-5/layer0-5_T4_to_T6.jpg,TT,layer0-5,0.0,128.0,128.0,128.0,,,,,,,,,511.7565261099953,None,1.0,2.7256798180751503,511.7565261099953,None,511.7565261099953,None,511.7565261099953,None,1,2022_Apr_14_1419,Semantic-hierachy,2021.1.2,
129,Trial # 130,layer9-17_O1_to_O3.jpg,layer9-17/layer9-17_O1_to_O3.jpg,OO,layer9-17,0.0,129.0,129.0,129.0,,,,,,,,,514.8069112179801,None,2.0,1.394029217073694,514.8069112179801,None,514.8069112179801,None,514.8069112179801,None,1,2022_Apr_14_1419,Semantic-hierachy,2021.1.2,
130,Trial # 131,layer9-17_O10_to_O3.jpg,layer9-17/layer9-17_O10_to_O3.jpg,OO,layer9-17,0.0,130.0,130.0,130.0,,,,,,,,,516.3753847868647,None,2.0,1.5417180901858956,516.3753847868647,None,516.3753847868647,None,516.3753847868647,None,1,2022_Apr_14_1419,Semantic-hierachy,2021.1.2,
131,Trial # 132,layer9-17_O12_to_O3.jpg,layer9-17/layer9-17_O12_to_O3.jpg,OO,layer9-17,0.0,131.0,131.0,131.0,,,,,,,,,518.1754566079471,None,2.0,1.011907245963812,518.1754566079471,None,518.1754566079471,None,518.1754566079471,None,1,2022_Apr_14_1419,Semantic-hierachy,2021.1.2,
132,Trial # 133,layer9-17_O11_to_O4.jpg,layer9-17/layer9-17_O11_to_O4.jpg,OO,layer9-17,0.0,132.0,132.0,132.0,,,,,,,,,519.625208905898,None,4.0,6.24639004888013,519.625208905898,None,519.625208905898,None,519.625208905898,None,1,2022_Apr_14_1419,Semantic-hierachy,2021.1.2,
133,Trial # 134,layer9-17_T4_to_T7.jpg,layer9-17/layer9-17_T4_to_T7.jpg,TT,layer9-17,0.0,133.0,133.0,133.0,,,,,,,,,526.7614399299491,None,2.0,3.306067458819598,526.7614399299491,None,526.7614399299491,None,526.7614399299491,None,1,2022_Apr_14_1419,Semantic-hierachy,2021.1.2,
134,Trial # 135,layer9-17_O1_to_T1.jpg,layer9-17/layer9-17_O1_to_T1.jpg,OT,layer9-17,0.0,134.0,134.0,134.0,,,,,,,,,530.4619076249655,None,2.0,1.8776026591658592,530.4619076249655,None,530.4619076249655,None,530.4619076249655,None,1,2022_Apr_14_1419,Semantic-hierachy,2021.1.2,
135,Trial # 136,layer6-8_T2_to_T5.jpg,layer6-8/layer6-8_T2_to_T5.jpg,TT,layer6-8,0.0,135.0,135.0,135.0,,,,,,,,,532.5635076619219,None,4.0,2.6362407670821995,532.5635076619219,None,532.5635076619219,None,532.5635076619219,None,1,2022_Apr_14_1419,Semantic-hierachy,2021.1.2,
136,Trial # 137,layer9-17_T11_to_T7.jpg,layer9-17/layer9-17_T11_to_T7.jpg,TT,layer9-17,0.0,136.0,136.0,136.0,,,,,,,,,535.7488399599679,None,2.0,2.0971082758624107,535.7488399599679,None,535.7488399599679,None,535.7488399599679,None,1,2022_Apr_14_1419,Semantic-hierachy,2021.1.2,
137,Trial # 138,layer6-8_O3_to_O8.jpg,layer6-8/layer6-8_O3_to_O8.jpg,OO,layer6-8,0.0,137.0,137.0,137.0,,,,,,,,,538.415630887961,None,2.0,2.343245771946385,538.415630887961,None,538.415630887961,None,538.415630887961,None,1,2022_Apr_14_1419,Semantic-hierachy,2021.1.2,
138,Trial # 139,layer6-8_O1_to_T7.jpg,layer6-8/layer6-8_O1_to_T7.jpg,OT,layer6-8,0.0,138.0,138.0,138.0,,,,,,,,,541.0163989257999,None,3.0,1.877660847036168,541.0163989257999,None,541.0163989257999,None,541.0163989257999,None,1,2022_Apr_14_1419,Semantic-hierachy,2021.1.2,
139,Trial # 140,layer9-17_T1_to_T3.jpg,layer9-17/layer9-17_T1_to_T3.jpg,TT,layer9-17,0.0,139.0,139.0,139.0,,,,,,,,,543.0331176589243,None,3.0,1.5460510849952698,543.0331176589243,None,543.0331176589243,None,543.0331176589243,None,1,2022_Apr_14_1419,Semantic-hierachy,2021.1.2,
140,Trial # 141,layer6-8_O10_to_O12.jpg,layer6-8/layer6-8_O10_to_O12.jpg,OO,layer6-8,0.0,140.0,140.0,140.0,,,,,,,,,545.8674117678311,None,3.0,1.859483529813588,545.8674117678311,None,545.8674117678311,None,545.8674117678311,None,1,2022_Apr_14_1419,Semantic-hierachy,2021.1.2,
141,Trial # 142,layer6-8_O12_to_T11.jpg,layer6-8/layer6-8_O12_to_T11.jpg,OT,layer6-8,0.0,141.0,141.0,141.0,,,,,,,,,548.1676766609307,None,3.0,7.414092357968911,548.1676766609307,None,548.1676766609307,None,548.1676766609307,None,1,2022_Apr_14_1419,Semantic-hierachy,2021.1.2,
142,Trial # 143,layer0-5_O11_to_O5.jpg,layer0-5/layer0-5_O11_to_O5.jpg,OO,layer0-5,0.0,142.0,142.0,142.0,,,,,,,,,557.3878228759859,None,1.0,1.60804214887321,557.3878228759859,None,557.3878228759859,None,557.3878228759859,None,1,2022_Apr_14_1419,Semantic-hierachy,2021.1.2,
143,Trial # 144,layer6-8_O1_to_O8.jpg,layer6-8/layer6-8_O1_to_O8.jpg,OO,layer6-8,0.0,143.0,143.0,143.0,,,,,,,,,559.3049055358861,None,2.0,2.3427725310903043,559.3049055358861,None,559.3049055358861,None,559.3049055358861,None,1,2022_Apr_14_1419,Semantic-hierachy,2021.1.2,
144,Trial # 145,layer0-5_T2_to_T5.jpg,layer0-5/layer0-5_T2_to_T5.jpg,TT,layer0-5,0.0,144.0,144.0,144.0,,,,,,,,,561.9557236109395,None,1.0,2.4079371572006494,561.9557236109395,None,561.9557236109395,None,561.9557236109395,None,1,2022_Apr_14_1419,Semantic-hierachy,2021.1.2,
145,Trial # 146,layer9-17_O8_to_T3.jpg,layer9-17/layer9-17_O8_to_T3.jpg,OT,layer9-17,0.0,145.0,145.0,145.0,,,,,,,,,564.6056385450065,None,2.0,1.563079196959734,564.6056385450065,None,564.6056385450065,None,564.6056385450065,None,1,2022_Apr_14_1419,Semantic-hierachy,2021.1.2,
146,Trial # 147,layer9-17_O8_to_T4.jpg,layer9-17/layer9-17_O8_to_T4.jpg,OT,layer9-17,0.0,146.0,146.0,146.0,,,,,,,,,566.424534789985,None,3.0,2.543735897867009,566.424534789985,None,566.424534789985,None,566.424534789985,None,1,2022_Apr_14_1419,Semantic-hierachy,2021.1.2,
147,Trial # 148,layer9-17_O4_to_T9.jpg,layer9-17/layer9-17_O4_to_T9.jpg,OT,layer9-17,0.0,147.0,147.0,147.0,,,,,,,,,569.257471280871,None,2.0,1.743043274153024,569.257471280871,None,569.257471280871,None,569.257471280871,None,1,2022_Apr_14_1419,Semantic-hierachy,2021.1.2,
148,Trial # 149,layer6-8_O4_to_O8.jpg,layer6-8/layer6-8_O4_to_O8.jpg,OO,layer6-8,0.0,148.0,148.0,148.0,,,,,,,,,571.2417231788859,None,2.0,2.709522183984518,571.2417231788859,None,571.2417231788859,None,571.2417231788859,None,1,2022_Apr_14_1419,Semantic-hierachy,2021.1.2,
149,Trial # 150,layer0-5_O12_to_T7.jpg,layer0-5/layer0-5_O12_to_T7.jpg,OT,layer0-5,0.0,149.0,149.0,149.0,,,,,,,,,574.3756092789117,None,1.0,1.663025134941563,574.3756092789117,None,574.3756092789117,None,574.3756092789117,None,1,2022_Apr_14_1419,Semantic-hierachy,2021.1.2,
150,Trial # 151,layer6-8_T1_to_T3.jpg,layer6-8/layer6-8_T1_to_T3.jpg,TT,layer6-8,,,,,0.0,0.0,0.0,0.0,,,,,578.2271057898179,None,3.0,4.789036339148879,578.2271057898179,None,578.2271057898179,None,578.2271057898179,None,1,2022_Apr_14_1419,Semantic-hierachy,2021.1.2,
151,Trial # 152,layer0-5_O8_to_O9.jpg,layer0-5/layer0-5_O8_to_O9.jpg,OO,layer0-5,,,,,0.0,1.0,1.0,1.0,,,,,583.2791829358321,None,1.0,2.823794221039861,583.2791829358321,None,583.2791829358321,None,583.2791829358321,None,1,2022_Apr_14_1419,Semantic-hierachy,2021.1.2,
152,Trial # 153,layer9-17_T1_to_T5.jpg,layer9-17/layer9-17_T1_to_T5.jpg,TT,layer9-17,,,,,0.0,2.0,2.0,2.0,,,,,586.3805513358675,None,2.0,1.695939752040431,586.3805513358675,None,586.3805513358675,None,586.3805513358675,None,1,2022_Apr_14_1419,Semantic-hierachy,2021.1.2,
153,Trial # 154,layer6-8_T7_to_T9.jpg,layer6-8/layer6-8_T7_to_T9.jpg,TT,layer6-8,,,,,0.0,3.0,3.0,3.0,,,,,588.31357323681,None,3.0,4.109491635812447,588.31357323681,None,588.31357323681,None,588.31357323681,None,1,2022_Apr_14_1419,Semantic-hierachy,2021.1.2,
154,Trial # 155,layer9-17_T12_to_T7.jpg,layer9-17/layer9-17_T12_to_T7.jpg,TT,layer9-17,,,,,0.0,4.0,4.0,4.0,,,,,592.6652530469,None,2.0,1.5600028887856752,592.6652530469,None,592.6652530469,None,592.6652530469,None,1,2022_Apr_14_1419,Semantic-hierachy,2021.1.2,
155,Trial # 156,layer0-5_O8_to_T11.jpg,layer0-5/layer0-5_O8_to_T11.jpg,OT,layer0-5,,,,,0.0,5.0,5.0,5.0,,,,,594.4819942619652,None,1.0,1.3448317209258676,594.4819942619652,None,594.4819942619652,None,594.4819942619652,None,1,2022_Apr_14_1419,Semantic-hierachy,2021.1.2,
156,Trial # 157,layer0-5_O1_to_O9.jpg,layer0-5/layer0-5_O1_to_O9.jpg,OO,layer0-5,,,,,0.0,6.0,6.0,6.0,,,,,596.0841476819478,None,1.0,2.611725771101192,596.0841476819478,None,596.0841476819478,None,596.0841476819478,None,1,2022_Apr_14_1419,Semantic-hierachy,2021.1.2,
157,Trial # 158,layer0-5_O10_to_O12.jpg,layer0-5/layer0-5_O10_to_O12.jpg,OO,layer0-5,,,,,0.0,7.0,7.0,7.0,,,,,598.967141012894,None,1.0,1.377475974848494,598.967141012894,None,598.967141012894,None,598.967141012894,None,1,2022_Apr_14_1419,Semantic-hierachy,2021.1.2,
158,Trial # 159,layer6-8_O10_to_T5.jpg,layer6-8/layer6-8_O10_to_T5.jpg,OT,layer6-8,,,,,0.0,8.0,8.0,8.0,,,,,600.5671682199463,None,3.0,1.839586892863736,600.5671682199463,None,600.5671682199463,None,600.5671682199463,None,1,2022_Apr_14_1419,Semantic-hierachy,2021.1.2,
159,Trial # 160,layer6-8_O5_to_O6.jpg,layer6-8/layer6-8_O5_to_O6.jpg,OO,layer6-8,,,,,0.0,9.0,9.0,9.0,,,,,602.6193016609177,None,4.0,2.2924894269090146,602.6193016609177,None,602.6193016609177,None,602.6193016609177,None,1,2022_Apr_14_1419,Semantic-hierachy,2021.1.2,
160,Trial # 161,layer6-8_O6_to_T11.jpg,layer6-8/layer6-8_O6_to_T11.jpg,OT,layer6-8,,,,,0.0,10.0,10.0,10.0,,,,,605.1186155069154,None,3.0,3.259715730091557,605.1186155069154,None,605.1186155069154,None,605.1186155069154,None,1,2022_Apr_14_1419,Semantic-hierachy,2021.1.2,
161,Trial # 162,layer9-17_O12_to_O9.jpg,layer9-17/layer9-17_O12_to_O9.jpg,OO,layer9-17,,,,,0.0,11.0,11.0,11.0,,,,,608.6363000019919,None,2.0,5.113546564010903,608.6363000019919,None,608.6363000019919,None,608.6363000019919,None,1,2022_Apr_14_1419,Semantic-hierachy,2021.1.2,
162,Trial # 163,layer6-8_O12_to_T6.jpg,layer6-8/layer6-8_O12_to_T6.jpg,OT,layer6-8,,,,,0.0,12.0,12.0,12.0,,,,,614.2391249558423,None,4.0,2.0614694871474057,614.2391249558423,None,614.2391249558423,None,614.2391249558423,None,1,2022_Apr_14_1419,Semantic-hierachy,2021.1.2,
163,Trial # 164,layer0-5_T11_to_T7.jpg,layer0-5/layer0-5_T11_to_T7.jpg,TT,layer0-5,,,,,0.0,13.0,13.0,13.0,,,,,616.8397069568746,None,1.0,3.896863296162337,616.8397069568746,None,616.8397069568746,None,616.8397069568746,None,1,2022_Apr_14_1419,Semantic-hierachy,2021.1.2,
164,Trial # 165,layer9-17_O10_to_T5.jpg,layer9-17/layer9-17_O10_to_T5.jpg,OT,layer9-17,,,,,0.0,14.0,14.0,14.0,,,,,621.4245836918708,None,4.0,7.222858484135941,621.4245836918708,None,621.4245836918708,None,621.4245836918708,None,1,2022_Apr_14_1419,Semantic-hierachy,2021.1.2,
165,Trial # 166,layer9-17_T1_to_T6.jpg,layer9-17/layer9-17_T1_to_T6.jpg,TT,layer9-17,,,,,0.0,15.0,15.0,15.0,,,,,629.360230901977,None,2.0,1.511000952217728,629.360230901977,None,629.360230901977,None,629.360230901977,None,1,2022_Apr_14_1419,Semantic-hierachy,2021.1.2,
166,Trial # 167,layer0-5_T1_to_T3.jpg,layer0-5/layer0-5_T1_to_T3.jpg,TT,layer0-5,,,,,0.0,16.0,16.0,16.0,,,,,631.144316987833,None,1.0,1.524272280978039,631.144316987833,None,631.144316987833,None,631.144316987833,None,1,2022_Apr_14_1419,Semantic-hierachy,2021.1.2,
167,Trial # 168,layer0-5_O2_to_O9.jpg,layer0-5/layer0-5_O2_to_O9.jpg,OO,layer0-5,,,,,0.0,17.0,17.0,17.0,,,,,633.0110717688221,None,1.0,1.512904602102935,633.0110717688221,None,633.0110717688221,None,633.0110717688221,None,1,2022_Apr_14_1419,Semantic-hierachy,2021.1.2,
168,Trial # 169,layer9-17_O3_to_T4.jpg,layer9-17/layer9-17_O3_to_T4.jpg,OT,layer9-17,,,,,0.0,18.0,18.0,18.0,,,,,634.84468126297,None,2.0,1.4266973740886897,634.84468126297,None,634.84468126297,None,634.84468126297,None,1,2022_Apr_14_1419,Semantic-hierachy,2021.1.2,
169,Trial # 170,layer6-8_O11_to_O9.jpg,layer6-8/layer6-8_O11_to_O9.jpg,OO,layer6-8,,,,,0.0,19.0,19.0,19.0,,,,,636.6125837368891,None,3.0,1.9079118941444904,636.6125837368891,None,636.6125837368891,None,636.6125837368891,None,1,2022_Apr_14_1419,Semantic-hierachy,2021.1.2,
170,Trial # 171,layer9-17_O1_to_O7.jpg,layer9-17/layer9-17_O1_to_O7.jpg,OO,layer9-17,,,,,0.0,20.0,20.0,20.0,,,,,639.4622288178653,None,4.0,10.145878101000562,639.4622288178653,None,639.4622288178653,None,639.4622288178653,None,1,2022_Apr_14_1419,Semantic-hierachy,2021.1.2,
171,Trial # 172,layer0-5_T12_to_T4.jpg,layer0-5/layer0-5_T12_to_T4.jpg,TT,layer0-5,,,,,0.0,21.0,21.0,21.0,,,,,649.9158516039606,None,1.0,1.7057858121115714,649.9158516039606,None,649.9158516039606,None,649.9158516039606,None,1,2022_Apr_14_1419,Semantic-hierachy,2021.1.2,
172,Trial # 173,layer0-5_O4_to_T4.jpg,layer0-5/layer0-5_O4_to_T4.jpg,OT,layer0-5,,,,,0.0,22.0,22.0,22.0,,,,,652.1180916649755,None,1.0,4.311937502818182,652.1180916649755,None,652.1180916649755,None,652.1180916649755,None,1,2022_Apr_14_1419,Semantic-hierachy,2021.1.2,
173,Trial # 174,layer6-8_T12_to_T5.jpg,layer6-8/layer6-8_T12_to_T5.jpg,TT,layer6-8,,,,,0.0,23.0,23.0,23.0,,,,,656.7689230008982,None,4.0,6.2955414350144565,656.7689230008982,None,656.7689230008982,None,656.7689230008982,None,1,2022_Apr_14_1419,Semantic-hierachy,2021.1.2,
174,Trial # 175,layer6-8_O11_to_T1.jpg,layer6-8/layer6-8_O11_to_T1.jpg,OT,layer6-8,,,,,0.0,24.0,24.0,24.0,,,,,663.7207632209174,None,4.0,3.278570076916367,663.7207632209174,None,663.7207632209174,None,663.7207632209174,None,1,2022_Apr_14_1419,Semantic-hierachy,2021.1.2,
175,Trial # 176,layer0-5_O7_to_T8.jpg,layer0-5/layer0-5_O7_to_T8.jpg,OT,layer0-5,,,,,0.0,25.0,25.0,25.0,,,,,668.1556532578543,None,1.0,2.577285978943109,668.1556532578543,None,668.1556532578543,None,668.1556532578543,None,1,2022_Apr_14_1419,Semantic-hierachy,2021.1.2,
176,Trial # 177,layer0-5_O11_to_T5.jpg,layer0-5/layer0-5_O11_to_T5.jpg,OT,layer0-5,,,,,0.0,26.0,26.0,26.0,,,,,670.9734335048124,None,1.0,2.129384271102026,670.9734335048124,None,670.9734335048124,None,670.9734335048124,None,1,2022_Apr_14_1419,Semantic-hierachy,2021.1.2,
177,Trial # 178,layer9-17_O2_to_T2.jpg,layer9-17/layer9-17_O2_to_T2.jpg,OT,layer9-17,,,,,0.0,27.0,27.0,27.0,,,,,675.1066502649337,None,4.0,3.278500718064606,675.1066502649337,None,675.1066502649337,None,675.1066502649337,None,1,2022_Apr_14_1419,Semantic-hierachy,2021.1.2,
178,Trial # 179,layer0-5_O4_to_T9.jpg,layer0-5/layer0-5_O4_to_T9.jpg,OT,layer0-5,,,,,0.0,28.0,28.0,28.0,,,,,678.6578441059683,None,1.0,1.724511805921793,678.6578441059683,None,678.6578441059683,None,678.6578441059683,None,1,2022_Apr_14_1419,Semantic-hierachy,2021.1.2,
179,Trial # 180,layer9-17_T6_to_T8.jpg,layer9-17/layer9-17_T6_to_T8.jpg,TT,layer9-17,,,,,0.0,29.0,29.0,29.0,,,,,680.6754177887924,None,2.0,1.478227708954364,680.6754177887924,None,680.6754177887924,None,680.6754177887924,None,1,2022_Apr_14_1419,Semantic-hierachy,2021.1.2,
180,Trial # 181,layer9-17_O12_to_O5.jpg,layer9-17/layer9-17_O12_to_O5.jpg,OO,layer9-17,,,,,0.0,30.0,30.0,30.0,,,,,682.4267073578667,None,2.0,1.4294009718578309,682.4267073578667,None,682.4267073578667,None,682.4267073578667,None,1,2022_Apr_14_1419,Semantic-hierachy,2021.1.2,
181,Trial # 182,layer6-8_O1_to_O7.jpg,layer6-8/layer6-8_O1_to_O7.jpg,OO,layer6-8,,,,,0.0,31.0,31.0,31.0,,,,,684.2929333299398,None,4.0,1.7103518890216949,684.2929333299398,None,684.2929333299398,None,684.2929333299398,None,1,2022_Apr_14_1419,Semantic-hierachy,2021.1.2,
182,Trial # 183,layer6-8_O3_to_T10.jpg,layer6-8/layer6-8_O3_to_T10.jpg,OT,layer6-8,,,,,0.0,32.0,32.0,32.0,,,,,686.2445338508114,None,3.0,2.27782966196537,686.2445338508114,None,686.2445338508114,None,686.2445338508114,None,1,2022_Apr_14_1419,Semantic-hierachy,2021.1.2,
183,Trial # 184,layer0-5_O1_to_T11.jpg,layer0-5/layer0-5_O1_to_T11.jpg,OT,layer0-5,,,,,0.0,33.0,33.0,33.0,,,,,688.8952974728309,None,1.0,1.7765427210833875,688.8952974728309,None,688.8952974728309,None,688.8952974728309,None,1,2022_Apr_14_1419,Semantic-hierachy,2021.1.2,
184,Trial # 185,layer6-8_O8_to_O9.jpg,layer6-8/layer6-8_O8_to_O9.jpg,OO,layer6-8,,,,,0.0,34.0,34.0,34.0,,,,,690.9622552318033,None,3.0,2.1113124799449,690.9622552318033,None,690.9622552318033,None,690.9622552318033,None,1,2022_Apr_14_1419,Semantic-hierachy,2021.1.2,
185,Trial # 186,layer9-17_O4_to_O9.jpg,layer9-17/layer9-17_O4_to_O9.jpg,OO,layer9-17,,,,,0.0,35.0,35.0,35.0,,,,,693.329856372904,None,4.0,1.5774122069124132,693.329856372904,None,693.329856372904,None,693.329856372904,None,1,2022_Apr_14_1419,Semantic-hierachy,2021.1.2,
186,Trial # 187,layer0-5_O12_to_O5.jpg,layer0-5/layer0-5_O12_to_O5.jpg,OO,layer0-5,,,,,0.0,36.0,36.0,36.0,,,,,695.0965027147904,None,1.0,1.947577269980684,695.0965027147904,None,695.0965027147904,None,695.0965027147904,None,1,2022_Apr_14_1419,Semantic-hierachy,2021.1.2,
187,Trial # 188,layer6-8_T12_to_T4.jpg,layer6-8/layer6-8_T12_to_T4.jpg,TT,layer6-8,,,,,0.0,37.0,37.0,37.0,,,,,697.3648420597892,None,4.0,2.9929015079978853,697.3648420597892,None,697.3648420597892,None,697.3648420597892,None,1,2022_Apr_14_1419,Semantic-hierachy,2021.1.2,
188,Trial # 189,layer0-5_T6_to_T8.jpg,layer0-5/layer0-5_T6_to_T8.jpg,TT,layer0-5,,,,,0.0,38.0,38.0,38.0,,,,,700.5811668129172,None,1.0,1.6941030318848789,700.5811668129172,None,700.5811668129172,None,700.5811668129172,None,1,2022_Apr_14_1419,Semantic-hierachy,2021.1.2,
189,Trial # 190,layer6-8_O11_to_T2.jpg,layer6-8/layer6-8_O11_to_T2.jpg,OT,layer6-8,,,,,0.0,39.0,39.0,39.0,,,,,702.5155752168503,None,3.0,3.0578589460346848,702.5155752168503,None,702.5155752168503,None,702.5155752168503,None,1,2022_Apr_14_1419,Semantic-hierachy,2021.1.2,
190,Trial # 191,layer6-8_O1_to_O3.jpg,layer6-8/layer6-8_O1_to_O3.jpg,OO,layer6-8,,,,,0.0,40.0,40.0,40.0,,,,,705.7503896539565,None,4.0,2.057780273957178,705.7503896539565,None,705.7503896539565,None,705.7503896539565,None,1,2022_Apr_14_1419,Semantic-hierachy,2021.1.2,
191,Trial # 192,layer0-5_O7_to_T1.jpg,layer0-5/layer0-5_O7_to_T1.jpg,OT,layer0-5,,,,,0.0,41.0,41.0,41.0,,,,,708.0678532398306,None,1.0,1.8407873129472136,708.0678532398306,None,708.0678532398306,None,708.0678532398306,None,1,2022_Apr_14_1419,Semantic-hierachy,2021.1.2,
192,Trial # 193,layer6-8_O3_to_T7.jpg,layer6-8/layer6-8_O3_to_T7.jpg,OT,layer6-8,,,,,0.0,42.0,42.0,42.0,,,,,710.1013302488718,None,3.0,2.095344264060259,710.1013302488718,None,710.1013302488718,None,710.1013302488718,None,1,2022_Apr_14_1419,Semantic-hierachy,2021.1.2,
193,Trial # 194,layer9-17_T10_to_T6.jpg,layer9-17/layer9-17_T10_to_T6.jpg,TT,layer9-17,,,,,0.0,43.0,43.0,43.0,,,,,712.5020963659044,None,2.0,1.5933708269149065,712.5020963659044,None,712.5020963659044,None,712.5020963659044,None,1,2022_Apr_14_1419,Semantic-hierachy,2021.1.2,
194,Trial # 195,layer6-8_T2_to_T9.jpg,layer6-8/layer6-8_T2_to_T9.jpg,TT,layer6-8,,,,,0.0,44.0,44.0,44.0,,,,,714.3528754957952,None,4.0,4.622811834095046,714.3528754957952,None,714.3528754957952,None,714.3528754957952,None,1,2022_Apr_14_1419,Semantic-hierachy,2021.1.2,
195,Trial # 196,layer0-5_O3_to_T3.jpg,layer0-5/layer0-5_O3_to_T3.jpg,OT,layer0-5,,,,,0.0,45.0,45.0,45.0,,,,,720.4371622479521,None,1.0,1.4570705401711166,720.4371622479521,None,720.4371622479521,None,720.4371622479521,None,1,2022_Apr_14_1419,Semantic-hierachy,2021.1.2,
196,Trial # 197,layer9-17_O1_to_O2.jpg,layer9-17/layer9-17_O1_to_O2.jpg,OO,layer9-17,,,,,0.0,46.0,46.0,46.0,,,,,722.0717614737805,None,4.0,3.49264447693713,722.0717614737805,None,722.0717614737805,None,722.0717614737805,None,1,2022_Apr_14_1419,Semantic-hierachy,2021.1.2,
197,Trial # 198,layer9-17_T2_to_T9.jpg,layer9-17/layer9-17_T2_to_T9.jpg,TT,layer9-17,,,,,0.0,47.0,47.0,47.0,,,,,725.790291220881,None,2.0,1.9599741569254547,725.790291220881,None,725.790291220881,None,725.790291220881,None,1,2022_Apr_14_1419,Semantic-hierachy,2021.1.2,
198,Trial # 199,layer9-17_O6_to_T10.jpg,layer9-17/layer9-17_O6_to_T10.jpg,OT,layer9-17,,,,,0.0,48.0,48.0,48.0,,,,,727.9897255229298,None,2.0,1.608570349868387,727.9897255229298,None,727.9897255229298,None,727.9897255229298,None,1,2022_Apr_14_1419,Semantic-hierachy,2021.1.2,
199,Trial # 200,layer0-5_T12_to_T5.jpg,layer0-5/layer0-5_T12_to_T5.jpg,TT,layer0-5,,,,,0.0,49.0,49.0,49.0,,,,,729.9069293867797,None,1.0,1.68570129503496,729.9069293867797,None,729.9069293867797,None,729.9069293867797,None,1,2022_Apr_14_1419,Semantic-hierachy,2021.1.2,
200,Trial # 201,layer0-5_O10_to_T10.jpg,layer0-5/layer0-5_O10_to_T10.jpg,OT,layer0-5,,,,,0.0,50.0,50.0,50.0,,,,,731.8420538718347,None,1.0,1.6599674390163273,731.8420538718347,None,731.8420538718347,None,731.8420538718347,None,1,2022_Apr_14_1419,Semantic-hierachy,2021.1.2,
201,Trial # 202,layer9-17_T11_to_T12.jpg,layer9-17/layer9-17_T11_to_T12.jpg,TT,layer9-17,,,,,0.0,51.0,51.0,51.0,,,,,733.7414825758897,None,2.0,1.8315972089767456,733.7414825758897,None,733.7414825758897,None,733.7414825758897,None,1,2022_Apr_14_1419,Semantic-hierachy,2021.1.2,
202,Trial # 203,layer6-8_T3_to_T5.jpg,layer6-8/layer6-8_T3_to_T5.jpg,TT,layer6-8,,,,,0.0,52.0,52.0,52.0,,,,,736.0773167298175,None,3.0,2.0943902740255,736.0773167298175,None,736.0773167298175,None,736.0773167298175,None,1,2022_Apr_14_1419,Semantic-hierachy,2021.1.2,
203,Trial # 204,layer0-5_O5_to_T10.jpg,layer0-5/layer0-5_O5_to_T10.jpg,OT,layer0-5,,,,,0.0,53.0,53.0,53.0,,,,,738.4266550338361,None,1.0,1.8614990077912807,738.4266550338361,None,738.4266550338361,None,738.4266550338361,None,1,2022_Apr_14_1419,Semantic-hierachy,2021.1.2,
204,Trial # 205,layer0-5_O10_to_O5.jpg,layer0-5/layer0-5_O10_to_O5.jpg,OO,layer0-5,,,,,0.0,54.0,54.0,54.0,,,,,740.576708951965,None,1.0,1.645622777985409,740.576708951965,None,740.576708951965,None,740.576708951965,None,1,2022_Apr_14_1419,Semantic-hierachy,2021.1.2,
205,Trial # 206,layer0-5_O5_to_O7.jpg,layer0-5/layer0-5_O5_to_O7.jpg,OO,layer0-5,,,,,0.0,55.0,55.0,55.0,,,,,742.4613368338905,None,1.0,1.4778062000405043,742.4613368338905,None,742.4613368338905,None,742.4613368338905,None,1,2022_Apr_14_1419,Semantic-hierachy,2021.1.2,
206,Trial # 207,layer0-5_O3_to_T10.jpg,layer0-5/layer0-5_O3_to_T10.jpg,OT,layer0-5,,,,,0.0,56.0,56.0,56.0,,,,,744.2118838559836,None,2.0,2.508114340947941,744.2118838559836,None,744.2118838559836,None,744.2118838559836,None,1,2022_Apr_14_1419,Semantic-hierachy,2021.1.2,
207,Trial # 208,layer0-5_O4_to_O5.jpg,layer0-5/layer0-5_O4_to_O5.jpg,OO,layer0-5,,,,,0.0,57.0,57.0,57.0,,,,,746.8965172979515,None,1.0,2.0885440511628985,746.8965172979515,None,746.8965172979515,None,746.8965172979515,None,1,2022_Apr_14_1419,Semantic-hierachy,2021.1.2,
208,Trial # 209,layer6-8_T12_to_T3.jpg,layer6-8/layer6-8_T12_to_T3.jpg,TT,layer6-8,,,,,0.0,58.0,58.0,58.0,,,,,749.2971070338972,None,4.0,2.579281324055046,749.2971070338972,None,749.2971070338972,None,749.2971070338972,None,1,2022_Apr_14_1419,Semantic-hierachy,2021.1.2,
209,Trial # 210,layer6-8_O7_to_T9.jpg,layer6-8/layer6-8_O7_to_T9.jpg,OT,layer6-8,,,,,0.0,59.0,59.0,59.0,,,,,752.2644401469734,None,4.0,1.6248702451121062,752.2644401469734,None,752.2644401469734,None,752.2644401469734,None,1,2022_Apr_14_1419,Semantic-hierachy,2021.1.2,
210,Trial # 211,layer6-8_O1_to_O11.jpg,layer6-8/layer6-8_O1_to_O11.jpg,OO,layer6-8,,,,,0.0,60.0,60.0,60.0,,,,,754.3645758507773,None,3.0,2.242752947146073,754.3645758507773,None,754.3645758507773,None,754.3645758507773,None,1,2022_Apr_14_1419,Semantic-hierachy,2021.1.2,
211,Trial # 212,layer6-8_T2_to_T6.jpg,layer6-8/layer6-8_T2_to_T6.jpg,TT,layer6-8,,,,,0.0,61.0,61.0,61.0,,,,,756.8663308178075,None,3.0,1.8727451029699296,756.8663308178075,None,756.8663308178075,None,756.8663308178075,None,1,2022_Apr_14_1419,Semantic-hierachy,2021.1.2,
212,Trial # 213,layer6-8_O10_to_O6.jpg,layer6-8/layer6-8_O10_to_O6.jpg,OO,layer6-8,,,,,0.0,62.0,62.0,62.0,,,,,760.5167517978698,None,3.0,1.910380613990128,760.5167517978698,None,760.5167517978698,None,760.5167517978698,None,1,2022_Apr_14_1419,Semantic-hierachy,2021.1.2,
213,Trial # 214,layer9-17_T5_to_T8.jpg,layer9-17/layer9-17_T5_to_T8.jpg,TT,layer9-17,,,,,0.0,63.0,63.0,63.0,,,,,762.5840614088811,None,2.0,1.2722310160752386,762.5840614088811,None,762.5840614088811,None,762.5840614088811,None,1,2022_Apr_14_1419,Semantic-hierachy,2021.1.2,
214,Trial # 215,layer9-17_O3_to_T10.jpg,layer9-17/layer9-17_O3_to_T10.jpg,OT,layer9-17,,,,,0.0,64.0,64.0,64.0,,,,,764.2681011548266,None,2.0,1.1748778270557525,764.2681011548266,None,764.2681011548266,None,764.2681011548266,None,1,2022_Apr_14_1419,Semantic-hierachy,2021.1.2,
215,Trial # 216,layer6-8_O12_to_O3.jpg,layer6-8/layer6-8_O12_to_O3.jpg,OO,layer6-8,,,,,0.0,65.0,65.0,65.0,,,,,765.7513362239115,None,4.0,3.745647130068392,765.7513362239115,None,765.7513362239115,None,765.7513362239115,None,1,2022_Apr_14_1419,Semantic-hierachy,2021.1.2,
216,Trial # 217,layer0-5_T10_to_T2.jpg,layer0-5/layer0-5_T10_to_T2.jpg,TT,layer0-5,,,,,0.0,66.0,66.0,66.0,,,,,769.7528217779472,None,1.0,3.2954453639686108,769.7528217779472,None,769.7528217779472,None,769.7528217779472,None,1,2022_Apr_14_1419,Semantic-hierachy,2021.1.2,
217,Trial # 218,layer9-17_O10_to_O6.jpg,layer9-17/layer9-17_O10_to_O6.jpg,OO,layer9-17,,,,,0.0,67.0,67.0,67.0,,,,,773.3375801998191,None,4.0,3.961130661889911,773.3375801998191,None,773.3375801998191,None,773.3375801998191,None,1,2022_Apr_14_1419,Semantic-hierachy,2021.1.2,
218,Trial # 219,layer6-8_O6_to_O9.jpg,layer6-8/layer6-8_O6_to_O9.jpg,OO,layer6-8,,,,,0.0,68.0,68.0,68.0,,,,,777.4718285778072,None,2.0,1.3865032601170242,777.4718285778072,None,777.4718285778072,None,777.4718285778072,None,1,2022_Apr_14_1419,Semantic-hierachy,2021.1.2,
219,Trial # 220,layer0-5_O7_to_T2.jpg,layer0-5/layer0-5_O7_to_T2.jpg,OT,layer0-5,,,,,0.0,69.0,69.0,69.0,,,,,779.7893425677903,None,1.0,1.4778549480251968,779.7893425677903,None,779.7893425677903,None,779.7893425677903,None,1,2022_Apr_14_1419,Semantic-hierachy,2021.1.2,
220,Trial # 221,layer9-17_T12_to_T2.jpg,layer9-17/layer9-17_T12_to_T2.jpg,TT,layer9-17,,,,,0.0,70.0,70.0,70.0,,,,,781.6067957659252,None,3.0,3.491230139043182,781.6067957659252,None,781.6067957659252,None,781.6067957659252,None,1,2022_Apr_14_1419,Semantic-hierachy,2021.1.2,
221,Trial # 222,layer9-17_O8_to_T11.jpg,layer9-17/layer9-17_O8_to_T11.jpg,OT,layer9-17,,,,,0.0,71.0,71.0,71.0,,,,,785.4579083949793,None,4.0,1.762119805905968,785.4579083949793,None,785.4579083949793,None,785.4579083949793,None,1,2022_Apr_14_1419,Semantic-hierachy,2021.1.2,
222,Trial # 223,layer6-8_O3_to_T9.jpg,layer6-8/layer6-8_O3_to_T9.jpg,OT,layer6-8,,,,,0.0,72.0,72.0,72.0,,,,,787.592053260887,None,3.0,2.009127713972702,787.592053260887,None,787.592053260887,None,787.592053260887,None,1,2022_Apr_14_1419,Semantic-hierachy,2021.1.2,
223,Trial # 224,layer0-5_O6_to_O9.jpg,layer0-5/layer0-5_O6_to_O9.jpg,OO,layer0-5,,,,,0.0,73.0,73.0,73.0,,,,,789.8757005007938,None,1.0,2.0578415649943054,789.8757005007938,None,789.8757005007938,None,789.8757005007938,None,1,2022_Apr_14_1419,Semantic-hierachy,2021.1.2,
224,Trial # 225,layer0-5_O12_to_T1.jpg,layer0-5/layer0-5_O12_to_T1.jpg,OT,layer0-5,,,,,0.0,74.0,74.0,74.0,,,,,792.2267344829161,None,1.0,1.996145823970437,792.2267344829161,None,792.2267344829161,None,792.2267344829161,None,1,2022_Apr_14_1419,Semantic-hierachy,2021.1.2,
225,Trial # 226,layer9-17_O2_to_T8.jpg,layer9-17/layer9-17_O2_to_T8.jpg,OT,layer9-17,,,,,0.0,75.0,75.0,75.0,,,,,794.4771315159742,None,2.0,1.995629875920713,794.4771315159742,None,794.4771315159742,None,794.4771315159742,None,1,2022_Apr_14_1419,Semantic-hierachy,2021.1.2,
226,Trial # 227,layer0-5_T4_to_T8.jpg,layer0-5/layer0-5_T4_to_T8.jpg,TT,layer0-5,,,,,0.0,76.0,76.0,76.0,,,,,796.7784934327938,None,1.0,2.041254192125052,796.7784934327938,None,796.7784934327938,None,796.7784934327938,None,1,2022_Apr_14_1419,Semantic-hierachy,2021.1.2,
227,Trial # 228,layer9-17_O2_to_T1.jpg,layer9-17/layer9-17_O2_to_T1.jpg,OT,layer9-17,,,,,0.0,77.0,77.0,77.0,,,,,799.0791004998609,None,2.0,3.228074184851721,799.0791004998609,None,799.0791004998609,None,799.0791004998609,None,1,2022_Apr_14_1419,Semantic-hierachy,2021.1.2,
228,Trial # 229,layer0-5_O11_to_O7.jpg,layer0-5/layer0-5_O11_to_O7.jpg,OO,layer0-5,,,,,0.0,78.0,78.0,78.0,,,,,802.547853166936,None,1.0,1.359689046163112,802.547853166936,None,802.547853166936,None,802.547853166936,None,1,2022_Apr_14_1419,Semantic-hierachy,2021.1.2,
229,Trial # 230,layer6-8_T2_to_T8.jpg,layer6-8/layer6-8_T2_to_T8.jpg,TT,layer6-8,,,,,0.0,79.0,79.0,79.0,,,,,804.2302058828063,None,3.0,2.894456412876025,804.2302058828063,None,804.2302058828063,None,804.2302058828063,None,1,2022_Apr_14_1419,Semantic-hierachy,2021.1.2,
230,Trial # 231,layer9-17_T4_to_T8.jpg,layer9-17/layer9-17_T4_to_T8.jpg,TT,layer9-17,,,,,0.0,80.0,80.0,80.0,,,,,807.465457823826,None,2.0,1.8743638498708608,807.465457823826,None,807.465457823826,None,807.465457823826,None,1,2022_Apr_14_1419,Semantic-hierachy,2021.1.2,
231,Trial # 232,layer9-17_T11_to_T3.jpg,layer9-17/layer9-17_T11_to_T3.jpg,TT,layer9-17,,,,,0.0,81.0,81.0,81.0,,,,,809.5657719369046,None,2.0,1.7594158288557082,809.5657719369046,None,809.5657719369046,None,809.5657719369046,None,1,2022_Apr_14_1419,Semantic-hierachy,2021.1.2,
232,Trial # 233,layer0-5_O3_to_T9.jpg,layer0-5/layer0-5_O3_to_T9.jpg,OT,layer0-5,,,,,0.0,82.0,82.0,82.0,,,,,811.7167424848303,None,1.0,1.7590632350184023,811.7167424848303,None,811.7167424848303,None,811.7167424848303,None,1,2022_Apr_14_1419,Semantic-hierachy,2021.1.2,
233,Trial # 234,layer9-17_T7_to_T8.jpg,layer9-17/layer9-17_T7_to_T8.jpg,TT,layer9-17,,,,,0.0,83.0,83.0,83.0,,,,,813.6994876288809,None,2.0,2.529163801809773,813.6994876288809,None,813.6994876288809,None,813.6994876288809,None,1,2022_Apr_14_1419,Semantic-hierachy,2021.1.2,
234,Trial # 235,layer9-17_O3_to_O4.jpg,layer9-17/layer9-17_O3_to_O4.jpg,OO,layer9-17,,,,,0.0,84.0,84.0,84.0,,,,,816.5187144468073,None,2.0,1.573766072979197,816.5187144468073,None,816.5187144468073,None,816.5187144468073,None,1,2022_Apr_14_1419,Semantic-hierachy,2021.1.2,
235,Trial # 236,layer6-8_O8_to_T6.jpg,layer6-8/layer6-8_O8_to_T6.jpg,OT,layer6-8,,,,,0.0,85.0,85.0,85.0,,,,,818.2843867279589,None,3.0,2.1242767779622227,818.2843867279589,None,818.2843867279589,None,818.2843867279589,None,1,2022_Apr_14_1419,Semantic-hierachy,2021.1.2,
236,Trial # 237,layer9-17_T6_to_T7.jpg,layer9-17/layer9-17_T6_to_T7.jpg,TT,layer9-17,,,,,0.0,86.0,86.0,86.0,,,,,820.6346056188922,None,2.0,1.5776447281241417,820.6346056188922,None,820.6346056188922,None,820.6346056188922,None,1,2022_Apr_14_1419,Semantic-hierachy,2021.1.2,
237,Trial # 238,layer0-5_T2_to_T9.jpg,layer0-5/layer0-5_T2_to_T9.jpg,TT,layer0-5,,,,,0.0,87.0,87.0,87.0,,,,,822.6033802749589,None,1.0,2.8405809830874205,822.6033802749589,None,822.6033802749589,None,822.6033802749589,None,1,2022_Apr_14_1419,Semantic-hierachy,2021.1.2,
238,Trial # 239,layer0-5_O2_to_O5.jpg,layer0-5/layer0-5_O2_to_O5.jpg,OO,layer0-5,,,,,0.0,88.0,88.0,88.0,,,,,826.0207551198546,None,1.0,1.4628410339355469,826.0207551198546,None,826.0207551198546,None,826.0207551198546,None,1,2022_Apr_14_1419,Semantic-hierachy,2021.1.2,
239,Trial # 240,layer6-8_O1_to_O5.jpg,layer6-8/layer6-8_O1_to_O5.jpg,OO,layer6-8,,,,,0.0,89.0,89.0,89.0,,,,,828.0208458658308,None,4.0,7.308286478975788,828.0208458658308,None,828.0208458658308,None,828.0208458658308,None,1,2022_Apr_14_1419,Semantic-hierachy,2021.1.2,
240,Trial # 241,layer9-17_O3_to_O7.jpg,layer9-17/layer9-17_O3_to_O7.jpg,OO,layer9-17,,,,,0.0,90.0,90.0,90.0,,,,,835.9571245538536,None,2.0,2.1765933248680085,835.9571245538536,None,835.9571245538536,None,835.9571245538536,None,1,2022_Apr_14_1419,Semantic-hierachy,2021.1.2,
241,Trial # 242,layer6-8_O11_to_O8.jpg,layer6-8/layer6-8_O11_to_O8.jpg,OO,layer6-8,,,,,0.0,91.0,91.0,91.0,,,,,838.4574038498104,None,1.0,1.3387639599386605,838.4574038498104,None,838.4574038498104,None,838.4574038498104,None,1,2022_Apr_14_1419,Semantic-hierachy,2021.1.2,
242,Trial # 243,layer9-17_T1_to_T12.jpg,layer9-17/layer9-17_T1_to_T12.jpg,TT,layer9-17,,,,,0.0,92.0,92.0,92.0,,,,,840.0412868109997,None,2.0,1.579648073995486,840.0412868109997,None,840.0412868109997,None,840.0412868109997,None,1,2022_Apr_14_1419,Semantic-hierachy,2021.1.2,
243,Trial # 244,layer9-17_O6_to_O8.jpg,layer9-17/layer9-17_O6_to_O8.jpg,OO,layer9-17,,,,,0.0,93.0,93.0,93.0,,,,,841.9423067618627,None,4.0,2.6873772728722543,841.9423067618627,None,841.9423067618627,None,841.9423067618627,None,1,2022_Apr_14_1419,Semantic-hierachy,2021.1.2,
244,Trial # 245,layer6-8_O4_to_T11.jpg,layer6-8/layer6-8_O4_to_T11.jpg,OT,layer6-8,,,,,0.0,94.0,94.0,94.0,,,,,845.1770036278758,None,3.0,2.240396020002663,845.1770036278758,None,845.1770036278758,None,845.1770036278758,None,1,2022_Apr_14_1419,Semantic-hierachy,2021.1.2,
245,Trial # 246,layer9-17_T10_to_T3.jpg,layer9-17/layer9-17_T10_to_T3.jpg,TT,layer9-17,,,,,0.0,95.0,95.0,95.0,,,,,847.6782244099304,None,2.0,2.326603509951383,847.6782244099304,None,847.6782244099304,None,847.6782244099304,None,1,2022_Apr_14_1419,Semantic-hierachy,2021.1.2,
246,Trial # 247,layer0-5_O10_to_O8.jpg,layer0-5/layer0-5_O10_to_O8.jpg,OO,layer0-5,,,,,0.0,96.0,96.0,96.0,,,,,850.3946230288129,None,1.0,2.177801915910095,850.3946230288129,None,850.3946230288129,None,850.3946230288129,None,1,2022_Apr_14_1419,Semantic-hierachy,2021.1.2,
247,Trial # 248,layer6-8_O3_to_T12.jpg,layer6-8/layer6-8_O3_to_T12.jpg,OT,layer6-8,,,,,0.0,97.0,97.0,97.0,,,,,852.828741597943,None,3.0,3.0375427938997746,852.828741597943,None,852.828741597943,None,852.828741597943,None,1,2022_Apr_14_1419,Semantic-hierachy,2021.1.2,
248,Trial # 249,layer0-5_O12_to_T9.jpg,layer0-5/layer0-5_O12_to_T9.jpg,OT,layer0-5,,,,,0.0,98.0,98.0,98.0,,,,,856.0964730340056,None,1.0,1.5620527549181134,856.0964730340056,None,856.0964730340056,None,856.0964730340056,None,1,2022_Apr_14_1419,Semantic-hierachy,2021.1.2,
249,Trial # 250,layer9-17_T1_to_T9.jpg,layer9-17/layer9-17_T1_to_T9.jpg,TT,layer9-17,,,,,0.0,99.0,99.0,99.0,,,,,857.9471897529438,None,4.0,2.254438368836418,857.9471897529438,None,857.9471897529438,None,857.9471897529438,None,1,2022_Apr_14_1419,Semantic-hierachy,2021.1.2,
250,Trial # 251,layer9-17_T11_to_T8.jpg,layer9-17/layer9-17_T11_to_T8.jpg,TT,layer9-17,,,,,0.0,100.0,100.0,100.0,,,,,860.4976777599659,None,2.0,8.745905624004081,860.4976777599659,None,860.4976777599659,None,860.4976777599659,None,1,2022_Apr_14_1419,Semantic-hierachy,2021.1.2,
251,Trial # 252,layer9-17_T11_to_T5.jpg,layer9-17/layer9-17_T11_to_T5.jpg,TT,layer9-17,,,,,0.0,101.0,101.0,101.0,,,,,869.5668646579143,None,4.0,4.980432990938425,869.5668646579143,None,869.5668646579143,None,869.5668646579143,None,1,2022_Apr_14_1419,Semantic-hierachy,2021.1.2,
252,Trial # 253,layer6-8_T10_to_T12.jpg,layer6-8/layer6-8_T10_to_T12.jpg,TT,layer6-8,,,,,0.0,102.0,102.0,102.0,,,,,874.835103305988,None,4.0,7.411900480976328,874.835103305988,None,874.835103305988,None,874.835103305988,None,1,2022_Apr_14_1419,Semantic-hierachy,2021.1.2,
253,Trial # 254,layer9-17_O5_to_T1.jpg,layer9-17/layer9-17_O5_to_T1.jpg,OT,layer9-17,,,,,0.0,103.0,103.0,103.0,,,,,882.5720604718663,None,2.0,2.172960896976292,882.5720604718663,None,882.5720604718663,None,882.5720604718663,None,1,2022_Apr_14_1419,Semantic-hierachy,2021.1.2,
254,Trial # 255,layer6-8_T2_to_T3.jpg,layer6-8/layer6-8_T2_to_T3.jpg,TT,layer6-8,,,,,0.0,104.0,104.0,104.0,,,,,885.2549556058366,None,3.0,4.313316022977233,885.2549556058366,None,885.2549556058366,None,885.2549556058366,None,1,2022_Apr_14_1419,Semantic-hierachy,2021.1.2,
255,Trial # 256,layer6-8_O2_to_T6.jpg,layer6-8/layer6-8_O2_to_T6.jpg,OT,layer6-8,,,,,0.0,105.0,105.0,105.0,,,,,890.2567303657997,None,3.0,1.7626373290549964,890.2567303657997,None,890.2567303657997,None,890.2567303657997,None,1,2022_Apr_14_1419,Semantic-hierachy,2021.1.2,
256,Trial # 257,layer6-8_T11_to_T9.jpg,layer6-8/layer6-8_T11_to_T9.jpg,TT,layer6-8,,,,,0.0,106.0,106.0,106.0,,,,,892.2743842347991,None,4.0,5.196155569050461,892.2743842347991,None,892.2743842347991,None,892.2743842347991,None,1,2022_Apr_14_1419,Semantic-hierachy,2021.1.2,
257,Trial # 258,layer6-8_O5_to_T9.jpg,layer6-8/layer6-8_O5_to_T9.jpg,OT,layer6-8,,,,,0.0,107.0,107.0,107.0,,,,,897.909154811874,None,3.0,3.2428621880244464,897.909154811874,None,897.909154811874,None,897.909154811874,None,1,2022_Apr_14_1419,Semantic-hierachy,2021.1.2,
258,Trial # 259,layer6-8_O9_to_T8.jpg,layer6-8/layer6-8_O9_to_T8.jpg,OT,layer6-8,,,,,0.0,108.0,108.0,108.0,,,,,901.5781329849268,None,3.0,2.21108568017371,901.5781329849268,None,901.5781329849268,None,901.5781329849268,None,1,2022_Apr_14_1419,Semantic-hierachy,2021.1.2,
259,Trial # 260,layer6-8_T1_to_T5.jpg,layer6-8/layer6-8_T1_to_T5.jpg,TT,layer6-8,,,,,0.0,109.0,109.0,109.0,,,,,904.5778021248988,None,3.0,3.603984400164336,904.5778021248988,None,904.5778021248988,None,904.5778021248988,None,1,2022_Apr_14_1419,Semantic-hierachy,2021.1.2,
260,Trial # 261,layer0-5_O11_to_T2.jpg,layer0-5/layer0-5_O11_to_T2.jpg,OT,layer0-5,,,,,0.0,110.0,110.0,110.0,,,,,909.213103187969,None,1.0,2.395946008851752,909.213103187969,None,909.213103187969,None,909.213103187969,None,1,2022_Apr_14_1419,Semantic-hierachy,2021.1.2,
261,Trial # 262,layer0-5_O7_to_T4.jpg,layer0-5/layer0-5_O7_to_T4.jpg,OT,layer0-5,,,,,0.0,111.0,111.0,111.0,,,,,911.9149093329906,None,1.0,1.2885064140427858,911.9149093329906,None,911.9149093329906,None,911.9149093329906,None,1,2022_Apr_14_1419,Semantic-hierachy,2021.1.2,
262,Trial # 263,layer6-8_T12_to_T8.jpg,layer6-8/layer6-8_T12_to_T8.jpg,TT,layer6-8,,,,,0.0,112.0,112.0,112.0,,,,,913.4303408658598,None,4.0,2.913232599850744,913.4303408658598,None,913.4303408658598,None,913.4303408658598,None,1,2022_Apr_14_1419,Semantic-hierachy,2021.1.2,
263,Trial # 264,layer6-8_O4_to_O9.jpg,layer6-8/layer6-8_O4_to_O9.jpg,OO,layer6-8,,,,,0.0,113.0,113.0,113.0,,,,,917.43276551296,None,4.0,3.0945519499946386,917.43276551296,None,917.43276551296,None,917.43276551296,None,1,2022_Apr_14_1419,Semantic-hierachy,2021.1.2,
264,Trial # 265,layer0-5_T1_to_T5.jpg,layer0-5/layer0-5_T1_to_T5.jpg,TT,layer0-5,,,,,0.0,114.0,114.0,114.0,,,,,920.8169054619502,None,1.0,2.0283371419645846,920.8169054619502,None,920.8169054619502,None,920.8169054619502,None,1,2022_Apr_14_1419,Semantic-hierachy,2021.1.2,
265,Trial # 266,layer0-5_O12_to_O7.jpg,layer0-5/layer0-5_O12_to_O7.jpg,OO,layer0-5,,,,,0.0,115.0,115.0,115.0,,,,,923.117262662854,None,1.0,1.396298025036231,923.117262662854,None,923.117262662854,None,923.117262662854,None,1,2022_Apr_14_1419,Semantic-hierachy,2021.1.2,
266,Trial # 267,layer6-8_T8_to_T9.jpg,layer6-8/layer6-8_T8_to_T9.jpg,TT,layer6-8,,,,,0.0,116.0,116.0,116.0,,,,,924.8676422068384,None,4.0,2.7625880900304765,924.8676422068384,None,924.8676422068384,None,924.8676422068384,None,1,2022_Apr_14_1419,Semantic-hierachy,2021.1.2,
267,Trial # 268,layer9-17_O11_to_T10.jpg,layer9-17/layer9-17_O11_to_T10.jpg,OT,layer9-17,,,,,0.0,117.0,117.0,117.0,,,,,928.3862542819696,None,2.0,1.577601858181879,928.3862542819696,None,928.3862542819696,None,928.3862542819696,None,1,2022_Apr_14_1419,Semantic-hierachy,2021.1.2,
268,Trial # 269,layer0-5_O8_to_T9.jpg,layer0-5/layer0-5_O8_to_T9.jpg,OT,layer0-5,,,,,0.0,118.0,118.0,118.0,,,,,930.286215107888,None,1.0,1.6126217930577695,930.286215107888,None,930.286215107888,None,930.286215107888,None,1,2022_Apr_14_1419,Semantic-hierachy,2021.1.2,
269,Trial # 270,layer9-17_O10_to_O11.jpg,layer9-17/layer9-17_O10_to_O11.jpg,OO,layer9-17,,,,,0.0,119.0,119.0,119.0,,,,,932.1203069868498,None,4.0,2.827297184849158,932.1203069868498,None,932.1203069868498,None,932.1203069868498,None,1,2022_Apr_14_1419,Semantic-hierachy,2021.1.2,
270,Trial # 271,layer0-5_T1_to_T9.jpg,layer0-5/layer0-5_T1_to_T9.jpg,TT,layer0-5,,,,,0.0,120.0,120.0,120.0,,,,,935.1377659388818,None,1.0,2.379934020107612,935.1377659388818,None,935.1377659388818,None,935.1377659388818,None,1,2022_Apr_14_1419,Semantic-hierachy,2021.1.2,
271,Trial # 272,layer6-8_T11_to_T8.jpg,layer6-8/layer6-8_T11_to_T8.jpg,TT,layer6-8,,,,,0.0,121.0,121.0,121.0,,,,,937.8056463319808,None,4.0,2.662049638107419,937.8056463319808,None,937.8056463319808,None,937.8056463319808,None,1,2022_Apr_14_1419,Semantic-hierachy,2021.1.2,
272,Trial # 273,layer9-17_O10_to_O12.jpg,layer9-17/layer9-17_O10_to_O12.jpg,OO,layer9-17,,,,,0.0,122.0,122.0,122.0,,,,,940.7057603728026,None,2.0,1.8461087860632688,940.7057603728026,None,940.7057603728026,None,940.7057603728026,None,1,2022_Apr_14_1419,Semantic-hierachy,2021.1.2,
273,Trial # 274,layer0-5_T12_to_T6.jpg,layer0-5/layer0-5_T12_to_T6.jpg,TT,layer0-5,,,,,0.0,123.0,123.0,123.0,,,,,943.257246678928,None,1.0,1.8434562638867649,943.257246678928,None,943.257246678928,None,943.257246678928,None,1,2022_Apr_14_1419,Semantic-hierachy,2021.1.2,
274,Trial # 275,layer9-17_O11_to_O5.jpg,layer9-17/layer9-17_O11_to_O5.jpg,OO,layer9-17,,,,,0.0,124.0,124.0,124.0,,,,,945.3241938198915,None,2.0,3.059180196141824,945.3241938198915,None,945.3241938198915,None,945.3241938198915,None,1,2022_Apr_14_1419,Semantic-hierachy,2021.1.2,
275,Trial # 276,layer9-17_O1_to_O4.jpg,layer9-17/layer9-17_O1_to_O4.jpg,OO,layer9-17,,,,,0.0,125.0,125.0,125.0,,,,,948.6085250438192,None,4.0,2.2087651828769594,948.6085250438192,None,948.6085250438192,None,948.6085250438192,None,1,2022_Apr_14_1419,Semantic-hierachy,2021.1.2,
276,Trial # 277,layer6-8_O11_to_O3.jpg,layer6-8/layer6-8_O11_to_O3.jpg,OO,layer6-8,,,,,0.0,126.0,126.0,126.0,,,,,951.0423207629938,None,4.0,1.7294478921685368,951.0423207629938,None,951.0423207629938,None,951.0423207629938,None,1,2022_Apr_14_1419,Semantic-hierachy,2021.1.2,
277,Trial # 278,layer6-8_T10_to_T11.jpg,layer6-8/layer6-8_T10_to_T11.jpg,TT,layer6-8,,,,,0.0,127.0,127.0,127.0,,,,,953.410267774947,None,4.0,1.4118460938334465,953.410267774947,None,953.410267774947,None,953.410267774947,None,1,2022_Apr_14_1419,Semantic-hierachy,2021.1.2,
278,Trial # 279,layer0-5_O7_to_T3.jpg,layer0-5/layer0-5_O7_to_T3.jpg,OT,layer0-5,,,,,0.0,128.0,128.0,128.0,,,,,955.3603113410064,None,1.0,1.9290747849736365,955.3603113410064,None,955.3603113410064,None,955.3603113410064,None,1,2022_Apr_14_1419,Semantic-hierachy,2021.1.2,
279,Trial # 280,layer9-17_T1_to_T10.jpg,layer9-17/layer9-17_T1_to_T10.jpg,TT,layer9-17,,,,,0.0,129.0,129.0,129.0,,,,,957.5279397459236,None,4.0,1.7120850840583444,957.5279397459236,None,957.5279397459236,None,957.5279397459236,None,1,2022_Apr_14_1419,Semantic-hierachy,2021.1.2,
280,Trial # 281,layer9-17_O6_to_T7.jpg,layer9-17/layer9-17_O6_to_T7.jpg,OT,layer9-17,,,,,0.0,130.0,130.0,130.0,,,,,959.7950228007976,None,2.0,1.7107327200938016,959.7950228007976,None,959.7950228007976,None,959.7950228007976,None,1,2022_Apr_14_1419,Semantic-hierachy,2021.1.2,
281,Trial # 282,layer0-5_O10_to_O7.jpg,layer0-5/layer0-5_O10_to_O7.jpg,OO,layer0-5,,,,,0.0,131.0,131.0,131.0,,,,,961.746439020848,None,1.0,1.760807793121785,961.746439020848,None,961.746439020848,None,961.746439020848,None,1,2022_Apr_14_1419,Semantic-hierachy,2021.1.2,
282,Trial # 283,layer0-5_O1_to_O11.jpg,layer0-5/layer0-5_O1_to_O11.jpg,OO,layer0-5,,,,,0.0,132.0,132.0,132.0,,,,,964.4964951148722,None,1.0,1.1934335159603506,964.4964951148722,None,964.4964951148722,None,964.4964951148722,None,1,2022_Apr_14_1419,Semantic-hierachy,2021.1.2,
283,Trial # 284,layer6-8_O7_to_O8.jpg,layer6-8/layer6-8_O7_to_O8.jpg,OO,layer6-8,,,,,0.0,133.0,133.0,133.0,,,,,965.896952355979,None,2.0,2.0460905639920384,965.896952355979,None,965.896952355979,None,965.896952355979,None,1,2022_Apr_14_1419,Semantic-hierachy,2021.1.2,
284,Trial # 285,layer0-5_T7_to_T8.jpg,layer0-5/layer0-5_T7_to_T8.jpg,TT,layer0-5,,,,,0.0,134.0,134.0,134.0,,,,,968.2473586159758,None,1.0,1.7432492629159242,968.2473586159758,None,968.2473586159758,None,968.2473586159758,None,1,2022_Apr_14_1419,Semantic-hierachy,2021.1.2,
285,Trial # 286,layer9-17_T11_to_T6.jpg,layer9-17/layer9-17_T11_to_T6.jpg,TT,layer9-17,,,,,0.0,135.0,135.0,135.0,,,,,970.2477548029274,None,4.0,1.9637161621358248,970.2477548029274,None,970.2477548029274,None,970.2477548029274,None,1,2022_Apr_14_1419,Semantic-hierachy,2021.1.2,
286,Trial # 287,layer0-5_T2_to_T7.jpg,layer0-5/layer0-5_T2_to_T7.jpg,TT,layer0-5,,,,,0.0,136.0,136.0,136.0,,,,,972.4833368938416,None,1.0,1.6252798039931804,972.4833368938416,None,972.4833368938416,None,972.4833368938416,None,1,2022_Apr_14_1419,Semantic-hierachy,2021.1.2,
287,Trial # 288,layer9-17_O10_to_O2.jpg,layer9-17/layer9-17_O10_to_O2.jpg,OO,layer9-17,,,,,0.0,137.0,137.0,137.0,,,,,974.3498607049696,None,2.0,1.8920581541024148,974.3498607049696,None,974.3498607049696,None,974.3498607049696,None,1,2022_Apr_14_1419,Semantic-hierachy,2021.1.2,
288,Trial # 289,layer0-5_T10_to_T9.jpg,layer0-5/layer0-5_T10_to_T9.jpg,TT,layer0-5,,,,,0.0,138.0,138.0,138.0,,,,,976.6003100730012,None,1.0,2.6436820831149817,976.6003100730012,None,976.6003100730012,None,976.6003100730012,None,1,2022_Apr_14_1419,Semantic-hierachy,2021.1.2,
289,Trial # 290,layer6-8_O11_to_O5.jpg,layer6-8/layer6-8_O11_to_O5.jpg,OO,layer6-8,,,,,0.0,139.0,139.0,139.0,,,,,979.7338647148572,None,2.0,2.2753165480680764,979.7338647148572,None,979.7338647148572,None,979.7338647148572,None,1,2022_Apr_14_1419,Semantic-hierachy,2021.1.2,
290,Trial # 291,layer6-8_O3_to_O7.jpg,layer6-8/layer6-8_O3_to_O7.jpg,OO,layer6-8,,,,,0.0,140.0,140.0,140.0,,,,,982.3020281819628,None,4.0,3.195056078955531,982.3020281819628,None,982.3020281819628,None,982.3020281819628,None,1,2022_Apr_14_1419,Semantic-hierachy,2021.1.2,
291,Trial # 292,layer9-17_O12_to_T11.jpg,layer9-17/layer9-17_O12_to_T11.jpg,OT,layer9-17,,,,,0.0,141.0,141.0,141.0,,,,,985.8709912539924,None,2.0,4.076351498952135,985.8709912539924,None,985.8709912539924,None,985.8709912539924,None,1,2022_Apr_14_1419,Semantic-hierachy,2021.1.2,
292,Trial # 293,layer9-17_O2_to_O4.jpg,layer9-17/layer9-17_O2_to_O4.jpg,OO,layer9-17,,,,,0.0,142.0,142.0,142.0,,,,,990.6046697208658,None,1.0,2.663356223143637,990.6046697208658,None,990.6046697208658,None,990.6046697208658,None,1,2022_Apr_14_1419,Semantic-hierachy,2021.1.2,
293,Trial # 294,layer6-8_O1_to_T12.jpg,layer6-8/layer6-8_O1_to_T12.jpg,OT,layer6-8,,,,,0.0,143.0,143.0,143.0,,,,,994.5891955439,None,3.0,3.895747530041264,994.5891955439,None,994.5891955439,None,994.5891955439,None,1,2022_Apr_14_1419,Semantic-hierachy,2021.1.2,
294,Trial # 295,layer9-17_O11_to_T5.jpg,layer9-17/layer9-17_O11_to_T5.jpg,OT,layer9-17,,,,,0.0,144.0,144.0,144.0,,,,,998.8400914168452,None,4.0,3.564856477081776,998.8400914168452,None,998.8400914168452,None,998.8400914168452,None,1,2022_Apr_14_1419,Semantic-hierachy,2021.1.2,
295,Trial # 296,layer0-5_O10_to_O9.jpg,layer0-5/layer0-5_O10_to_O9.jpg,OO,layer0-5,,,,,0.0,145.0,145.0,145.0,,,,,1002.6255136609544,None,1.0,1.9619933150243007,1002.6255136609544,None,1002.6255136609544,None,1002.6255136609544,None,1,2022_Apr_14_1419,Semantic-hierachy,2021.1.2,
296,Trial # 297,layer6-8_O12_to_T10.jpg,layer6-8/layer6-8_O12_to_T10.jpg,OT,layer6-8,,,,,0.0,146.0,146.0,146.0,,,,,1004.8251535128802,None,4.0,2.9150169629137963,1004.8251535128802,None,1004.8251535128802,None,1004.8251535128802,None,1,2022_Apr_14_1419,Semantic-hierachy,2021.1.2,
297,Trial # 298,layer6-8_O3_to_T2.jpg,layer6-8/layer6-8_O3_to_T2.jpg,OT,layer6-8,,,,,0.0,147.0,147.0,147.0,,,,,1008.260601516813,None,4.0,2.4790478199720383,1008.260601516813,None,1008.260601516813,None,1008.260601516813,None,1,2022_Apr_14_1419,Semantic-hierachy,2021.1.2,
298,Trial # 299,layer9-17_O2_to_T5.jpg,layer9-17/layer9-17_O2_to_T5.jpg,OT,layer9-17,,,,,0.0,148.0,148.0,148.0,,,,,1010.9951023180038,None,4.0,3.011122877011076,1010.9951023180038,None,1010.9951023180038,None,1010.9951023180038,None,1,2022_Apr_14_1419,Semantic-hierachy,2021.1.2,
299,Trial # 300,layer0-5_O3_to_T7.jpg,layer0-5/layer0-5_O3_to_T7.jpg,OT,layer0-5,,,,,0.0,149.0,149.0,149.0,,,,,1014.2281844548417,None,1.0,1.8092769619543103,1014.2281844548417,None,1014.2281844548417,None,1014.2281844548417,None,1,2022_Apr_14_1419,Semantic-hierachy,2021.1.2,
300,Trial # 301,layer9-17_O11_to_O6.jpg,layer9-17/layer9-17_O11_to_O6.jpg,OO,layer9-17,,,,,,,,,0.0,0.0,0.0,0.0,1019.7797675558832,None,4.0,7.112837721128017,1019.7797675558832,None,1019.7797675558832,None,1019.7797675558832,None,1,2022_Apr_14_1419,Semantic-hierachy,2021.1.2,
301,Trial # 302,layer0-5_O3_to_O7.jpg,layer0-5/layer0-5_O3_to_O7.jpg,OO,layer0-5,,,,,,,,,0.0,1.0,1.0,1.0,1027.1325106369331,None,1.0,2.0758822590578347,1027.1325106369331,None,1027.1325106369331,None,1027.1325106369331,None,1,2022_Apr_14_1419,Semantic-hierachy,2021.1.2,
302,Trial # 303,layer6-8_O11_to_T3.jpg,layer6-8/layer6-8_O11_to_T3.jpg,OT,layer6-8,,,,,,,,,0.0,2.0,2.0,2.0,1029.5331485588104,None,4.0,3.527940612053498,1029.5331485588104,None,1029.5331485588104,None,1029.5331485588104,None,1,2022_Apr_14_1419,Semantic-hierachy,2021.1.2,
303,Trial # 304,layer6-8_O2_to_T7.jpg,layer6-8/layer6-8_O2_to_T7.jpg,OT,layer6-8,,,,,,,,,0.0,3.0,3.0,3.0,1033.2841239029076,None,3.0,1.730228842003271,1033.2841239029076,None,1033.2841239029076,None,1033.2841239029076,None,1,2022_Apr_14_1419,Semantic-hierachy,2021.1.2,
304,Trial # 305,layer0-5_T1_to_T7.jpg,layer0-5/layer0-5_T1_to_T7.jpg,TT,layer0-5,,,,,,,,,0.0,4.0,4.0,4.0,1035.3517771409824,None,1.0,1.6454634140245616,1035.3517771409824,None,1035.3517771409824,None,1035.3517771409824,None,1,2022_Apr_14_1419,Semantic-hierachy,2021.1.2,
305,Trial # 306,layer6-8_O7_to_T11.jpg,layer6-8/layer6-8_O7_to_T11.jpg,OT,layer6-8,,,,,,,,,0.0,5.0,5.0,5.0,1037.369278856786,None,3.0,3.629056410863996,1037.369278856786,None,1037.369278856786,None,1037.369278856786,None,1,2022_Apr_14_1419,Semantic-hierachy,2021.1.2,
306,Trial # 307,layer9-17_O5_to_T5.jpg,layer9-17/layer9-17_O5_to_T5.jpg,OT,layer9-17,,,,,,,,,0.0,6.0,6.0,6.0,1042.538230344886,None,2.0,1.8229044429026544,1042.538230344886,None,1042.538230344886,None,1042.538230344886,None,1,2022_Apr_14_1419,Semantic-hierachy,2021.1.2,
307,Trial # 308,layer9-17_T12_to_T5.jpg,layer9-17/layer9-17_T12_to_T5.jpg,TT,layer9-17,,,,,,,,,0.0,7.0,7.0,7.0,1044.7879431308247,None,2.0,1.1406625639647243,1044.7879431308247,None,1044.7879431308247,None,1044.7879431308247,None,1,2022_Apr_14_1419,Semantic-hierachy,2021.1.2,
308,Trial # 309,layer6-8_O11_to_O2.jpg,layer6-8/layer6-8_O11_to_O2.jpg,OO,layer6-8,,,,,,,,,0.0,8.0,8.0,8.0,1046.1885904278606,None,2.0,0.945726128993556,1046.1885904278606,None,1046.1885904278606,None,1046.1885904278606,None,1,2022_Apr_14_1419,Semantic-hierachy,2021.1.2,
309,Trial # 310,layer6-8_O10_to_O7.jpg,layer6-8/layer6-8_O10_to_O7.jpg,OO,layer6-8,,,,,,,,,0.0,9.0,9.0,9.0,1047.5057358038612,None,2.0,1.091416577110067,1047.5057358038612,None,1047.5057358038612,None,1047.5057358038612,None,1,2022_Apr_14_1419,Semantic-hierachy,2021.1.2,
310,Trial # 311,layer9-17_O10_to_T11.jpg,layer9-17/layer9-17_O10_to_T11.jpg,OT,layer9-17,,,,,,,,,0.0,10.0,10.0,10.0,1048.8558054368475,None,3.0,3.2296659471467137,1048.8558054368475,None,1048.8558054368475,None,1048.8558054368475,None,1,2022_Apr_14_1419,Semantic-hierachy,2021.1.2,
311,Trial # 312,layer6-8_O11_to_O12.jpg,layer6-8/layer6-8_O11_to_O12.jpg,OO,layer6-8,,,,,,,,,0.0,11.0,11.0,11.0,1052.9414231178816,None,1.0,2.726863671094179,1052.9414231178816,None,1052.9414231178816,None,1052.9414231178816,None,1,2022_Apr_14_1419,Semantic-hierachy,2021.1.2,
312,Trial # 313,layer9-17_O9_to_T8.jpg,layer9-17/layer9-17_O9_to_T8.jpg,OT,layer9-17,,,,,,,,,0.0,12.0,12.0,12.0,1055.958195958985,None,4.0,2.826809050980956,1055.958195958985,None,1055.958195958985,None,1055.958195958985,None,1,2022_Apr_14_1419,Semantic-hierachy,2021.1.2,
313,Trial # 314,layer0-5_O3_to_T2.jpg,layer0-5/layer0-5_O3_to_T2.jpg,OT,layer0-5,,,,,,,,,0.0,13.0,13.0,13.0,1059.325925129,None,1.0,3.174263523891568,1059.325925129,None,1059.325925129,None,1059.325925129,None,1,2022_Apr_14_1419,Semantic-hierachy,2021.1.2,
314,Trial # 315,layer9-17_T1_to_T11.jpg,layer9-17/layer9-17_T1_to_T11.jpg,TT,layer9-17,,,,,,,,,0.0,14.0,14.0,14.0,1062.844398131827,None,2.0,2.074849182041362,1062.844398131827,None,1062.844398131827,None,1062.844398131827,None,1,2022_Apr_14_1419,Semantic-hierachy,2021.1.2,
315,Trial # 316,layer6-8_T10_to_T7.jpg,layer6-8/layer6-8_T10_to_T7.jpg,TT,layer6-8,,,,,,,,,0.0,15.0,15.0,15.0,1065.2599734428804,None,4.0,2.8111606671009213,1065.2599734428804,None,1065.2599734428804,None,1065.2599734428804,None,1,2022_Apr_14_1419,Semantic-hierachy,2021.1.2,
316,Trial # 317,layer0-5_T6_to_T7.jpg,layer0-5/layer0-5_T6_to_T7.jpg,TT,layer0-5,,,,,,,,,0.0,16.0,16.0,16.0,1068.4794864689466,None,1.0,2.0288673429749906,1068.4794864689466,None,1068.4794864689466,None,1068.4794864689466,None,1,2022_Apr_14_1419,Semantic-hierachy,2021.1.2,
317,Trial # 318,layer9-17_O1_to_T3.jpg,layer9-17/layer9-17_O1_to_T3.jpg,OT,layer9-17,,,,,,,,,0.0,17.0,17.0,17.0,1070.7288475118112,None,2.0,1.812579002929852,1070.7288475118112,None,1070.7288475118112,None,1070.7288475118112,None,1,2022_Apr_14_1419,Semantic-hierachy,2021.1.2,
318,Trial # 319,layer0-5_O2_to_T5.jpg,layer0-5/layer0-5_O2_to_T5.jpg,OT,layer0-5,,,,,,,,,0.0,18.0,18.0,18.0,1072.8307842109352,None,1.0,1.9752149600535631,1072.8307842109352,None,1072.8307842109352,None,1072.8307842109352,None,1,2022_Apr_14_1419,Semantic-hierachy,2021.1.2,
319,Trial # 320,layer6-8_O7_to_T10.jpg,layer6-8/layer6-8_O7_to_T10.jpg,OT,layer6-8,,,,,,,,,0.0,19.0,19.0,19.0,1075.0630896859802,None,3.0,1.979167954996228,1075.0630896859802,None,1075.0630896859802,None,1075.0630896859802,None,1,2022_Apr_14_1419,Semantic-hierachy,2021.1.2,
320,Trial # 321,layer0-5_O5_to_O6.jpg,layer0-5/layer0-5_O5_to_O6.jpg,OO,layer0-5,,,,,,,,,0.0,20.0,20.0,20.0,1077.3487627848515,None,1.0,2.274966391036287,1077.3487627848515,None,1077.3487627848515,None,1077.3487627848515,None,1,2022_Apr_14_1419,Semantic-hierachy,2021.1.2,
321,Trial # 322,layer9-17_O5_to_T4.jpg,layer9-17/layer9-17_O5_to_T4.jpg,OT,layer9-17,,,,,,,,,0.0,21.0,21.0,21.0,1079.8321070647798,None,2.0,1.543695033993572,1079.8321070647798,None,1079.8321070647798,None,1079.8321070647798,None,1,2022_Apr_14_1419,Semantic-hierachy,2021.1.2,
322,Trial # 323,layer0-5_T12_to_T2.jpg,layer0-5/layer0-5_T12_to_T2.jpg,TT,layer0-5,,,,,,,,,0.0,22.0,22.0,22.0,1081.599938524887,None,1.0,1.689369555097073,1081.599938524887,None,1081.599938524887,None,1081.599938524887,None,1,2022_Apr_14_1419,Semantic-hierachy,2021.1.2,
323,Trial # 324,layer0-5_O2_to_O4.jpg,layer0-5/layer0-5_O2_to_O4.jpg,OO,layer0-5,,,,,,,,,0.0,23.0,23.0,23.0,1083.8832666389644,None,1.0,1.3958821219857782,1083.8832666389644,None,1083.8832666389644,None,1083.8832666389644,None,1,2022_Apr_14_1419,Semantic-hierachy,2021.1.2,
324,Trial # 325,layer6-8_O1_to_O9.jpg,layer6-8/layer6-8_O1_to_O9.jpg,OO,layer6-8,,,,,,,,,0.0,24.0,24.0,24.0,1085.5667126229964,None,1.0,1.0267566959373653,1085.5667126229964,None,1085.5667126229964,None,1085.5667126229964,None,1,2022_Apr_14_1419,Semantic-hierachy,2021.1.2,
325,Trial # 326,layer0-5_T3_to_T5.jpg,layer0-5/layer0-5_T3_to_T5.jpg,TT,layer0-5,,,,,,,,,0.0,25.0,25.0,25.0,1086.9347996229772,None,1.0,1.7616028119809926,1086.9347996229772,None,1086.9347996229772,None,1086.9347996229772,None,1,2022_Apr_14_1419,Semantic-hierachy,2021.1.2,
326,Trial # 327,layer6-8_O8_to_T12.jpg,layer6-8/layer6-8_O8_to_T12.jpg,OT,layer6-8,,,,,,,,,0.0,26.0,26.0,26.0,1088.9676269288177,None,2.0,1.358141231816262,1088.9676269288177,None,1088.9676269288177,None,1088.9676269288177,None,1,2022_Apr_14_1419,Semantic-hierachy,2021.1.2,
327,Trial # 328,layer9-17_T11_to_T4.jpg,layer9-17/layer9-17_T11_to_T4.jpg,TT,layer9-17,,,,,,,,,0.0,27.0,27.0,27.0,1090.5689188779795,None,2.0,1.3653935210313648,1090.5689188779795,None,1090.5689188779795,None,1090.5689188779795,None,1,2022_Apr_14_1419,Semantic-hierachy,2021.1.2,
328,Trial # 329,layer9-17_O6_to_T2.jpg,layer9-17/layer9-17_O6_to_T2.jpg,OT,layer9-17,,,,,,,,,0.0,28.0,28.0,28.0,1092.1867016968315,None,2.0,1.288974050199613,1092.1867016968315,None,1092.1867016968315,None,1092.1867016968315,None,1,2022_Apr_14_1419,Semantic-hierachy,2021.1.2,
329,Trial # 330,layer9-17_T10_to_T9.jpg,layer9-17/layer9-17_T10_to_T9.jpg,TT,layer9-17,,,,,,,,,0.0,29.0,29.0,29.0,1093.6864055178594,None,2.0,1.2934055691584945,1093.6864055178594,None,1093.6864055178594,None,1093.6864055178594,None,1,2022_Apr_14_1419,Semantic-hierachy,2021.1.2,
330,Trial # 331,layer0-5_O2_to_O3.jpg,layer0-5/layer0-5_O2_to_O3.jpg,OO,layer0-5,,,,,,,,,0.0,30.0,30.0,30.0,1095.436281178845,None,1.0,2.1617679609917104,1095.436281178845,None,1095.436281178845,None,1095.436281178845,None,1,2022_Apr_14_1419,Semantic-hierachy,2021.1.2,
331,Trial # 332,layer6-8_O1_to_O12.jpg,layer6-8/layer6-8_O1_to_O12.jpg,OO,layer6-8,,,,,,,,,0.0,31.0,31.0,31.0,1097.8542279337998,None,1.0,0.9897923218086362,1097.8542279337998,None,1097.8542279337998,None,1097.8542279337998,None,1,2022_Apr_14_1419,Semantic-hierachy,2021.1.2,
332,Trial # 333,layer0-5_O5_to_T12.jpg,layer0-5/layer0-5_O5_to_T12.jpg,OT,layer0-5,,,,,,,,,0.0,32.0,32.0,32.0,1099.0884097339583,None,1.0,0.9963298831135036,1099.0884097339583,None,1099.0884097339583,None,1099.0884097339583,None,1,2022_Apr_14_1419,Semantic-hierachy,2021.1.2,
333,Trial # 334,layer9-17_O11_to_T6.jpg,layer9-17/layer9-17_O11_to_T6.jpg,OT,layer9-17,,,,,,,,,0.0,33.0,33.0,33.0,1100.4381441038568,None,4.0,2.8960356081370264,1100.4381441038568,None,1100.4381441038568,None,1100.4381441038568,None,1,2022_Apr_14_1419,Semantic-hierachy,2021.1.2,
334,Trial # 335,layer0-5_O4_to_T1.jpg,layer0-5/layer0-5_O4_to_T1.jpg,OT,layer0-5,,,,,,,,,0.0,34.0,34.0,34.0,1103.6897742408328,None,1.0,1.4945399281568823,1103.6897742408328,None,1103.6897742408328,None,1103.6897742408328,None,1,2022_Apr_14_1419,Semantic-hierachy,2021.1.2,
335,Trial # 336,layer6-8_T1_to_T6.jpg,layer6-8/layer6-8_T1_to_T6.jpg,TT,layer6-8,,,,,,,,,0.0,35.0,35.0,35.0,1105.4561960988212,None,4.0,4.546739069977775,1105.4561960988212,None,1105.4561960988212,None,1105.4561960988212,None,1,2022_Apr_14_1419,Semantic-hierachy,2021.1.2,
336,Trial # 337,layer0-5_O12_to_O6.jpg,layer0-5/layer0-5_O12_to_O6.jpg,OO,layer0-5,,,,,,,,,0.0,36.0,36.0,36.0,1111.1592565278988,None,1.0,1.5063106240704656,1111.1592565278988,None,1111.1592565278988,None,1111.1592565278988,None,1,2022_Apr_14_1419,Semantic-hierachy,2021.1.2,
337,Trial # 338,layer0-5_O1_to_O10.jpg,layer0-5/layer0-5_O1_to_O10.jpg,OO,layer0-5,,,,,,,,,0.0,37.0,37.0,37.0,1112.9097835128196,None,1.0,1.4108160200994462,1112.9097835128196,None,1112.9097835128196,None,1112.9097835128196,None,1,2022_Apr_14_1419,Semantic-hierachy,2021.1.2,
338,Trial # 339,layer0-5_O9_to_T9.jpg,layer0-5/layer0-5_O9_to_T9.jpg,OT,layer0-5,,,,,,,,,0.0,38.0,38.0,38.0,1114.559140616795,None,1.0,1.1415831740014255,1114.559140616795,None,1114.559140616795,None,1114.559140616795,None,1,2022_Apr_14_1419,Semantic-hierachy,2021.1.2,
339,Trial # 340,layer6-8_O6_to_T10.jpg,layer6-8/layer6-8_O6_to_T10.jpg,OT,layer6-8,,,,,,,,,0.0,39.0,39.0,39.0,1115.9610813439358,None,3.0,2.091536680003628,1115.9610813439358,None,1115.9610813439358,None,1115.9610813439358,None,1,2022_Apr_14_1419,Semantic-hierachy,2021.1.2,
340,Trial # 341,layer9-17_O3_to_T3.jpg,layer9-17/layer9-17_O3_to_T3.jpg,OT,layer9-17,,,,,,,,,0.0,40.0,40.0,40.0,1118.3775603279937,None,2.0,1.7394960839301348,1118.3775603279937,None,1118.3775603279937,None,1118.3775603279937,None,1,2022_Apr_14_1419,Semantic-hierachy,2021.1.2,
341,Trial # 342,layer0-5_O8_to_T8.jpg,layer0-5/layer0-5_O8_to_T8.jpg,OT,layer0-5,,,,,,,,,0.0,41.0,41.0,41.0,1120.444698237814,None,1.0,1.894498583860696,1120.444698237814,None,1120.444698237814,None,1120.444698237814,None,1,2022_Apr_14_1419,Semantic-hierachy,2021.1.2,
342,Trial # 343,layer9-17_O11_to_O3.jpg,layer9-17/layer9-17_O11_to_O3.jpg,OO,layer9-17,,,,,,,,,0.0,42.0,42.0,42.0,1122.5626710718498,None,2.0,1.4107646110933274,1122.5626710718498,None,1122.5626710718498,None,1122.5626710718498,None,1,2022_Apr_14_1419,Semantic-hierachy,2021.1.2,
343,Trial # 344,layer9-17_O10_to_T12.jpg,layer9-17/layer9-17_O10_to_T12.jpg,OT,layer9-17,,,,,,,,,0.0,43.0,43.0,43.0,1124.2132935128177,None,2.0,2.0754247321747243,1124.2132935128177,None,1124.2132935128177,None,1124.2132935128177,None,1,2022_Apr_14_1419,Semantic-hierachy,2021.1.2,
344,Trial # 345,layer6-8_T3_to_T6.jpg,layer6-8/layer6-8_T3_to_T6.jpg,TT,layer6-8,,,,,,,,,0.0,44.0,44.0,44.0,1126.629909267882,None,1.0,1.7939074549358338,1126.629909267882,None,1126.629909267882,None,1126.629909267882,None,1,2022_Apr_14_1419,Semantic-hierachy,2021.1.2,
345,Trial # 346,layer6-8_O1_to_O4.jpg,layer6-8/layer6-8_O1_to_O4.jpg,OO,layer6-8,,,,,,,,,0.0,45.0,45.0,45.0,1128.7306398479268,None,2.0,2.0547552600037307,1128.7306398479268,None,1128.7306398479268,None,1128.7306398479268,None,1,2022_Apr_14_1419,Semantic-hierachy,2021.1.2,
346,Trial # 347,layer0-5_O8_to_T3.jpg,layer0-5/layer0-5_O8_to_T3.jpg,OT,layer0-5,,,,,,,,,0.0,46.0,46.0,46.0,1131.3987827489618,None,1.0,1.5241265268996358,1131.3987827489618,None,1131.3987827489618,None,1131.3987827489618,None,1,2022_Apr_14_1419,Semantic-hierachy,2021.1.2,
347,Trial # 348,layer9-17_T2_to_T7.jpg,layer9-17/layer9-17_T2_to_T7.jpg,TT,layer9-17,,,,,,,,,0.0,47.0,47.0,47.0,1133.0993263309356,None,2.0,2.4118660141248256,1133.0993263309356,None,1133.0993263309356,None,1133.0993263309356,None,1,2022_Apr_14_1419,Semantic-hierachy,2021.1.2,
348,Trial # 349,layer0-5_O9_to_T4.jpg,layer0-5/layer0-5_O9_to_T4.jpg,OT,layer0-5,,,,,,,,,0.0,48.0,48.0,48.0,1135.7986579409337,None,1.0,2.4755880790762603,1135.7986579409337,None,1135.7986579409337,None,1135.7986579409337,None,1,2022_Apr_14_1419,Semantic-hierachy,2021.1.2,
349,Trial # 350,layer9-17_T12_to_T9.jpg,layer9-17/layer9-17_T12_to_T9.jpg,TT,layer9-17,,,,,,,,,0.0,49.0,49.0,49.0,1138.6176769707818,None,2.0,1.6881479190196842,1138.6176769707818,None,1138.6176769707818,None,1138.6176769707818,None,1,2022_Apr_14_1419,Semantic-hierachy,2021.1.2,
350,Trial # 351,layer6-8_O11_to_O6.jpg,layer6-8/layer6-8_O11_to_O6.jpg,OO,layer6-8,,,,,,,,,0.0,50.0,50.0,50.0,1140.8167051328346,None,2.0,1.0265873961616307,1140.8167051328346,None,1140.8167051328346,None,1140.8167051328346,None,1,2022_Apr_14_1419,Semantic-hierachy,2021.1.2,
351,Trial # 352,layer0-5_O10_to_O11.jpg,layer0-5/layer0-5_O10_to_O11.jpg,OO,layer0-5,,,,,,,,,0.0,51.0,51.0,51.0,1142.1351163447837,None,1.0,1.524404383962974,1142.1351163447837,None,1142.1351163447837,None,1142.1351163447837,None,1,2022_Apr_14_1419,Semantic-hierachy,2021.1.2,
352,Trial # 353,layer9-17_O4_to_T7.jpg,layer9-17/layer9-17_O4_to_T7.jpg,OT,layer9-17,,,,,,,,,0.0,52.0,52.0,52.0,1144.0521081318147,None,2.0,1.3074630398768932,1144.0521081318147,None,1144.0521081318147,None,1144.0521081318147,None,1,2022_Apr_14_1419,Semantic-hierachy,2021.1.2,
353,Trial # 354,layer0-5_O2_to_T11.jpg,layer0-5/layer0-5_O2_to_T11.jpg,OT,layer0-5,,,,,,,,,0.0,53.0,53.0,53.0,1145.652111763833,None,1.0,1.86397095117718,1145.652111763833,None,1145.652111763833,None,1145.652111763833,None,1,2022_Apr_14_1419,Semantic-hierachy,2021.1.2,
354,Trial # 355,layer9-17_O5_to_O6.jpg,layer9-17/layer9-17_O5_to_O6.jpg,OO,layer9-17,,,,,,,,,0.0,54.0,54.0,54.0,1147.8030163489748,None,2.0,1.3602111099753529,1147.8030163489748,None,1147.8030163489748,None,1147.8030163489748,None,1,2022_Apr_14_1419,Semantic-hierachy,2021.1.2,
355,Trial # 356,layer6-8_O5_to_T10.jpg,layer6-8/layer6-8_O5_to_T10.jpg,OT,layer6-8,,,,,,,,,0.0,55.0,55.0,55.0,1149.4534914609976,None,2.0,1.0613296669907868,1149.4534914609976,None,1149.4534914609976,None,1149.4534914609976,None,1,2022_Apr_14_1419,Semantic-hierachy,2021.1.2,
356,Trial # 357,layer6-8_T3_to_T4.jpg,layer6-8/layer6-8_T3_to_T4.jpg,TT,layer6-8,,,,,,,,,0.0,56.0,56.0,56.0,1150.8038400579244,None,4.0,2.2121781520545483,1150.8038400579244,None,1150.8038400579244,None,1150.8038400579244,None,1,2022_Apr_14_1419,Semantic-hierachy,2021.1.2,
357,Trial # 358,layer6-8_T4_to_T8.jpg,layer6-8/layer6-8_T4_to_T8.jpg,TT,layer6-8,,,,,,,,,0.0,57.0,57.0,57.0,1153.3056612238288,None,4.0,5.22441693698056,1153.3056612238288,None,1153.3056612238288,None,1153.3056612238288,None,1,2022_Apr_14_1419,Semantic-hierachy,2021.1.2,
358,Trial # 359,layer0-5_O2_to_T4.jpg,layer0-5/layer0-5_O2_to_T4.jpg,OT,layer0-5,,,,,,,,,0.0,58.0,58.0,58.0,1158.8736335258,None,1.0,2.362382279941812,1158.8736335258,None,1158.8736335258,None,1158.8736335258,None,1,2022_Apr_14_1419,Semantic-hierachy,2021.1.2,
359,Trial # 360,layer0-5_O4_to_O7.jpg,layer0-5/layer0-5_O4_to_O7.jpg,OO,layer0-5,,,,,,,,,0.0,59.0,59.0,59.0,1161.457517508883,None,1.0,1.4087542579509318,1161.457517508883,None,1161.457517508883,None,1161.457517508883,None,1,2022_Apr_14_1419,Semantic-hierachy,2021.1.2,
360,Trial # 361,layer9-17_O12_to_T7.jpg,layer9-17/layer9-17_O12_to_T7.jpg,OT,layer9-17,,,,,,,,,0.0,60.0,60.0,60.0,1163.540686103981,None,2.0,1.4437501160427928,1163.540686103981,None,1163.540686103981,None,1163.540686103981,None,1,2022_Apr_14_1419,Semantic-hierachy,2021.1.2,
361,Trial # 362,layer6-8_O11_to_T8.jpg,layer6-8/layer6-8_O11_to_T8.jpg,OT,layer6-8,,,,,,,,,0.0,61.0,61.0,61.0,1165.241553800879,None,3.0,1.6453039429616183,1165.241553800879,None,1165.241553800879,None,1165.241553800879,None,1,2022_Apr_14_1419,Semantic-hierachy,2021.1.2,
362,Trial # 363,layer9-17_O10_to_T6.jpg,layer9-17/layer9-17_O10_to_T6.jpg,OT,layer9-17,,,,,,,,,0.0,62.0,62.0,62.0,1167.1929739317857,None,3.0,1.7281673999968916,1167.1929739317857,None,1167.1929739317857,None,1167.1929739317857,None,1,2022_Apr_14_1419,Semantic-hierachy,2021.1.2,
363,Trial # 364,layer0-5_O5_to_T7.jpg,layer0-5/layer0-5_O5_to_T7.jpg,OT,layer0-5,,,,,,,,,0.0,63.0,63.0,63.0,1169.1768737039529,None,1.0,1.3927910891361537,1169.1768737039529,None,1169.1768737039529,None,1169.1768737039529,None,1,2022_Apr_14_1419,Semantic-hierachy,2021.1.2,
364,Trial # 365,layer9-17_O11_to_O2.jpg,layer9-17/layer9-17_O11_to_O2.jpg,OO,layer9-17,,,,,,,,,0.0,64.0,64.0,64.0,1170.7935207348785,None,2.0,2.875581349944696,1170.7935207348785,None,1170.7935207348785,None,1170.7935207348785,None,1,2022_Apr_14_1419,Semantic-hierachy,2021.1.2,
