,Trial_num,image_name,image_path,pair_type,layers,block1.thisRepN,block1.thisTrialN,block1.thisN,block1.thisIndex,block2.thisRepN,block2.thisTrialN,block2.thisN,block2.thisIndex,block3.thisRepN,block3.thisTrialN,block3.thisN,block3.thisIndex,image_8.started,image_8.stopped,selected_semantic.response,selected_semantic.rt,selected_semantic.started,selected_semantic.stopped,Instruction.started,Instruction.stopped,Trial_number.started,Trial_number.stopped,session,date,expName,psychopyVersion,Unnamed: 33
0,Trial # 1,layer0-5_O2_to_T1.jpg,layer0-5/layer0-5_O2_to_T1.jpg,OT,layer0-5,0.0,0.0,0.0,0.0,,,,,,,,,40.52225804980844,None,1.0,66.47383350599557,40.52225804980844,None,40.52225804980844,None,40.52225804980844,None,1,2022_Apr_26_1130,Semantic-hierachy,2021.1.2,
1,Trial # 2,layer0-5_O11_to_T7.jpg,layer0-5/layer0-5_O11_to_T7.jpg,OT,layer0-5,0.0,1.0,1.0,1.0,,,,,,,,,110.7933814097196,None,1.0,11.161661957856268,110.7933814097196,None,110.7933814097196,None,110.7933814097196,None,1,2022_Apr_26_1130,Semantic-hierachy,2021.1.2,
2,Trial # 3,layer6-8_O3_to_O5.jpg,layer6-8/layer6-8_O3_to_O5.jpg,OO,layer6-8,0.0,2.0,2.0,2.0,,,,,,,,,125.73179961368442,None,4.0,11.37685594568029,125.73179961368442,None,125.73179961368442,None,125.73179961368442,None,1,2022_Apr_26_1130,Semantic-hierachy,2021.1.2,
3,Trial # 4,layer6-8_O11_to_O4.jpg,layer6-8/layer6-8_O11_to_O4.jpg,OO,layer6-8,0.0,3.0,3.0,3.0,,,,,,,,,140.36913451412693,None,2.0,16.07559097511694,140.36913451412693,None,140.36913451412693,None,140.36913451412693,None,1,2022_Apr_26_1130,Semantic-hierachy,2021.1.2,
4,Trial # 5,layer6-8_O8_to_T8.jpg,layer6-8/layer6-8_O8_to_T8.jpg,OT,layer6-8,0.0,4.0,4.0,4.0,,,,,,,,,156.90733625972643,None,3.0,3.568774046842009,156.90733625972643,None,156.90733625972643,None,156.90733625972643,None,1,2022_Apr_26_1130,Semantic-hierachy,2021.1.2,
5,Trial # 6,layer0-5_O11_to_O8.jpg,layer0-5/layer0-5_O11_to_O8.jpg,OO,layer0-5,0.0,5.0,5.0,5.0,,,,,,,,,163.2941695698537,None,1.0,4.989961971994489,163.2941695698537,None,163.2941695698537,None,163.2941695698537,None,1,2022_Apr_26_1130,Semantic-hierachy,2021.1.2,
6,Trial # 7,layer0-5_T10_to_T11.jpg,layer0-5/layer0-5_T10_to_T11.jpg,TT,layer0-5,0.0,6.0,6.0,6.0,,,,,,,,,170.51151877688244,None,1.0,5.284399294760078,170.51151877688244,None,170.51151877688244,None,170.51151877688244,None,1,2022_Apr_26_1130,Semantic-hierachy,2021.1.2,
7,Trial # 8,layer9-17_O6_to_O9.jpg,layer9-17/layer9-17_O6_to_O9.jpg,OO,layer9-17,0.0,7.0,7.0,7.0,,,,,,,,,177.36430794605985,None,2.0,3.4867925317958,177.36430794605985,None,177.36430794605985,None,177.36430794605985,None,1,2022_Apr_26_1130,Semantic-hierachy,2021.1.2,
8,Trial # 9,layer6-8_O12_to_O9.jpg,layer6-8/layer6-8_O12_to_O9.jpg,OO,layer6-8,0.0,8.0,8.0,8.0,,,,,,,,,181.898485312704,None,3.0,3.609966653864831,181.898485312704,None,181.898485312704,None,181.898485312704,None,1,2022_Apr_26_1130,Semantic-hierachy,2021.1.2,
9,Trial # 10,layer0-5_O10_to_T2.jpg,layer0-5/layer0-5_O10_to_T2.jpg,OT,layer0-5,0.0,9.0,9.0,9.0,,,,,,,,,186.81707438267767,None,3.0,10.779106772970408,186.81707438267767,None,186.81707438267767,None,186.81707438267767,None,1,2022_Apr_26_1130,Semantic-hierachy,2021.1.2,
10,Trial # 11,layer9-17_T10_to_T2.jpg,layer9-17/layer9-17_T10_to_T2.jpg,TT,layer9-17,0.0,10.0,10.0,10.0,,,,,,,,,210.65747375087813,None,1.0,13.600005416199563,210.65747375087813,None,210.65747375087813,None,210.65747375087813,None,1,2022_Apr_26_1130,Semantic-hierachy,2021.1.2,
11,Trial # 12,layer6-8_T6_to_T7.jpg,layer6-8/layer6-8_T6_to_T7.jpg,TT,layer6-8,0.0,11.0,11.0,11.0,,,,,,,,,225.84674700396133,None,3.0,2.6864585797302425,225.84674700396133,None,225.84674700396133,None,225.84674700396133,None,1,2022_Apr_26_1130,Semantic-hierachy,2021.1.2,
12,Trial # 13,layer9-17_O10_to_T2.jpg,layer9-17/layer9-17_O10_to_T2.jpg,OT,layer9-17,0.0,12.0,12.0,12.0,,,,,,,,,230.74692032905293,None,2.0,1.9385493411682544,230.74692032905293,None,230.74692032905293,None,230.74692032905293,None,1,2022_Apr_26_1130,Semantic-hierachy,2021.1.2,
13,Trial # 14,layer6-8_T4_to_T7.jpg,layer6-8/layer6-8_T4_to_T7.jpg,TT,layer6-8,0.0,13.0,13.0,13.0,,,,,,,,,233.1973641570657,None,2.0,5.854890261776745,233.1973641570657,None,233.1973641570657,None,233.1973641570657,None,1,2022_Apr_26_1130,Semantic-hierachy,2021.1.2,
14,Trial # 15,layer9-17_O8_to_T2.jpg,layer9-17/layer9-17_O8_to_T2.jpg,OT,layer9-17,0.0,14.0,14.0,14.0,,,,,,,,,239.6175698498264,None,2.0,1.6672923900187016,239.6175698498264,None,239.6175698498264,None,239.6175698498264,None,1,2022_Apr_26_1130,Semantic-hierachy,2021.1.2,
15,Trial # 16,layer0-5_T6_to_T9.jpg,layer0-5/layer0-5_T6_to_T9.jpg,TT,layer0-5,0.0,15.0,15.0,15.0,,,,,,,,,242.4674610407092,None,1.0,2.5204653376713395,242.4674610407092,None,242.4674610407092,None,242.4674610407092,None,1,2022_Apr_26_1130,Semantic-hierachy,2021.1.2,
16,Trial # 17,layer0-5_O11_to_O12.jpg,layer0-5/layer0-5_O11_to_O12.jpg,OO,layer0-5,0.0,16.0,16.0,16.0,,,,,,,,,247.1194496108219,None,1.0,1.8544474067166448,247.1194496108219,None,247.1194496108219,None,247.1194496108219,None,1,2022_Apr_26_1130,Semantic-hierachy,2021.1.2,
17,Trial # 18,layer0-5_T11_to_T5.jpg,layer0-5/layer0-5_T11_to_T5.jpg,TT,layer0-5,0.0,17.0,17.0,17.0,,,,,,,,,250.0865717791021,None,1.0,2.6549040232785046,250.0865717791021,None,250.0865717791021,None,250.0865717791021,None,1,2022_Apr_26_1130,Semantic-hierachy,2021.1.2,
18,Trial # 19,layer0-5_O6_to_T12.jpg,layer0-5/layer0-5_O6_to_T12.jpg,OT,layer0-5,0.0,18.0,18.0,18.0,,,,,,,,,256.0878848130815,None,1.0,9.838308725971729,256.0878848130815,None,256.0878848130815,None,256.0878848130815,None,1,2022_Apr_26_1130,Semantic-hierachy,2021.1.2,
19,Trial # 20,layer6-8_T6_to_T8.jpg,layer6-8/layer6-8_T6_to_T8.jpg,TT,layer6-8,0.0,19.0,19.0,19.0,,,,,,,,,266.8917529219761,None,1.0,7.705588517244905,266.8917529219761,None,266.8917529219761,None,266.8917529219761,None,1,2022_Apr_26_1130,Semantic-hierachy,2021.1.2,
20,Trial # 21,layer9-17_T2_to_T5.jpg,layer9-17/layer9-17_T2_to_T5.jpg,TT,layer9-17,0.0,20.0,20.0,20.0,,,,,,,,,275.6108596660197,None,2.0,2.6697114631533623,275.6108596660197,None,275.6108596660197,None,275.6108596660197,None,1,2022_Apr_26_1130,Semantic-hierachy,2021.1.2,
21,Trial # 22,layer6-8_O2_to_O6.jpg,layer6-8/layer6-8_O2_to_O6.jpg,OO,layer6-8,0.0,21.0,21.0,21.0,,,,,,,,,279.5631011319347,None,2.0,43.26916859205812,279.5631011319347,None,279.5631011319347,None,279.5631011319347,None,1,2022_Apr_26_1130,Semantic-hierachy,2021.1.2,
22,Trial # 23,layer9-17_O3_to_T12.jpg,layer9-17/layer9-17_O3_to_T12.jpg,OT,layer9-17,0.0,22.0,22.0,22.0,,,,,,,,,323.45941190980375,None,2.0,1.7242103847675023,323.45941190980375,None,323.45941190980375,None,323.45941190980375,None,1,2022_Apr_26_1130,Semantic-hierachy,2021.1.2,
23,Trial # 24,layer0-5_O11_to_O3.jpg,layer0-5/layer0-5_O11_to_O3.jpg,OO,layer0-5,0.0,23.0,23.0,23.0,,,,,,,,,326.1270806789398,None,1.0,2.03944278229028,326.1270806789398,None,326.1270806789398,None,326.1270806789398,None,1,2022_Apr_26_1130,Semantic-hierachy,2021.1.2,
24,Trial # 25,layer6-8_O2_to_O9.jpg,layer6-8/layer6-8_O2_to_O9.jpg,OO,layer6-8,0.0,24.0,24.0,24.0,,,,,,,,,329.678807717748,None,4.0,3.3537913118489087,329.678807717748,None,329.678807717748,None,329.678807717748,None,1,2022_Apr_26_1130,Semantic-hierachy,2021.1.2,
25,Trial # 26,layer9-17_O10_to_O8.jpg,layer9-17/layer9-17_O10_to_O8.jpg,OO,layer9-17,0.0,25.0,25.0,25.0,,,,,,,,,334.42952352995053,None,2.0,8.676665801089257,334.42952352995053,None,334.42952352995053,None,334.42952352995053,None,1,2022_Apr_26_1130,Semantic-hierachy,2021.1.2,
26,Trial # 27,layer9-17_T4_to_T6.jpg,layer9-17/layer9-17_T4_to_T6.jpg,TT,layer9-17,0.0,26.0,26.0,26.0,,,,,,,,,344.10011895978823,None,2.0,1.9297361401841044,344.10011895978823,None,344.10011895978823,None,344.10011895978823,None,1,2022_Apr_26_1130,Semantic-hierachy,2021.1.2,
27,Trial # 28,layer6-8_O7_to_T8.jpg,layer6-8/layer6-8_O7_to_T8.jpg,OT,layer6-8,0.0,27.0,27.0,27.0,,,,,,,,,346.33288535289466,None,3.0,2.380495793186128,346.33288535289466,None,346.33288535289466,None,346.33288535289466,None,1,2022_Apr_26_1130,Semantic-hierachy,2021.1.2,
28,Trial # 29,layer6-8_T4_to_T5.jpg,layer6-8/layer6-8_T4_to_T5.jpg,TT,layer6-8,0.0,28.0,28.0,28.0,,,,,,,,,350.01784170186147,None,4.0,8.689445903990418,350.01784170186147,None,350.01784170186147,None,350.01784170186147,None,1,2022_Apr_26_1130,Semantic-hierachy,2021.1.2,
29,Trial # 30,layer6-8_T10_to_T9.jpg,layer6-8/layer6-8_T10_to_T9.jpg,TT,layer6-8,0.0,29.0,29.0,29.0,,,,,,,,,360.8872788497247,None,1.0,17.018386899959296,360.8872788497247,None,360.8872788497247,None,360.8872788497247,None,1,2022_Apr_26_1130,Semantic-hierachy,2021.1.2,
30,Trial # 31,layer9-17_O1_to_O8.jpg,layer9-17/layer9-17_O1_to_O8.jpg,OO,layer9-17,0.0,30.0,30.0,30.0,,,,,,,,,379.1432555080392,None,2.0,1.9211320648901165,379.1432555080392,None,379.1432555080392,None,379.1432555080392,None,1,2022_Apr_26_1130,Semantic-hierachy,2021.1.2,
31,Trial # 32,layer9-17_O12_to_O7.jpg,layer9-17/layer9-17_O12_to_O7.jpg,OO,layer9-17,0.0,31.0,31.0,31.0,,,,,,,,,381.593865850009,None,3.0,1.8848784756846728,381.593865850009,None,381.593865850009,None,381.593865850009,None,1,2022_Apr_26_1130,Semantic-hierachy,2021.1.2,
32,Trial # 33,layer9-17_T10_to_T12.jpg,layer9-17/layer9-17_T10_to_T12.jpg,TT,layer9-17,0.0,32.0,32.0,32.0,,,,,,,,,385.1623956100084,None,3.0,2.753378549125045,385.1623956100084,None,385.1623956100084,None,385.1623956100084,None,1,2022_Apr_26_1130,Semantic-hierachy,2021.1.2,
33,Trial # 34,layer0-5_T2_to_T6.jpg,layer0-5/layer0-5_T2_to_T6.jpg,TT,layer0-5,0.0,33.0,33.0,33.0,,,,,,,,,389.0129859028384,None,1.0,3.638879403937608,389.0129859028384,None,389.0129859028384,None,389.0129859028384,None,1,2022_Apr_26_1130,Semantic-hierachy,2021.1.2,
34,Trial # 35,layer6-8_T11_to_T2.jpg,layer6-8/layer6-8_T11_to_T2.jpg,TT,layer6-8,0.0,34.0,34.0,34.0,,,,,,,,,393.0306877279654,None,4.0,8.478017869405448,393.0306877279654,None,393.0306877279654,None,393.0306877279654,None,1,2022_Apr_26_1130,Semantic-hierachy,2021.1.2,
35,Trial # 36,layer6-8_O4_to_T3.jpg,layer6-8/layer6-8_O4_to_T3.jpg,OT,layer6-8,0.0,35.0,35.0,35.0,,,,,,,,,402.3832891751081,None,3.0,1.9891270962543783,402.3832891751081,None,402.3832891751081,None,402.3832891751081,None,1,2022_Apr_26_1130,Semantic-hierachy,2021.1.2,
36,Trial # 37,layer6-8_O3_to_T11.jpg,layer6-8/layer6-8_O3_to_T11.jpg,OT,layer6-8,0.0,36.0,36.0,36.0,,,,,,,,,405.70157321868464,None,3.0,3.485431408043951,405.70157321868464,None,405.70157321868464,None,405.70157321868464,None,1,2022_Apr_26_1130,Semantic-hierachy,2021.1.2,
37,Trial # 38,layer6-8_T1_to_T2.jpg,layer6-8/layer6-8_T1_to_T2.jpg,TT,layer6-8,0.0,37.0,37.0,37.0,,,,,,,,,409.83708274783567,None,4.0,9.041177911683915,409.83708274783567,None,409.83708274783567,None,409.83708274783567,None,1,2022_Apr_26_1130,Semantic-hierachy,2021.1.2,
38,Trial # 39,layer9-17_O2_to_O6.jpg,layer9-17/layer9-17_O2_to_O6.jpg,OO,layer9-17,0.0,38.0,38.0,38.0,,,,,,,,,423.1226882827468,None,4.0,3.540092609357089,423.1226882827468,None,423.1226882827468,None,423.1226882827468,None,1,2022_Apr_26_1130,Semantic-hierachy,2021.1.2,
39,Trial # 40,layer9-17_O4_to_T2.jpg,layer9-17/layer9-17_O4_to_T2.jpg,OT,layer9-17,0.0,39.0,39.0,39.0,,,,,,,,,427.8580832639709,None,2.0,3.993642578832805,427.8580832639709,None,427.8580832639709,None,427.8580832639709,None,1,2022_Apr_26_1130,Semantic-hierachy,2021.1.2,
40,Trial # 41,layer6-8_O5_to_T3.jpg,layer6-8/layer6-8_O5_to_T3.jpg,OT,layer6-8,0.0,40.0,40.0,40.0,,,,,,,,,432.8429661048576,None,3.0,3.516788387671113,432.8429661048576,None,432.8429661048576,None,432.8429661048576,None,1,2022_Apr_26_1130,Semantic-hierachy,2021.1.2,
41,Trial # 42,layer6-8_O2_to_O3.jpg,layer6-8/layer6-8_O2_to_O3.jpg,OO,layer6-8,0.0,41.0,41.0,41.0,,,,,,,,,437.6609175149352,None,4.0,2.94170362316072,437.6609175149352,None,437.6609175149352,None,437.6609175149352,None,1,2022_Apr_26_1130,Semantic-hierachy,2021.1.2,
42,Trial # 43,layer6-8_O1_to_T6.jpg,layer6-8/layer6-8_O1_to_T6.jpg,OT,layer6-8,0.0,42.0,42.0,42.0,,,,,,,,,441.3122251196765,None,3.0,2.239191897213459,441.3122251196765,None,441.3122251196765,None,441.3122251196765,None,1,2022_Apr_26_1130,Semantic-hierachy,2021.1.2,
43,Trial # 44,layer6-8_O2_to_T12.jpg,layer6-8/layer6-8_O2_to_T12.jpg,OT,layer6-8,0.0,43.0,43.0,43.0,,,,,,,,,445.4801259478554,None,3.0,1.973901611752808,445.4801259478554,None,445.4801259478554,None,445.4801259478554,None,1,2022_Apr_26_1130,Semantic-hierachy,2021.1.2,
44,Trial # 45,layer9-17_O2_to_O8.jpg,layer9-17/layer9-17_O2_to_O8.jpg,OO,layer9-17,0.0,44.0,44.0,44.0,,,,,,,,,451.081954031717,None,4.0,2.692089847754687,451.081954031717,None,451.081954031717,None,451.081954031717,None,1,2022_Apr_26_1130,Semantic-hierachy,2021.1.2,
45,Trial # 46,layer9-17_O10_to_O4.jpg,layer9-17/layer9-17_O10_to_O4.jpg,OO,layer9-17,0.0,45.0,45.0,45.0,,,,,,,,,454.9666257919744,None,3.0,3.2199531490914524,454.9666257919744,None,454.9666257919744,None,454.9666257919744,None,1,2022_Apr_26_1130,Semantic-hierachy,2021.1.2,
46,Trial # 47,layer0-5_O1_to_O4.jpg,layer0-5/layer0-5_O1_to_O4.jpg,OO,layer0-5,0.0,46.0,46.0,46.0,,,,,,,,,459.2192207048647,None,1.0,2.772743397857994,459.2192207048647,None,459.2192207048647,None,459.2192207048647,None,1,2022_Apr_26_1130,Semantic-hierachy,2021.1.2,
47,Trial # 48,layer0-5_T4_to_T5.jpg,layer0-5/layer0-5_T4_to_T5.jpg,TT,layer0-5,0.0,47.0,47.0,47.0,,,,,,,,,464.0370649280958,None,1.0,3.2872605910524726,464.0370649280958,None,464.0370649280958,None,464.0370649280958,None,1,2022_Apr_26_1130,Semantic-hierachy,2021.1.2,
48,Trial # 49,layer9-17_T12_to_T8.jpg,layer9-17/layer9-17_T12_to_T8.jpg,TT,layer9-17,0.0,48.0,48.0,48.0,,,,,,,,,469.4388781948946,None,2.0,2.753764317370951,469.4388781948946,None,469.4388781948946,None,469.4388781948946,None,1,2022_Apr_26_1130,Semantic-hierachy,2021.1.2,
49,Trial # 50,layer0-5_T10_to_T5.jpg,layer0-5/layer0-5_T10_to_T5.jpg,TT,layer0-5,0.0,49.0,49.0,49.0,,,,,,,,,473.0049806837924,None,1.0,2.92046871362254,473.0049806837924,None,473.0049806837924,None,473.0049806837924,None,1,2022_Apr_26_1130,Semantic-hierachy,2021.1.2,
50,Trial # 51,layer6-8_O10_to_O8.jpg,layer6-8/layer6-8_O10_to_O8.jpg,OO,layer6-8,0.0,50.0,50.0,50.0,,,,,,,,,477.5729629197158,None,3.0,4.170776323881,477.5729629197158,None,477.5729629197158,None,477.5729629197158,None,1,2022_Apr_26_1130,Semantic-hierachy,2021.1.2,
51,Trial # 52,layer9-17_O3_to_O5.jpg,layer9-17/layer9-17_O3_to_O5.jpg,OO,layer9-17,0.0,51.0,51.0,51.0,,,,,,,,,482.6751596517861,None,2.0,1.67017442593351,482.6751596517861,None,482.6751596517861,None,482.6751596517861,None,1,2022_Apr_26_1130,Semantic-hierachy,2021.1.2,
52,Trial # 53,layer6-8_T1_to_T12.jpg,layer6-8/layer6-8_T1_to_T12.jpg,TT,layer6-8,0.0,52.0,52.0,52.0,,,,,,,,,486.8096252917312,None,3.0,4.437364167999476,486.8096252917312,None,486.8096252917312,None,486.8096252917312,None,1,2022_Apr_26_1130,Semantic-hierachy,2021.1.2,
53,Trial # 54,layer0-5_O4_to_O9.jpg,layer0-5/layer0-5_O4_to_O9.jpg,OO,layer0-5,0.0,53.0,53.0,53.0,,,,,,,,,492.2447494957596,None,1.0,3.787985048256816,492.2447494957596,None,492.2447494957596,None,492.2447494957596,None,1,2022_Apr_26_1130,Semantic-hierachy,2021.1.2,
54,Trial # 55,layer0-5_O5_to_O9.jpg,layer0-5/layer0-5_O5_to_O9.jpg,OO,layer0-5,0.0,54.0,54.0,54.0,,,,,,,,,497.2466141297482,None,1.0,6.544871496036649,497.2466141297482,None,497.2466141297482,None,497.2466141297482,None,1,2022_Apr_26_1130,Semantic-hierachy,2021.1.2,
55,Trial # 56,layer0-5_O1_to_O2.jpg,layer0-5/layer0-5_O1_to_O2.jpg,OO,layer0-5,0.0,55.0,55.0,55.0,,,,,,,,,504.6986144748517,None,1.0,3.052715673111379,504.6986144748517,None,504.6986144748517,None,504.6986144748517,None,1,2022_Apr_26_1130,Semantic-hierachy,2021.1.2,
56,Trial # 57,layer9-17_T12_to_T3.jpg,layer9-17/layer9-17_T12_to_T3.jpg,TT,layer9-17,0.0,56.0,56.0,56.0,,,,,,,,,509.3833989389241,None,2.0,2.286847159732133,509.3833989389241,None,509.3833989389241,None,509.3833989389241,None,1,2022_Apr_26_1130,Semantic-hierachy,2021.1.2,
57,Trial # 58,layer0-5_O7_to_O9.jpg,layer0-5/layer0-5_O7_to_O9.jpg,OO,layer0-5,0.0,57.0,57.0,57.0,,,,,,,,,516.6199527201243,None,1.0,2.0219785100780427,516.6199527201243,None,516.6199527201243,None,516.6199527201243,None,1,2022_Apr_26_1130,Semantic-hierachy,2021.1.2,
58,Trial # 59,layer0-5_T5_to_T9.jpg,layer0-5/layer0-5_T5_to_T9.jpg,TT,layer0-5,0.0,58.0,58.0,58.0,,,,,,,,,519.3698012079112,None,1.0,1.925271192099899,519.3698012079112,None,519.3698012079112,None,519.3698012079112,None,1,2022_Apr_26_1130,Semantic-hierachy,2021.1.2,
59,Trial # 60,layer9-17_O1_to_O9.jpg,layer9-17/layer9-17_O1_to_O9.jpg,OO,layer9-17,0.0,59.0,59.0,59.0,,,,,,,,,522.0038993339986,None,4.0,20.329915896989405,522.0038993339986,None,522.0038993339986,None,522.0038993339986,None,1,2022_Apr_26_1130,Semantic-hierachy,2021.1.2,
60,Trial # 61,layer0-5_O6_to_O7.jpg,layer0-5/layer0-5_O6_to_O7.jpg,OO,layer0-5,0.0,60.0,60.0,60.0,,,,,,,,,543.4440149888396,None,1.0,2.555947430897504,543.4440149888396,None,543.4440149888396,None,543.4440149888396,None,1,2022_Apr_26_1130,Semantic-hierachy,2021.1.2,
61,Trial # 62,layer9-17_T5_to_T6.jpg,layer9-17/layer9-17_T5_to_T6.jpg,TT,layer9-17,0.0,61.0,61.0,61.0,,,,,,,,,546.8776955218054,None,2.0,2.49287281697616,546.8776955218054,None,546.8776955218054,None,546.8776955218054,None,1,2022_Apr_26_1130,Semantic-hierachy,2021.1.2,
62,Trial # 63,layer9-17_T4_to_T9.jpg,layer9-17/layer9-17_T4_to_T9.jpg,TT,layer9-17,0.0,62.0,62.0,62.0,,,,,,,,,551.7131156791002,None,2.0,1.6416510357521474,551.7131156791002,None,551.7131156791002,None,551.7131156791002,None,1,2022_Apr_26_1130,Semantic-hierachy,2021.1.2,
63,Trial # 64,layer0-5_O11_to_T1.jpg,layer0-5/layer0-5_O11_to_T1.jpg,OT,layer0-5,0.0,63.0,63.0,63.0,,,,,,,,,554.3817654559389,None,1.0,2.025447933934629,554.3817654559389,None,554.3817654559389,None,554.3817654559389,None,1,2022_Apr_26_1130,Semantic-hierachy,2021.1.2,
64,Trial # 65,layer6-8_T5_to_T9.jpg,layer6-8/layer6-8_T5_to_T9.jpg,TT,layer6-8,0.0,64.0,64.0,64.0,,,,,,,,,556.7812689300627,None,3.0,2.2703647310845554,556.7812689300627,None,556.7812689300627,None,556.7812689300627,None,1,2022_Apr_26_1130,Semantic-hierachy,2021.1.2,
65,Trial # 66,layer0-5_T4_to_T7.jpg,layer0-5/layer0-5_T4_to_T7.jpg,TT,layer0-5,0.0,65.0,65.0,65.0,,,,,,,,,559.4995120489039,None,1.0,2.205891548190266,559.4995120489039,None,559.4995120489039,None,559.4995120489039,None,1,2022_Apr_26_1130,Semantic-hierachy,2021.1.2,
66,Trial # 67,layer0-5_O2_to_O6.jpg,layer0-5/layer0-5_O2_to_O6.jpg,OO,layer0-5,0.0,66.0,66.0,66.0,,,,,,,,,562.6663382360712,None,1.0,2.2722333688288927,562.6663382360712,None,562.6663382360712,None,562.6663382360712,None,1,2022_Apr_26_1130,Semantic-hierachy,2021.1.2,
67,Trial # 68,layer9-17_O12_to_T3.jpg,layer9-17/layer9-17_O12_to_T3.jpg,OT,layer9-17,0.0,67.0,67.0,67.0,,,,,,,,,565.80109640304,None,2.0,1.7044383119791746,565.80109640304,None,565.80109640304,None,565.80109640304,None,1,2022_Apr_26_1130,Semantic-hierachy,2021.1.2,
68,Trial # 69,layer9-17_O7_to_O9.jpg,layer9-17/layer9-17_O7_to_O9.jpg,OO,layer9-17,0.0,68.0,68.0,68.0,,,,,,,,,568.1351509769447,None,4.0,2.7778958650305867,568.1351509769447,None,568.1351509769447,None,568.1351509769447,None,1,2022_Apr_26_1130,Semantic-hierachy,2021.1.2,
69,Trial # 70,layer9-17_T1_to_T8.jpg,layer9-17/layer9-17_T1_to_T8.jpg,TT,layer9-17,0.0,69.0,69.0,69.0,,,,,,,,,571.9364654179662,None,4.0,2.842345049139112,571.9364654179662,None,571.9364654179662,None,571.9364654179662,None,1,2022_Apr_26_1130,Semantic-hierachy,2021.1.2,
70,Trial # 71,layer0-5_O3_to_T8.jpg,layer0-5/layer0-5_O3_to_T8.jpg,OT,layer0-5,0.0,70.0,70.0,70.0,,,,,,,,,575.6705514178611,None,1.0,2.5938340933062136,575.6705514178611,None,575.6705514178611,None,575.6705514178611,None,1,2022_Apr_26_1130,Semantic-hierachy,2021.1.2,
71,Trial # 72,layer9-17_O9_to_T2.jpg,layer9-17/layer9-17_O9_to_T2.jpg,OT,layer9-17,0.0,71.0,71.0,71.0,,,,,,,,,578.672331742011,None,4.0,3.973830841016024,578.672331742011,None,578.672331742011,None,578.672331742011,None,1,2022_Apr_26_1130,Semantic-hierachy,2021.1.2,
72,Trial # 73,layer9-17_O5_to_O7.jpg,layer9-17/layer9-17_O5_to_O7.jpg,OO,layer9-17,0.0,72.0,72.0,72.0,,,,,,,,,583.3565624840558,None,2.0,2.126938328612596,583.3565624840558,None,583.3565624840558,None,583.3565624840558,None,1,2022_Apr_26_1130,Semantic-hierachy,2021.1.2,
73,Trial # 74,layer0-5_T11_to_T9.jpg,layer0-5/layer0-5_T11_to_T9.jpg,TT,layer0-5,0.0,73.0,73.0,73.0,,,,,,,,,586.6572314067744,None,1.0,2.211194296833128,586.6572314067744,None,586.6572314067744,None,586.6572314067744,None,1,2022_Apr_26_1130,Semantic-hierachy,2021.1.2,
74,Trial # 75,layer0-5_O11_to_T12.jpg,layer0-5/layer0-5_O11_to_T12.jpg,OT,layer0-5,0.0,74.0,74.0,74.0,,,,,,,,,589.2926619658247,None,1.0,1.606468555983156,589.2926619658247,None,589.2926619658247,None,589.2926619658247,None,1,2022_Apr_26_1130,Semantic-hierachy,2021.1.2,
75,Trial # 76,layer9-17_T7_to_T9.jpg,layer9-17/layer9-17_T7_to_T9.jpg,TT,layer9-17,0.0,75.0,75.0,75.0,,,,,,,,,591.1250316370279,None,4.0,4.543626388069242,591.1250316370279,None,591.1250316370279,None,591.1250316370279,None,1,2022_Apr_26_1130,Semantic-hierachy,2021.1.2,
76,Trial # 77,layer6-8_O6_to_T2.jpg,layer6-8/layer6-8_O6_to_T2.jpg,OT,layer6-8,0.0,76.0,76.0,76.0,,,,,,,,,596.1444012681022,None,4.0,4.106756251771003,596.1444012681022,None,596.1444012681022,None,596.1444012681022,None,1,2022_Apr_26_1130,Semantic-hierachy,2021.1.2,
77,Trial # 78,layer9-17_T4_to_T5.jpg,layer9-17/layer9-17_T4_to_T5.jpg,TT,layer9-17,0.0,77.0,77.0,77.0,,,,,,,,,600.6450176928192,None,4.0,2.490763464011252,600.6450176928192,None,600.6450176928192,None,600.6450176928192,None,1,2022_Apr_26_1130,Semantic-hierachy,2021.1.2,
78,Trial # 79,layer0-5_T2_to_T4.jpg,layer0-5/layer0-5_T2_to_T4.jpg,TT,layer0-5,0.0,78.0,78.0,78.0,,,,,,,,,603.4293688670732,None,1.0,2.142012686934322,603.4293688670732,None,603.4293688670732,None,603.4293688670732,None,1,2022_Apr_26_1130,Semantic-hierachy,2021.1.2,
79,Trial # 80,layer0-5_T2_to_T8.jpg,layer0-5/layer0-5_T2_to_T8.jpg,TT,layer0-5,0.0,79.0,79.0,79.0,,,,,,,,,605.7962105628103,None,1.0,1.2899957760237155,605.7962105628103,None,605.7962105628103,None,605.7962105628103,None,1,2022_Apr_26_1130,Semantic-hierachy,2021.1.2,
80,Trial # 81,layer9-17_T3_to_T9.jpg,layer9-17/layer9-17_T3_to_T9.jpg,TT,layer9-17,0.0,80.0,80.0,80.0,,,,,,,,,607.4629464317113,None,4.0,4.294058764819056,607.4629464317113,None,607.4629464317113,None,607.4629464317113,None,1,2022_Apr_26_1130,Semantic-hierachy,2021.1.2,
81,Trial # 82,layer9-17_O2_to_O5.jpg,layer9-17/layer9-17_O2_to_O5.jpg,OO,layer9-17,0.0,81.0,81.0,81.0,,,,,,,,,612.4652872839943,None,2.0,3.0861155297607183,612.4652872839943,None,612.4652872839943,None,612.4652872839943,None,1,2022_Apr_26_1130,Semantic-hierachy,2021.1.2,
82,Trial # 83,layer6-8_O6_to_O7.jpg,layer6-8/layer6-8_O6_to_O7.jpg,OO,layer6-8,0.0,82.0,82.0,82.0,,,,,,,,,615.9658023971133,None,4.0,2.289820867124945,615.9658023971133,None,615.9658023971133,None,615.9658023971133,None,1,2022_Apr_26_1130,Semantic-hierachy,2021.1.2,
83,Trial # 84,layer9-17_O11_to_T1.jpg,layer9-17/layer9-17_O11_to_T1.jpg,OT,layer9-17,0.0,83.0,83.0,83.0,,,,,,,,,618.5683876220137,None,2.0,2.3593705748207867,618.5683876220137,None,618.5683876220137,None,618.5683876220137,None,1,2022_Apr_26_1130,Semantic-hierachy,2021.1.2,
84,Trial # 85,layer6-8_O5_to_T12.jpg,layer6-8/layer6-8_O5_to_T12.jpg,OT,layer6-8,0.0,84.0,84.0,84.0,,,,,,,,,621.2680493299849,None,3.0,1.9919691840186715,621.2680493299849,None,621.2680493299849,None,621.2680493299849,None,1,2022_Apr_26_1130,Semantic-hierachy,2021.1.2,
85,Trial # 86,layer6-8_O4_to_O7.jpg,layer6-8/layer6-8_O4_to_O7.jpg,OO,layer6-8,0.0,85.0,85.0,85.0,,,,,,,,,624.2197867217474,None,4.0,6.742709632962942,624.2197867217474,None,624.2197867217474,None,624.2197867217474,None,1,2022_Apr_26_1130,Semantic-hierachy,2021.1.2,
86,Trial # 87,layer6-8_T10_to_T8.jpg,layer6-8/layer6-8_T10_to_T8.jpg,TT,layer6-8,0.0,86.0,86.0,86.0,,,,,,,,,631.3043743991293,None,2.0,2.271150672808289,631.3043743991293,None,631.3043743991293,None,631.3043743991293,None,1,2022_Apr_26_1130,Semantic-hierachy,2021.1.2,
87,Trial # 88,layer6-8_O10_to_T3.jpg,layer6-8/layer6-8_O10_to_T3.jpg,OT,layer6-8,0.0,87.0,87.0,87.0,,,,,,,,,634.0223092860542,None,3.0,3.2453902321867645,634.0223092860542,None,634.0223092860542,None,634.0223092860542,None,1,2022_Apr_26_1130,Semantic-hierachy,2021.1.2,
88,Trial # 89,layer6-8_O5_to_O9.jpg,layer6-8/layer6-8_O5_to_O9.jpg,OO,layer6-8,0.0,88.0,88.0,88.0,,,,,,,,,637.5399263128638,None,4.0,7.177191614173353,637.5399263128638,None,637.5399263128638,None,637.5399263128638,None,1,2022_Apr_26_1130,Semantic-hierachy,2021.1.2,
89,Trial # 90,layer6-8_O10_to_O11.jpg,layer6-8/layer6-8_O10_to_O11.jpg,OO,layer6-8,0.0,89.0,89.0,89.0,,,,,,,,,645.0084483199753,None,3.0,41.22373278997839,645.0084483199753,None,645.0084483199753,None,645.0084483199753,None,1,2022_Apr_26_1130,Semantic-hierachy,2021.1.2,
90,Trial # 91,layer0-5_O4_to_T5.jpg,layer0-5/layer0-5_O4_to_T5.jpg,OT,layer0-5,0.0,90.0,90.0,90.0,,,,,,,,,686.7209895309061,None,1.0,3.793843184132129,686.7209895309061,None,686.7209895309061,None,686.7209895309061,None,1,2022_Apr_26_1130,Semantic-hierachy,2021.1.2,
91,Trial # 92,layer0-5_T11_to_T12.jpg,layer0-5/layer0-5_T11_to_T12.jpg,TT,layer0-5,0.0,91.0,91.0,91.0,,,,,,,,,690.7892298777588,None,1.0,4.008539199829102,690.7892298777588,None,690.7892298777588,None,690.7892298777588,None,1,2022_Apr_26_1130,Semantic-hierachy,2021.1.2,
92,Trial # 93,layer0-5_T10_to_T3.jpg,layer0-5/layer0-5_T10_to_T3.jpg,TT,layer0-5,0.0,92.0,92.0,92.0,,,,,,,,,694.9574406230822,None,1.0,1.6803068816661837,694.9574406230822,None,694.9574406230822,None,694.9574406230822,None,1,2022_Apr_26_1130,Semantic-hierachy,2021.1.2,
93,Trial # 94,layer0-5_O2_to_O8.jpg,layer0-5/layer0-5_O2_to_O8.jpg,OO,layer0-5,0.0,93.0,93.0,93.0,,,,,,,,,697.0075511229225,None,1.0,2.9229868189431727,697.0075511229225,None,697.0075511229225,None,697.0075511229225,None,1,2022_Apr_26_1130,Semantic-hierachy,2021.1.2,
94,Trial # 95,layer0-5_T3_to_T8.jpg,layer0-5/layer0-5_T3_to_T8.jpg,TT,layer0-5,0.0,94.0,94.0,94.0,,,,,,,,,700.2422752347775,None,1.0,1.0732924840413034,700.2422752347775,None,700.2422752347775,None,700.2422752347775,None,1,2022_Apr_26_1130,Semantic-hierachy,2021.1.2,
95,Trial # 96,layer0-5_O7_to_O8.jpg,layer0-5/layer0-5_O7_to_O8.jpg,OO,layer0-5,0.0,95.0,95.0,95.0,,,,,,,,,701.6093567837961,None,4.0,3.855314347893,701.6093567837961,None,701.6093567837961,None,701.6093567837961,None,1,2022_Apr_26_1130,Semantic-hierachy,2021.1.2,
96,Trial # 97,layer6-8_T10_to_T6.jpg,layer6-8/layer6-8_T10_to_T6.jpg,TT,layer6-8,0.0,96.0,96.0,96.0,,,,,,,,,706.2607063581236,None,2.0,2.4747732393443584,706.2607063581236,None,706.2607063581236,None,706.2607063581236,None,1,2022_Apr_26_1130,Semantic-hierachy,2021.1.2,
97,Trial # 98,layer0-5_O1_to_O5.jpg,layer0-5/layer0-5_O1_to_O5.jpg,OO,layer0-5,0.0,97.0,97.0,97.0,,,,,,,,,709.0450477069244,None,1.0,5.70737151382491,709.0450477069244,None,709.0450477069244,None,709.0450477069244,None,1,2022_Apr_26_1130,Semantic-hierachy,2021.1.2,
98,Trial # 99,layer6-8_O1_to_O6.jpg,layer6-8/layer6-8_O1_to_O6.jpg,OO,layer6-8,0.0,98.0,98.0,98.0,,,,,,,,,715.5811545578763,None,4.0,2.6526056798174977,715.5811545578763,None,715.5811545578763,None,715.5811545578763,None,1,2022_Apr_26_1130,Semantic-hierachy,2021.1.2,
99,Trial # 100,layer6-8_O3_to_T1.jpg,layer6-8/layer6-8_O3_to_T1.jpg,OT,layer6-8,0.0,99.0,99.0,99.0,,,,,,,,,718.44807987893,None,3.0,4.810404872987419,718.44807987893,None,718.44807987893,None,718.44807987893,None,1,2022_Apr_26_1130,Semantic-hierachy,2021.1.2,
100,Trial # 101,layer6-8_T1_to_T9.jpg,layer6-8/layer6-8_T1_to_T9.jpg,TT,layer6-8,0.0,100.0,100.0,100.0,,,,,,,,,724.1997955958359,None,4.0,4.519577373750508,724.1997955958359,None,724.1997955958359,None,724.1997955958359,None,1,2022_Apr_26_1130,Semantic-hierachy,2021.1.2,
101,Trial # 102,layer9-17_O12_to_O6.jpg,layer9-17/layer9-17_O12_to_O6.jpg,OO,layer9-17,0.0,101.0,101.0,101.0,,,,,,,,,729.9356111078523,None,2.0,3.4525636569596827,729.9356111078523,None,729.9356111078523,None,729.9356111078523,None,1,2022_Apr_26_1130,Semantic-hierachy,2021.1.2,
102,Trial # 103,layer0-5_T4_to_T9.jpg,layer0-5/layer0-5_T4_to_T9.jpg,TT,layer0-5,0.0,102.0,102.0,102.0,,,,,,,,,733.7035044301301,None,1.0,1.5742014949209988,733.7035044301301,None,733.7035044301301,None,733.7035044301301,None,1,2022_Apr_26_1130,Semantic-hierachy,2021.1.2,
103,Trial # 104,layer6-8_O10_to_T1.jpg,layer6-8/layer6-8_O10_to_T1.jpg,OT,layer6-8,0.0,103.0,103.0,103.0,,,,,,,,,735.6360660679638,None,3.0,2.1724907509051263,735.6360660679638,None,735.6360660679638,None,735.6360660679638,None,1,2022_Apr_26_1130,Semantic-hierachy,2021.1.2,
104,Trial # 105,layer0-5_O6_to_T2.jpg,layer0-5/layer0-5_O6_to_T2.jpg,OT,layer0-5,0.0,104.0,104.0,104.0,,,,,,,,,738.0702163930982,None,1.0,1.7748097172006965,738.0702163930982,None,738.0702163930982,None,738.0702163930982,None,1,2022_Apr_26_1130,Semantic-hierachy,2021.1.2,
105,Trial # 106,layer9-17_T11_to_T2.jpg,layer9-17/layer9-17_T11_to_T2.jpg,TT,layer9-17,0.0,105.0,105.0,105.0,,,,,,,,,740.1550011308864,None,2.0,2.7753936829976737,740.1550011308864,None,740.1550011308864,None,740.1550011308864,None,1,2022_Apr_26_1130,Semantic-hierachy,2021.1.2,
106,Trial # 107,layer9-17_O12_to_O8.jpg,layer9-17/layer9-17_O12_to_O8.jpg,OO,layer9-17,0.0,106.0,106.0,106.0,,,,,,,,,743.4070237306878,None,2.0,12.231264487374574,743.4070237306878,None,743.4070237306878,None,743.4070237306878,None,1,2022_Apr_26_1130,Semantic-hierachy,2021.1.2,
107,Trial # 108,layer0-5_T12_to_T3.jpg,layer0-5/layer0-5_T12_to_T3.jpg,TT,layer0-5,0.0,107.0,107.0,107.0,,,,,,,,,755.9262206889689,None,1.0,2.7757155601866543,755.9262206889689,None,755.9262206889689,None,755.9262206889689,None,1,2022_Apr_26_1130,Semantic-hierachy,2021.1.2,
108,Trial # 109,layer0-5_T1_to_T10.jpg,layer0-5/layer0-5_T1_to_T10.jpg,TT,layer0-5,0.0,108.0,108.0,108.0,,,,,,,,,759.1614525849,None,1.0,1.5731612988747656,759.1614525849,None,759.1614525849,None,759.1614525849,None,1,2022_Apr_26_1130,Semantic-hierachy,2021.1.2,
109,Trial # 110,layer6-8_O4_to_T5.jpg,layer6-8/layer6-8_O4_to_T5.jpg,OT,layer6-8,0.0,109.0,109.0,109.0,,,,,,,,,761.3619454530999,None,3.0,2.0398576450534165,761.3619454530999,None,761.3619454530999,None,761.3619454530999,None,1,2022_Apr_26_1130,Semantic-hierachy,2021.1.2,
110,Trial # 111,layer9-17_O11_to_O7.jpg,layer9-17/layer9-17_O11_to_O7.jpg,OO,layer9-17,0.0,110.0,110.0,110.0,,,,,,,,,763.8294667890295,None,2.0,3.657518692314625,763.8294667890295,None,763.8294667890295,None,763.8294667890295,None,1,2022_Apr_26_1130,Semantic-hierachy,2021.1.2,
111,Trial # 112,layer0-5_O5_to_O8.jpg,layer0-5/layer0-5_O5_to_O8.jpg,OO,layer0-5,0.0,111.0,111.0,111.0,,,,,,,,,768.0625973977149,None,1.0,1.61058141104877,768.0625973977149,None,768.0625973977149,None,768.0625973977149,None,1,2022_Apr_26_1130,Semantic-hierachy,2021.1.2,
112,Trial # 113,layer0-5_O10_to_O4.jpg,layer0-5/layer0-5_O10_to_O4.jpg,OO,layer0-5,0.0,112.0,112.0,112.0,,,,,,,,,769.9814941389486,None,1.0,3.723308491986245,769.9814941389486,None,769.9814941389486,None,769.9814941389486,None,1,2022_Apr_26_1130,Semantic-hierachy,2021.1.2,
113,Trial # 114,layer9-17_O4_to_O8.jpg,layer9-17/layer9-17_O4_to_O8.jpg,OO,layer9-17,0.0,113.0,113.0,113.0,,,,,,,,,775.0994069818407,None,4.0,23.03219816600904,775.0994069818407,None,775.0994069818407,None,775.0994069818407,None,1,2022_Apr_26_1130,Semantic-hierachy,2021.1.2,
114,Trial # 115,layer0-5_O2_to_T8.jpg,layer0-5/layer0-5_O2_to_T8.jpg,OT,layer0-5,0.0,114.0,114.0,114.0,,,,,,,,,798.3893934437074,None,1.0,2.0575772440060973,798.3893934437074,None,798.3893934437074,None,798.3893934437074,None,1,2022_Apr_26_1130,Semantic-hierachy,2021.1.2,
115,Trial # 116,layer9-17_T2_to_T3.jpg,layer9-17/layer9-17_T2_to_T3.jpg,TT,layer9-17,0.0,115.0,115.0,115.0,,,,,,,,,800.7736676917411,None,2.0,2.523222874384373,800.7736676917411,None,800.7736676917411,None,800.7736676917411,None,1,2022_Apr_26_1130,Semantic-hierachy,2021.1.2,
116,Trial # 117,layer6-8_O1_to_T10.jpg,layer6-8/layer6-8_O1_to_T10.jpg,OT,layer6-8,0.0,116.0,116.0,116.0,,,,,,,,,803.9086266667582,None,3.0,3.341118851210922,803.9086266667582,None,803.9086266667582,None,803.9086266667582,None,1,2022_Apr_26_1130,Semantic-hierachy,2021.1.2,
117,Trial # 118,layer0-5_T3_to_T7.jpg,layer0-5/layer0-5_T3_to_T7.jpg,TT,layer0-5,0.0,117.0,117.0,117.0,,,,,,,,,807.6588210347109,None,1.0,1.957829201593995,807.6588210347109,None,807.6588210347109,None,807.6588210347109,None,1,2022_Apr_26_1130,Semantic-hierachy,2021.1.2,
118,Trial # 119,layer9-17_O1_to_O12.jpg,layer9-17/layer9-17_O1_to_O12.jpg,OO,layer9-17,0.0,118.0,118.0,118.0,,,,,,,,,810.010140820872,None,2.0,2.206664619036019,810.010140820872,None,810.010140820872,None,810.010140820872,None,1,2022_Apr_26_1130,Semantic-hierachy,2021.1.2,
119,Trial # 120,layer6-8_O12_to_O2.jpg,layer6-8/layer6-8_O12_to_O2.jpg,OO,layer6-8,0.0,119.0,119.0,119.0,,,,,,,,,812.5935406507924,None,3.0,3.0959226079285145,812.5935406507924,None,812.5935406507924,None,812.5935406507924,None,1,2022_Apr_26_1130,Semantic-hierachy,2021.1.2,
120,Trial # 121,layer9-17_O10_to_O9.jpg,layer9-17/layer9-17_O10_to_O9.jpg,OO,layer9-17,0.0,120.0,120.0,120.0,,,,,,,,,816.0610397360288,None,2.0,2.506582701113075,816.0610397360288,None,816.0610397360288,None,816.0610397360288,None,1,2022_Apr_26_1130,Semantic-hierachy,2021.1.2,
121,Trial # 122,layer6-8_O4_to_T10.jpg,layer6-8/layer6-8_O4_to_T10.jpg,OT,layer6-8,0.0,121.0,121.0,121.0,,,,,,,,,818.9294801950455,None,3.0,2.725107572041452,818.9294801950455,None,818.9294801950455,None,818.9294801950455,None,1,2022_Apr_26_1130,Semantic-hierachy,2021.1.2,
122,Trial # 123,layer6-8_O2_to_T3.jpg,layer6-8/layer6-8_O2_to_T3.jpg,OT,layer6-8,0.0,122.0,122.0,122.0,,,,,,,,,821.9963791999035,None,3.0,1.5112134739756584,821.9963791999035,None,821.9963791999035,None,821.9963791999035,None,1,2022_Apr_26_1130,Semantic-hierachy,2021.1.2,
123,Trial # 124,layer0-5_O1_to_O7.jpg,layer0-5/layer0-5_O1_to_O7.jpg,OO,layer0-5,0.0,123.0,123.0,123.0,,,,,,,,,823.7477275300771,None,1.0,1.657231390941888,823.7477275300771,None,823.7477275300771,None,823.7477275300771,None,1,2022_Apr_26_1130,Semantic-hierachy,2021.1.2,
124,Trial # 125,layer0-5_T8_to_T9.jpg,layer0-5/layer0-5_T8_to_T9.jpg,TT,layer0-5,0.0,124.0,124.0,124.0,,,,,,,,,825.6818480067886,None,1.0,1.054261117242277,825.6818480067886,None,825.6818480067886,None,825.6818480067886,None,1,2022_Apr_26_1130,Semantic-hierachy,2021.1.2,
125,Trial # 126,layer0-5_O12_to_T8.jpg,layer0-5/layer0-5_O12_to_T8.jpg,OT,layer0-5,0.0,125.0,125.0,125.0,,,,,,,,,827.2317094518803,None,1.0,1.5284085483290255,827.2317094518803,None,827.2317094518803,None,827.2317094518803,None,1,2022_Apr_26_1130,Semantic-hierachy,2021.1.2,
126,Trial # 127,layer9-17_O4_to_O6.jpg,layer9-17/layer9-17_O4_to_O6.jpg,OO,layer9-17,0.0,126.0,126.0,126.0,,,,,,,,,829.0834180098027,None,4.0,2.902832484804094,829.0834180098027,None,829.0834180098027,None,829.0834180098027,None,1,2022_Apr_26_1130,Semantic-hierachy,2021.1.2,
127,Trial # 128,layer6-8_O12_to_O6.jpg,layer6-8/layer6-8_O12_to_O6.jpg,OO,layer6-8,0.0,127.0,127.0,127.0,,,,,,,,,832.3168203188106,None,3.0,1.893683428876102,832.3168203188106,None,832.3168203188106,None,832.3168203188106,None,1,2022_Apr_26_1130,Semantic-hierachy,2021.1.2,
128,Trial # 129,layer0-5_T4_to_T6.jpg,layer0-5/layer0-5_T4_to_T6.jpg,TT,layer0-5,0.0,128.0,128.0,128.0,,,,,,,,,834.5012576756999,None,1.0,3.589025116059929,834.5012576756999,None,834.5012576756999,None,834.5012576756999,None,1,2022_Apr_26_1130,Semantic-hierachy,2021.1.2,
129,Trial # 130,layer9-17_O1_to_O3.jpg,layer9-17/layer9-17_O1_to_O3.jpg,OO,layer9-17,0.0,129.0,129.0,129.0,,,,,,,,,840.102979992982,None,2.0,1.959022112190724,840.102979992982,None,840.102979992982,None,840.102979992982,None,1,2022_Apr_26_1130,Semantic-hierachy,2021.1.2,
130,Trial # 131,layer9-17_O10_to_O3.jpg,layer9-17/layer9-17_O10_to_O3.jpg,OO,layer9-17,0.0,130.0,130.0,130.0,,,,,,,,,842.4032336478122,None,2.0,1.557005171198398,842.4032336478122,None,842.4032336478122,None,842.4032336478122,None,1,2022_Apr_26_1130,Semantic-hierachy,2021.1.2,
131,Trial # 132,layer9-17_O12_to_O3.jpg,layer9-17/layer9-17_O12_to_O3.jpg,OO,layer9-17,0.0,131.0,131.0,131.0,,,,,,,,,844.2702504061162,None,2.0,2.2950748302973807,844.2702504061162,None,844.2702504061162,None,844.2702504061162,None,1,2022_Apr_26_1130,Semantic-hierachy,2021.1.2,
132,Trial # 133,layer9-17_O11_to_O4.jpg,layer9-17/layer9-17_O11_to_O4.jpg,OO,layer9-17,0.0,132.0,132.0,132.0,,,,,,,,,846.7542071267962,None,4.0,3.4593710037879646,846.7542071267962,None,846.7542071267962,None,846.7542071267962,None,1,2022_Apr_26_1130,Semantic-hierachy,2021.1.2,
133,Trial # 134,layer9-17_T4_to_T7.jpg,layer9-17/layer9-17_T4_to_T7.jpg,TT,layer9-17,0.0,133.0,133.0,133.0,,,,,,,,,850.4558461839333,None,2.0,2.511003408115357,850.4558461839333,None,850.4558461839333,None,850.4558461839333,None,1,2022_Apr_26_1130,Semantic-hierachy,2021.1.2,
134,Trial # 135,layer9-17_O1_to_T1.jpg,layer9-17/layer9-17_O1_to_T1.jpg,OT,layer9-17,0.0,134.0,134.0,134.0,,,,,,,,,855.6569491117261,None,2.0,1.573140393011272,855.6569491117261,None,855.6569491117261,None,855.6569491117261,None,1,2022_Apr_26_1130,Semantic-hierachy,2021.1.2,
135,Trial # 136,layer6-8_T2_to_T5.jpg,layer6-8/layer6-8_T2_to_T5.jpg,TT,layer6-8,0.0,135.0,135.0,135.0,,,,,,,,,857.4908161261119,None,4.0,6.686711797025055,857.4908161261119,None,857.4908161261119,None,857.4908161261119,None,1,2022_Apr_26_1130,Semantic-hierachy,2021.1.2,
136,Trial # 137,layer9-17_T11_to_T7.jpg,layer9-17/layer9-17_T11_to_T7.jpg,TT,layer9-17,0.0,136.0,136.0,136.0,,,,,,,,,864.4099317560904,None,2.0,2.826453283894807,864.4099317560904,None,864.4099317560904,None,864.4099317560904,None,1,2022_Apr_26_1130,Semantic-hierachy,2021.1.2,
137,Trial # 138,layer6-8_O3_to_O8.jpg,layer6-8/layer6-8_O3_to_O8.jpg,OO,layer6-8,0.0,137.0,137.0,137.0,,,,,,,,,868.7115836939774,None,3.0,4.180317807942629,868.7115836939774,None,868.7115836939774,None,868.7115836939774,None,1,2022_Apr_26_1130,Semantic-hierachy,2021.1.2,
138,Trial # 139,layer6-8_O1_to_T7.jpg,layer6-8/layer6-8_O1_to_T7.jpg,OT,layer6-8,0.0,138.0,138.0,138.0,,,,,,,,,874.5629991507158,None,3.0,1.667981596197933,874.5629991507158,None,874.5629991507158,None,874.5629991507158,None,1,2022_Apr_26_1130,Semantic-hierachy,2021.1.2,
139,Trial # 140,layer9-17_T1_to_T3.jpg,layer9-17/layer9-17_T1_to_T3.jpg,TT,layer9-17,0.0,139.0,139.0,139.0,,,,,,,,,876.613157026004,None,2.0,5.254768912214786,876.613157026004,None,876.613157026004,None,876.613157026004,None,1,2022_Apr_26_1130,Semantic-hierachy,2021.1.2,
140,Trial # 141,layer6-8_O10_to_O12.jpg,layer6-8/layer6-8_O10_to_O12.jpg,OO,layer6-8,0.0,140.0,140.0,140.0,,,,,,,,,882.6486244397238,None,3.0,6.313127565663308,882.6486244397238,None,882.6486244397238,None,882.6486244397238,None,1,2022_Apr_26_1130,Semantic-hierachy,2021.1.2,
141,Trial # 142,layer6-8_O12_to_T11.jpg,layer6-8/layer6-8_O12_to_T11.jpg,OT,layer6-8,0.0,141.0,141.0,141.0,,,,,,,,,889.201401011087,None,4.0,3.247456507291645,889.201401011087,None,889.201401011087,None,889.201401011087,None,1,2022_Apr_26_1130,Semantic-hierachy,2021.1.2,
142,Trial # 143,layer0-5_O11_to_O5.jpg,layer0-5/layer0-5_O11_to_O5.jpg,OO,layer0-5,0.0,142.0,142.0,142.0,,,,,,,,,894.4022808680311,None,1.0,4.37696873024106,894.4022808680311,None,894.4022808680311,None,894.4022808680311,None,1,2022_Apr_26_1130,Semantic-hierachy,2021.1.2,
143,Trial # 144,layer6-8_O1_to_O8.jpg,layer6-8/layer6-8_O1_to_O8.jpg,OO,layer6-8,0.0,143.0,143.0,143.0,,,,,,,,,899.1881060227752,None,2.0,4.923946007154882,899.1881060227752,None,899.1881060227752,None,899.1881060227752,None,1,2022_Apr_26_1130,Semantic-hierachy,2021.1.2,
144,Trial # 145,layer0-5_T2_to_T5.jpg,layer0-5/layer0-5_T2_to_T5.jpg,TT,layer0-5,0.0,144.0,144.0,144.0,,,,,,,,,909.2238357607276,None,1.0,2.9953777152113616,909.2238357607276,None,909.2238357607276,None,909.2238357607276,None,1,2022_Apr_26_1130,Semantic-hierachy,2021.1.2,
145,Trial # 146,layer9-17_O8_to_T3.jpg,layer9-17/layer9-17_O8_to_T3.jpg,OT,layer9-17,0.0,145.0,145.0,145.0,,,,,,,,,913.7593437139876,None,2.0,2.1913724849000573,913.7593437139876,None,913.7593437139876,None,913.7593437139876,None,1,2022_Apr_26_1130,Semantic-hierachy,2021.1.2,
146,Trial # 147,layer9-17_O8_to_T4.jpg,layer9-17/layer9-17_O8_to_T4.jpg,OT,layer9-17,0.0,146.0,146.0,146.0,,,,,,,,,916.8924757828936,None,3.0,2.8777166712097824,916.8924757828936,None,916.8924757828936,None,916.8924757828936,None,1,2022_Apr_26_1130,Semantic-hierachy,2021.1.2,
147,Trial # 148,layer9-17_O4_to_T9.jpg,layer9-17/layer9-17_O4_to_T9.jpg,OT,layer9-17,0.0,147.0,147.0,147.0,,,,,,,,,919.97748781275,None,2.0,2.391753421165049,919.97748781275,None,919.97748781275,None,919.97748781275,None,1,2022_Apr_26_1130,Semantic-hierachy,2021.1.2,
148,Trial # 149,layer6-8_O4_to_O8.jpg,layer6-8/layer6-8_O4_to_O8.jpg,OO,layer6-8,0.0,148.0,148.0,148.0,,,,,,,,,922.61076448299,None,2.0,3.041194871068001,922.61076448299,None,922.61076448299,None,922.61076448299,None,1,2022_Apr_26_1130,Semantic-hierachy,2021.1.2,
149,Trial # 150,layer0-5_O12_to_T7.jpg,layer0-5/layer0-5_O12_to_T7.jpg,OT,layer0-5,0.0,149.0,149.0,149.0,,,,,,,,,926.9122828920372,None,1.0,2.128741572611034,926.9122828920372,None,926.9122828920372,None,926.9122828920372,None,1,2022_Apr_26_1130,Semantic-hierachy,2021.1.2,
150,Trial # 151,layer6-8_T1_to_T3.jpg,layer6-8/layer6-8_T1_to_T3.jpg,TT,layer6-8,,,,,0.0,0.0,0.0,0.0,,,,,933.6146859810688,None,3.0,6.122486080043018,933.6146859810688,None,933.6146859810688,None,933.6146859810688,None,1,2022_Apr_26_1130,Semantic-hierachy,2021.1.2,
151,Trial # 152,layer0-5_O8_to_O9.jpg,layer0-5/layer0-5_O8_to_O9.jpg,OO,layer0-5,,,,,0.0,1.0,1.0,1.0,,,,,941.2674464737064,None,1.0,1.7432653061114252,941.2674464737064,None,941.2674464737064,None,941.2674464737064,None,1,2022_Apr_26_1130,Semantic-hierachy,2021.1.2,
152,Trial # 153,layer9-17_T1_to_T5.jpg,layer9-17/layer9-17_T1_to_T5.jpg,TT,layer9-17,,,,,0.0,2.0,2.0,2.0,,,,,943.78457736969,None,2.0,1.5936277252621949,943.78457736969,None,943.78457736969,None,943.78457736969,None,1,2022_Apr_26_1130,Semantic-hierachy,2021.1.2,
153,Trial # 154,layer6-8_T7_to_T9.jpg,layer6-8/layer6-8_T7_to_T9.jpg,TT,layer6-8,,,,,0.0,3.0,3.0,3.0,,,,,946.1345948688686,None,2.0,5.671786667779088,946.1345948688686,None,946.1345948688686,None,946.1345948688686,None,1,2022_Apr_26_1130,Semantic-hierachy,2021.1.2,
154,Trial # 155,layer9-17_T12_to_T7.jpg,layer9-17/layer9-17_T12_to_T7.jpg,TT,layer9-17,,,,,0.0,4.0,4.0,4.0,,,,,952.6531364950353,None,2.0,1.8744547967799008,952.6531364950353,None,952.6531364950353,None,952.6531364950353,None,1,2022_Apr_26_1130,Semantic-hierachy,2021.1.2,
155,Trial # 156,layer0-5_O8_to_T11.jpg,layer0-5/layer0-5_O8_to_T11.jpg,OT,layer0-5,,,,,0.0,5.0,5.0,5.0,,,,,955.2709342460148,None,1.0,1.675581756979227,955.2709342460148,None,955.2709342460148,None,955.2709342460148,None,1,2022_Apr_26_1130,Semantic-hierachy,2021.1.2,
156,Trial # 157,layer0-5_O1_to_O9.jpg,layer0-5/layer0-5_O1_to_O9.jpg,OO,layer0-5,,,,,0.0,6.0,6.0,6.0,,,,,957.6887241830118,None,1.0,1.942526047118008,957.6887241830118,None,957.6887241830118,None,957.6887241830118,None,1,2022_Apr_26_1130,Semantic-hierachy,2021.1.2,
157,Trial # 158,layer0-5_O10_to_O12.jpg,layer0-5/layer0-5_O10_to_O12.jpg,OO,layer0-5,,,,,0.0,7.0,7.0,7.0,,,,,960.3892710688524,None,1.0,1.5570290838368237,960.3892710688524,None,960.3892710688524,None,960.3892710688524,None,1,2022_Apr_26_1130,Semantic-hierachy,2021.1.2,
158,Trial # 159,layer6-8_O10_to_T5.jpg,layer6-8/layer6-8_O10_to_T5.jpg,OT,layer6-8,,,,,0.0,8.0,8.0,8.0,,,,,962.6401237328536,None,1.0,1.1891928459517658,962.6401237328536,None,962.6401237328536,None,962.6401237328536,None,1,2022_Apr_26_1130,Semantic-hierachy,2021.1.2,
159,Trial # 160,layer6-8_O5_to_O6.jpg,layer6-8/layer6-8_O5_to_O6.jpg,OO,layer6-8,,,,,0.0,9.0,9.0,9.0,,,,,964.607974474784,None,2.0,1.859423445072025,964.607974474784,None,964.607974474784,None,964.607974474784,None,1,2022_Apr_26_1130,Semantic-hierachy,2021.1.2,
160,Trial # 161,layer6-8_O6_to_T11.jpg,layer6-8/layer6-8_O6_to_T11.jpg,OT,layer6-8,,,,,0.0,10.0,10.0,10.0,,,,,967.3748730039224,None,3.0,3.0728325052186847,967.3748730039224,None,967.3748730039224,None,967.3748730039224,None,1,2022_Apr_26_1130,Semantic-hierachy,2021.1.2,
161,Trial # 162,layer9-17_O12_to_O9.jpg,layer9-17/layer9-17_O12_to_O9.jpg,OO,layer9-17,,,,,0.0,11.0,11.0,11.0,,,,,971.259233599063,None,2.0,2.677977338898927,971.259233599063,None,971.259233599063,None,971.259233599063,None,1,2022_Apr_26_1130,Semantic-hierachy,2021.1.2,
162,Trial # 163,layer6-8_O12_to_T6.jpg,layer6-8/layer6-8_O12_to_T6.jpg,OT,layer6-8,,,,,0.0,12.0,12.0,12.0,,,,,975.5109127657488,None,4.0,12.606723543722184,975.5109127657488,None,975.5109127657488,None,975.5109127657488,None,1,2022_Apr_26_1130,Semantic-hierachy,2021.1.2,
163,Trial # 164,layer0-5_T11_to_T7.jpg,layer0-5/layer0-5_T11_to_T7.jpg,TT,layer0-5,,,,,0.0,13.0,13.0,13.0,,,,,988.8991722818464,None,1.0,2.9560375749133527,988.8991722818464,None,988.8991722818464,None,988.8991722818464,None,1,2022_Apr_26_1130,Semantic-hierachy,2021.1.2,
164,Trial # 165,layer9-17_O10_to_T5.jpg,layer9-17/layer9-17_O10_to_T5.jpg,OT,layer9-17,,,,,0.0,14.0,14.0,14.0,,,,,992.6329413796776,None,3.0,8.158195744268596,992.6329413796776,None,992.6329413796776,None,992.6329413796776,None,1,2022_Apr_26_1130,Semantic-hierachy,2021.1.2,
165,Trial # 166,layer9-17_T1_to_T6.jpg,layer9-17/layer9-17_T1_to_T6.jpg,TT,layer9-17,,,,,0.0,15.0,15.0,15.0,,,,,1001.7017909307032,None,2.0,2.22903010295704,1001.7017909307032,None,1001.7017909307032,None,1001.7017909307032,None,1,2022_Apr_26_1130,Semantic-hierachy,2021.1.2,
166,Trial # 167,layer0-5_T1_to_T3.jpg,layer0-5/layer0-5_T1_to_T3.jpg,TT,layer0-5,,,,,0.0,16.0,16.0,16.0,,,,,1005.5039123049936,None,1.0,2.258644294925034,1005.5039123049936,None,1005.5039123049936,None,1005.5039123049936,None,1,2022_Apr_26_1130,Semantic-hierachy,2021.1.2,
167,Trial # 168,layer0-5_O2_to_O9.jpg,layer0-5/layer0-5_O2_to_O9.jpg,OO,layer0-5,,,,,0.0,17.0,17.0,17.0,,,,,1008.5545819820836,None,1.0,1.1603344213217497,1008.5545819820836,None,1008.5545819820836,None,1008.5545819820836,None,1,2022_Apr_26_1130,Semantic-hierachy,2021.1.2,
168,Trial # 169,layer9-17_O3_to_T4.jpg,layer9-17/layer9-17_O3_to_T4.jpg,OT,layer9-17,,,,,0.0,18.0,18.0,18.0,,,,,1010.4548315610735,None,2.0,1.94026263570413,1010.4548315610735,None,1010.4548315610735,None,1010.4548315610735,None,1,2022_Apr_26_1130,Semantic-hierachy,2021.1.2,
169,Trial # 170,layer6-8_O11_to_O9.jpg,layer6-8/layer6-8_O11_to_O9.jpg,OO,layer6-8,,,,,0.0,19.0,19.0,19.0,,,,,1013.2221914487892,None,3.0,2.1906812991946936,1013.2221914487892,None,1013.2221914487892,None,1013.2221914487892,None,1,2022_Apr_26_1130,Semantic-hierachy,2021.1.2,
170,Trial # 171,layer9-17_O1_to_O7.jpg,layer9-17/layer9-17_O1_to_O7.jpg,OO,layer9-17,,,,,0.0,20.0,20.0,20.0,,,,,1016.25699518295,None,4.0,7.1256362637504935,1016.25699518295,None,1016.25699518295,None,1016.25699518295,None,1,2022_Apr_26_1130,Semantic-hierachy,2021.1.2,
171,Trial # 172,layer0-5_T12_to_T4.jpg,layer0-5/layer0-5_T12_to_T4.jpg,TT,layer0-5,,,,,0.0,21.0,21.0,21.0,,,,,1024.193627589848,None,1.0,1.879935153760016,1024.193627589848,None,1024.193627589848,None,1024.193627589848,None,1,2022_Apr_26_1130,Semantic-hierachy,2021.1.2,
172,Trial # 173,layer0-5_O4_to_T4.jpg,layer0-5/layer0-5_O4_to_T4.jpg,OT,layer0-5,,,,,0.0,22.0,22.0,22.0,,,,,1026.993436079938,None,1.0,1.30160706397146,1026.993436079938,None,1026.993436079938,None,1026.993436079938,None,1,2022_Apr_26_1130,Semantic-hierachy,2021.1.2,
173,Trial # 174,layer6-8_T12_to_T5.jpg,layer6-8/layer6-8_T12_to_T5.jpg,TT,layer6-8,,,,,0.0,23.0,23.0,23.0,,,,,1029.0607194658369,None,3.0,3.42581328889355,1029.0607194658369,None,1029.0607194658369,None,1029.0607194658369,None,1,2022_Apr_26_1130,Semantic-hierachy,2021.1.2,
174,Trial # 175,layer6-8_O11_to_T1.jpg,layer6-8/layer6-8_O11_to_T1.jpg,OT,layer6-8,,,,,0.0,24.0,24.0,24.0,,,,,1039.5814886000007,None,4.0,5.443576332647353,1039.5814886000007,None,1039.5814886000007,None,1039.5814886000007,None,1,2022_Apr_26_1130,Semantic-hierachy,2021.1.2,
175,Trial # 176,layer0-5_O7_to_T8.jpg,layer0-5/layer0-5_O7_to_T8.jpg,OT,layer0-5,,,,,0.0,25.0,25.0,25.0,,,,,1046.082526247017,None,1.0,2.9279963029548526,1046.082526247017,None,1046.082526247017,None,1046.082526247017,None,1,2022_Apr_26_1130,Semantic-hierachy,2021.1.2,
176,Trial # 177,layer0-5_O11_to_T5.jpg,layer0-5/layer0-5_O11_to_T5.jpg,OT,layer0-5,,,,,0.0,26.0,26.0,26.0,,,,,1049.984458310064,None,1.0,1.9075299091637128,1049.984458310064,None,1049.984458310064,None,1049.984458310064,None,1,2022_Apr_26_1130,Semantic-hierachy,2021.1.2,
177,Trial # 178,layer9-17_O2_to_T2.jpg,layer9-17/layer9-17_O2_to_T2.jpg,OT,layer9-17,,,,,0.0,27.0,27.0,27.0,,,,,1052.5506444168277,None,4.0,2.394368171226233,1052.5506444168277,None,1052.5506444168277,None,1052.5506444168277,None,1,2022_Apr_26_1130,Semantic-hierachy,2021.1.2,
178,Trial # 179,layer0-5_O4_to_T9.jpg,layer0-5/layer0-5_O4_to_T9.jpg,OT,layer0-5,,,,,0.0,28.0,28.0,28.0,,,,,1055.635787915904,None,1.0,1.8882139432244005,1055.635787915904,None,1055.635787915904,None,1055.635787915904,None,1,2022_Apr_26_1130,Semantic-hierachy,2021.1.2,
179,Trial # 180,layer9-17_T6_to_T8.jpg,layer9-17/layer9-17_T6_to_T8.jpg,TT,layer9-17,,,,,0.0,29.0,29.0,29.0,,,,,1058.5197264440358,None,2.0,1.810638159047812,1058.5197264440358,None,1058.5197264440358,None,1058.5197264440358,None,1,2022_Apr_26_1130,Semantic-hierachy,2021.1.2,
180,Trial # 181,layer9-17_O12_to_O5.jpg,layer9-17/layer9-17_O12_to_O5.jpg,OO,layer9-17,,,,,0.0,30.0,30.0,30.0,,,,,1061.6703898329288,None,2.0,1.344402255024761,1061.6703898329288,None,1061.6703898329288,None,1061.6703898329288,None,1,2022_Apr_26_1130,Semantic-hierachy,2021.1.2,
181,Trial # 182,layer6-8_O1_to_O7.jpg,layer6-8/layer6-8_O1_to_O7.jpg,OO,layer6-8,,,,,0.0,31.0,31.0,31.0,,,,,1064.0050935847685,None,4.0,2.5367403710260987,1064.0050935847685,None,1064.0050935847685,None,1064.0050935847685,None,1,2022_Apr_26_1130,Semantic-hierachy,2021.1.2,
182,Trial # 183,layer6-8_O3_to_T10.jpg,layer6-8/layer6-8_O3_to_T10.jpg,OT,layer6-8,,,,,0.0,32.0,32.0,32.0,,,,,1067.5223287628032,None,3.0,1.9927601078525183,1067.5223287628032,None,1067.5223287628032,None,1067.5223287628032,None,1,2022_Apr_26_1130,Semantic-hierachy,2021.1.2,
183,Trial # 184,layer0-5_O1_to_T11.jpg,layer0-5/layer0-5_O1_to_T11.jpg,OT,layer0-5,,,,,0.0,33.0,33.0,33.0,,,,,1069.9072330808267,None,1.0,1.8410255620256064,1069.9072330808267,None,1069.9072330808267,None,1069.9072330808267,None,1,2022_Apr_26_1130,Semantic-hierachy,2021.1.2,
184,Trial # 185,layer6-8_O8_to_O9.jpg,layer6-8/layer6-8_O8_to_O9.jpg,OO,layer6-8,,,,,0.0,34.0,34.0,34.0,,,,,1072.1743164169602,None,2.0,3.092285776976496,1072.1743164169602,None,1072.1743164169602,None,1072.1743164169602,None,1,2022_Apr_26_1130,Semantic-hierachy,2021.1.2,
185,Trial # 186,layer9-17_O4_to_O9.jpg,layer9-17/layer9-17_O4_to_O9.jpg,OO,layer9-17,,,,,0.0,35.0,35.0,35.0,,,,,1075.7915026657283,None,2.0,5.776461694855243,1075.7915026657283,None,1075.7915026657283,None,1075.7915026657283,None,1,2022_Apr_26_1130,Semantic-hierachy,2021.1.2,
186,Trial # 187,layer0-5_O12_to_O5.jpg,layer0-5/layer0-5_O12_to_O5.jpg,OO,layer0-5,,,,,0.0,36.0,36.0,36.0,,,,,1082.0268040071242,None,1.0,2.1949412268586457,1082.0268040071242,None,1082.0268040071242,None,1082.0268040071242,None,1,2022_Apr_26_1130,Semantic-hierachy,2021.1.2,
187,Trial # 188,layer6-8_T12_to_T4.jpg,layer6-8/layer6-8_T12_to_T4.jpg,TT,layer6-8,,,,,0.0,37.0,37.0,37.0,,,,,1084.5619085729122,None,3.0,2.375067621935159,1084.5619085729122,None,1084.5619085729122,None,1084.5619085729122,None,1,2022_Apr_26_1130,Semantic-hierachy,2021.1.2,
188,Trial # 189,layer0-5_T6_to_T8.jpg,layer0-5/layer0-5_T6_to_T8.jpg,TT,layer0-5,,,,,0.0,38.0,38.0,38.0,,,,,1087.3447697968222,None,1.0,1.4088764828629792,1087.3447697968222,None,1087.3447697968222,None,1087.3447697968222,None,1,2022_Apr_26_1130,Semantic-hierachy,2021.1.2,
189,Trial # 190,layer6-8_O11_to_T2.jpg,layer6-8/layer6-8_O11_to_T2.jpg,OT,layer6-8,,,,,0.0,39.0,39.0,39.0,,,,,1088.9791301228106,None,3.0,1.854694999288768,1088.9791301228106,None,1088.9791301228106,None,1088.9791301228106,None,1,2022_Apr_26_1130,Semantic-hierachy,2021.1.2,
190,Trial # 191,layer6-8_O1_to_O3.jpg,layer6-8/layer6-8_O1_to_O3.jpg,OO,layer6-8,,,,,0.0,40.0,40.0,40.0,,,,,1091.1293322937563,None,4.0,3.054468255955726,1091.1293322937563,None,1091.1293322937563,None,1091.1293322937563,None,1,2022_Apr_26_1130,Semantic-hierachy,2021.1.2,
191,Trial # 192,layer0-5_O7_to_T1.jpg,layer0-5/layer0-5_O7_to_T1.jpg,OT,layer0-5,,,,,0.0,41.0,41.0,41.0,,,,,1094.7315530669875,None,1.0,1.8928096611052752,1094.7315530669875,None,1094.7315530669875,None,1094.7315530669875,None,1,2022_Apr_26_1130,Semantic-hierachy,2021.1.2,
192,Trial # 193,layer6-8_O3_to_T7.jpg,layer6-8/layer6-8_O3_to_T7.jpg,OT,layer6-8,,,,,0.0,42.0,42.0,42.0,,,,,1096.982259919867,None,3.0,4.910455165896565,1096.982259919867,None,1096.982259919867,None,1096.982259919867,None,1,2022_Apr_26_1130,Semantic-hierachy,2021.1.2,
193,Trial # 194,layer9-17_T10_to_T6.jpg,layer9-17/layer9-17_T10_to_T6.jpg,TT,layer9-17,,,,,0.0,43.0,43.0,43.0,,,,,1102.3660411629826,None,3.0,2.2768858447670937,1102.3660411629826,None,1102.3660411629826,None,1102.3660411629826,None,1,2022_Apr_26_1130,Semantic-hierachy,2021.1.2,
194,Trial # 195,layer6-8_T2_to_T9.jpg,layer6-8/layer6-8_T2_to_T9.jpg,TT,layer6-8,,,,,0.0,44.0,44.0,44.0,,,,,1105.017826969735,None,4.0,3.087502708658576,1105.017826969735,None,1105.017826969735,None,1105.017826969735,None,1,2022_Apr_26_1130,Semantic-hierachy,2021.1.2,
195,Trial # 196,layer0-5_O3_to_T3.jpg,layer0-5/layer0-5_O3_to_T3.jpg,OT,layer0-5,,,,,0.0,45.0,45.0,45.0,,,,,1115.3882792317308,None,1.0,3.0400834218598902,1115.3882792317308,None,1115.3882792317308,None,1115.3882792317308,None,1,2022_Apr_26_1130,Semantic-hierachy,2021.1.2,
196,Trial # 197,layer9-17_O1_to_O2.jpg,layer9-17/layer9-17_O1_to_O2.jpg,OO,layer9-17,,,,,0.0,46.0,46.0,46.0,,,,,1118.738328505773,None,4.0,2.5718030869029462,1118.738328505773,None,1118.738328505773,None,1118.738328505773,None,1,2022_Apr_26_1130,Semantic-hierachy,2021.1.2,
197,Trial # 198,layer9-17_T2_to_T9.jpg,layer9-17/layer9-17_T2_to_T9.jpg,TT,layer9-17,,,,,0.0,47.0,47.0,47.0,,,,,1121.6561286170036,None,2.0,1.7629628139548004,1121.6561286170036,None,1121.6561286170036,None,1121.6561286170036,None,1,2022_Apr_26_1130,Semantic-hierachy,2021.1.2,
198,Trial # 199,layer9-17_O6_to_T10.jpg,layer9-17/layer9-17_O6_to_T10.jpg,OT,layer9-17,,,,,0.0,48.0,48.0,48.0,,,,,1124.0737888300791,None,2.0,1.7862468091771009,1124.0737888300791,None,1124.0737888300791,None,1124.0737888300791,None,1,2022_Apr_26_1130,Semantic-hierachy,2021.1.2,
199,Trial # 200,layer0-5_T12_to_T5.jpg,layer0-5/layer0-5_T12_to_T5.jpg,TT,layer0-5,,,,,0.0,49.0,49.0,49.0,,,,,1126.5908294627443,None,1.0,1.741628356743604,1126.5908294627443,None,1126.5908294627443,None,1126.5908294627443,None,1,2022_Apr_26_1130,Semantic-hierachy,2021.1.2,
200,Trial # 201,layer0-5_O10_to_T10.jpg,layer0-5/layer0-5_O10_to_T10.jpg,OT,layer0-5,,,,,0.0,50.0,50.0,50.0,,,,,1128.892216601875,None,1.0,1.6924548097886143,1128.892216601875,None,1128.892216601875,None,1128.892216601875,None,1,2022_Apr_26_1130,Semantic-hierachy,2021.1.2,
201,Trial # 202,layer9-17_T11_to_T12.jpg,layer9-17/layer9-17_T11_to_T12.jpg,TT,layer9-17,,,,,0.0,51.0,51.0,51.0,,,,,1132.074785489123,None,2.0,1.878983082715422,1132.074785489123,None,1132.074785489123,None,1132.074785489123,None,1,2022_Apr_26_1130,Semantic-hierachy,2021.1.2,
202,Trial # 203,layer6-8_T3_to_T5.jpg,layer6-8/layer6-8_T3_to_T5.jpg,TT,layer6-8,,,,,0.0,52.0,52.0,52.0,,,,,1134.4609128991142,None,4.0,4.1420782981440425,1134.4609128991142,None,1134.4609128991142,None,1134.4609128991142,None,1,2022_Apr_26_1130,Semantic-hierachy,2021.1.2,
203,Trial # 204,layer0-5_O5_to_T10.jpg,layer0-5/layer0-5_O5_to_T10.jpg,OT,layer0-5,,,,,0.0,53.0,53.0,53.0,,,,,1141.378142222762,None,1.0,2.140020937193185,1141.378142222762,None,1141.378142222762,None,1141.378142222762,None,1,2022_Apr_26_1130,Semantic-hierachy,2021.1.2,
204,Trial # 205,layer0-5_O10_to_O5.jpg,layer0-5/layer0-5_O10_to_O5.jpg,OO,layer0-5,,,,,0.0,54.0,54.0,54.0,,,,,1144.596262415871,None,1.0,2.6261032968759537,1144.596262415871,None,1144.596262415871,None,1144.596262415871,None,1,2022_Apr_26_1130,Semantic-hierachy,2021.1.2,
205,Trial # 206,layer0-5_O5_to_O7.jpg,layer0-5/layer0-5_O5_to_O7.jpg,OO,layer0-5,,,,,0.0,55.0,55.0,55.0,,,,,1148.346772218123,None,1.0,2.7432417473755777,1148.346772218123,None,1148.346772218123,None,1148.346772218123,None,1,2022_Apr_26_1130,Semantic-hierachy,2021.1.2,
206,Trial # 207,layer0-5_O3_to_T10.jpg,layer0-5/layer0-5_O3_to_T10.jpg,OT,layer0-5,,,,,0.0,56.0,56.0,56.0,,,,,1152.2317601679824,None,1.0,1.855256650131196,1152.2317601679824,None,1152.2317601679824,None,1152.2317601679824,None,1,2022_Apr_26_1130,Semantic-hierachy,2021.1.2,
207,Trial # 208,layer0-5_O4_to_O5.jpg,layer0-5/layer0-5_O4_to_O5.jpg,OO,layer0-5,,,,,0.0,57.0,57.0,57.0,,,,,1154.7997560827062,None,1.0,1.3234053868800402,1154.7997560827062,None,1154.7997560827062,None,1154.7997560827062,None,1,2022_Apr_26_1130,Semantic-hierachy,2021.1.2,
208,Trial # 209,layer6-8_T12_to_T3.jpg,layer6-8/layer6-8_T12_to_T3.jpg,TT,layer6-8,,,,,0.0,58.0,58.0,58.0,,,,,1156.4325486258604,None,4.0,4.072374783921987,1156.4325486258604,None,1156.4325486258604,None,1156.4325486258604,None,1,2022_Apr_26_1130,Semantic-hierachy,2021.1.2,
209,Trial # 210,layer6-8_O7_to_T9.jpg,layer6-8/layer6-8_O7_to_T9.jpg,OT,layer6-8,,,,,0.0,59.0,59.0,59.0,,,,,1161.4350374969654,None,3.0,4.392986265011132,1161.4350374969654,None,1161.4350374969654,None,1161.4350374969654,None,1,2022_Apr_26_1130,Semantic-hierachy,2021.1.2,
210,Trial # 211,layer6-8_O1_to_O11.jpg,layer6-8/layer6-8_O1_to_O11.jpg,OO,layer6-8,,,,,0.0,60.0,60.0,60.0,,,,,1166.335869928822,None,3.0,4.1362848319113255,1166.335869928822,None,1166.335869928822,None,1166.335869928822,None,1,2022_Apr_26_1130,Semantic-hierachy,2021.1.2,
211,Trial # 212,layer6-8_T2_to_T6.jpg,layer6-8/layer6-8_T2_to_T6.jpg,TT,layer6-8,,,,,0.0,61.0,61.0,61.0,,,,,1170.8372566970063,None,3.0,4.204942523967475,1170.8372566970063,None,1170.8372566970063,None,1170.8372566970063,None,1,2022_Apr_26_1130,Semantic-hierachy,2021.1.2,
212,Trial # 213,layer6-8_O10_to_O6.jpg,layer6-8/layer6-8_O10_to_O6.jpg,OO,layer6-8,,,,,0.0,62.0,62.0,62.0,,,,,1176.072627123911,None,3.0,2.173124013002962,1176.072627123911,None,1176.072627123911,None,1176.072627123911,None,1,2022_Apr_26_1130,Semantic-hierachy,2021.1.2,
213,Trial # 214,layer9-17_T5_to_T8.jpg,layer9-17/layer9-17_T5_to_T8.jpg,TT,layer9-17,,,,,0.0,63.0,63.0,63.0,,,,,1178.5576767348684,None,2.0,1.722559168934822,1178.5576767348684,None,1178.5576767348684,None,1178.5576767348684,None,1,2022_Apr_26_1130,Semantic-hierachy,2021.1.2,
214,Trial # 215,layer9-17_O3_to_T10.jpg,layer9-17/layer9-17_O3_to_T10.jpg,OT,layer9-17,,,,,0.0,64.0,64.0,64.0,,,,,1181.0407553957775,None,2.0,1.5046458491124213,1181.0407553957775,None,1181.0407553957775,None,1181.0407553957775,None,1,2022_Apr_26_1130,Semantic-hierachy,2021.1.2,
215,Trial # 216,layer6-8_O12_to_O3.jpg,layer6-8/layer6-8_O12_to_O3.jpg,OO,layer6-8,,,,,0.0,65.0,65.0,65.0,,,,,1183.090782175772,None,3.0,2.593761269003153,1183.090782175772,None,1183.090782175772,None,1183.090782175772,None,1,2022_Apr_26_1130,Semantic-hierachy,2021.1.2,
216,Trial # 217,layer0-5_T10_to_T2.jpg,layer0-5/layer0-5_T10_to_T2.jpg,TT,layer0-5,,,,,0.0,66.0,66.0,66.0,,,,,1186.2426089658402,None,1.0,1.990686508826912,1186.2426089658402,None,1186.2426089658402,None,1186.2426089658402,None,1,2022_Apr_26_1130,Semantic-hierachy,2021.1.2,
217,Trial # 218,layer9-17_O10_to_O6.jpg,layer9-17/layer9-17_O10_to_O6.jpg,OO,layer9-17,,,,,0.0,67.0,67.0,67.0,,,,,1188.927248987835,None,3.0,8.007809840142727,1188.927248987835,None,1188.927248987835,None,1188.927248987835,None,1,2022_Apr_26_1130,Semantic-hierachy,2021.1.2,
218,Trial # 219,layer6-8_O6_to_O9.jpg,layer6-8/layer6-8_O6_to_O9.jpg,OO,layer6-8,,,,,0.0,68.0,68.0,68.0,,,,,1197.2960334997624,None,3.0,3.158578146714717,1197.2960334997624,None,1197.2960334997624,None,1197.2960334997624,None,1,2022_Apr_26_1130,Semantic-hierachy,2021.1.2,
219,Trial # 220,layer0-5_O7_to_T2.jpg,layer0-5/layer0-5_O7_to_T2.jpg,OT,layer0-5,,,,,0.0,69.0,69.0,69.0,,,,,1200.781108354684,None,1.0,1.5921677816659212,1200.781108354684,None,1200.781108354684,None,1200.781108354684,None,1,2022_Apr_26_1130,Semantic-hierachy,2021.1.2,
220,Trial # 221,layer9-17_T12_to_T2.jpg,layer9-17/layer9-17_T12_to_T2.jpg,TT,layer9-17,,,,,0.0,70.0,70.0,70.0,,,,,1202.6642046370544,None,2.0,4.059373402968049,1202.6642046370544,None,1202.6642046370544,None,1202.6642046370544,None,1,2022_Apr_26_1130,Semantic-hierachy,2021.1.2,
221,Trial # 222,layer9-17_O8_to_T11.jpg,layer9-17/layer9-17_O8_to_T11.jpg,OT,layer9-17,,,,,0.0,71.0,71.0,71.0,,,,,1206.9820372899994,None,4.0,2.572889276314527,1206.9820372899994,None,1206.9820372899994,None,1206.9820372899994,None,1,2022_Apr_26_1130,Semantic-hierachy,2021.1.2,
222,Trial # 223,layer6-8_O3_to_T9.jpg,layer6-8/layer6-8_O3_to_T9.jpg,OT,layer6-8,,,,,0.0,72.0,72.0,72.0,,,,,1210.6670269598253,None,3.0,2.877179174218327,1210.6670269598253,None,1210.6670269598253,None,1210.6670269598253,None,1,2022_Apr_26_1130,Semantic-hierachy,2021.1.2,
223,Trial # 224,layer0-5_O6_to_O9.jpg,layer0-5/layer0-5_O6_to_O9.jpg,OO,layer0-5,,,,,0.0,73.0,73.0,73.0,,,,,1213.9513243669644,None,1.0,3.557273359037936,1213.9513243669644,None,1213.9513243669644,None,1213.9513243669644,None,1,2022_Apr_26_1130,Semantic-hierachy,2021.1.2,
224,Trial # 225,layer0-5_O12_to_T1.jpg,layer0-5/layer0-5_O12_to_T1.jpg,OT,layer0-5,,,,,0.0,74.0,74.0,74.0,,,,,1217.7854605480095,None,1.0,1.5942644011229277,1217.7854605480095,None,1217.7854605480095,None,1217.7854605480095,None,1,2022_Apr_26_1130,Semantic-hierachy,2021.1.2,
225,Trial # 226,layer9-17_O2_to_T8.jpg,layer9-17/layer9-17_O2_to_T8.jpg,OT,layer9-17,,,,,0.0,75.0,75.0,75.0,,,,,1220.186014964711,None,2.0,3.7061476171948016,1220.186014964711,None,1220.186014964711,None,1220.186014964711,None,1,2022_Apr_26_1130,Semantic-hierachy,2021.1.2,
226,Trial # 227,layer0-5_T4_to_T8.jpg,layer0-5/layer0-5_T4_to_T8.jpg,TT,layer0-5,,,,,0.0,76.0,76.0,76.0,,,,,1224.154461434111,None,1.0,1.7091987798921764,1224.154461434111,None,1224.154461434111,None,1224.154461434111,None,1,2022_Apr_26_1130,Semantic-hierachy,2021.1.2,
227,Trial # 228,layer9-17_O2_to_T1.jpg,layer9-17/layer9-17_O2_to_T1.jpg,OT,layer9-17,,,,,0.0,77.0,77.0,77.0,,,,,1226.104975441005,None,4.0,19.281010017264634,1226.104975441005,None,1226.104975441005,None,1226.104975441005,None,1,2022_Apr_26_1130,Semantic-hierachy,2021.1.2,
228,Trial # 229,layer0-5_O11_to_O7.jpg,layer0-5/layer0-5_O11_to_O7.jpg,OO,layer0-5,,,,,0.0,78.0,78.0,78.0,,,,,1245.744758751709,None,1.0,2.1224184930324554,1245.744758751709,None,1245.744758751709,None,1245.744758751709,None,1,2022_Apr_26_1130,Semantic-hierachy,2021.1.2,
229,Trial # 230,layer6-8_T2_to_T8.jpg,layer6-8/layer6-8_T2_to_T8.jpg,TT,layer6-8,,,,,0.0,79.0,79.0,79.0,,,,,1248.2284190161154,None,3.0,2.4590286831371486,1248.2284190161154,None,1248.2284190161154,None,1248.2284190161154,None,1,2022_Apr_26_1130,Semantic-hierachy,2021.1.2,
230,Trial # 231,layer9-17_T4_to_T8.jpg,layer9-17/layer9-17_T4_to_T8.jpg,TT,layer9-17,,,,,0.0,80.0,80.0,80.0,,,,,1252.312479719054,None,2.0,3.0256525529548526,1252.312479719054,None,1252.312479719054,None,1252.312479719054,None,1,2022_Apr_26_1130,Semantic-hierachy,2021.1.2,
231,Trial # 232,layer9-17_T11_to_T3.jpg,layer9-17/layer9-17_T11_to_T3.jpg,TT,layer9-17,,,,,0.0,81.0,81.0,81.0,,,,,1255.5983183407225,None,2.0,1.3750007338821888,1255.5983183407225,None,1255.5983183407225,None,1255.5983183407225,None,1,2022_Apr_26_1130,Semantic-hierachy,2021.1.2,
232,Trial # 233,layer0-5_O3_to_T9.jpg,layer0-5/layer0-5_O3_to_T9.jpg,OT,layer0-5,,,,,0.0,82.0,82.0,82.0,,,,,1257.2137918449007,None,1.0,2.492615927942097,1257.2137918449007,None,1257.2137918449007,None,1257.2137918449007,None,1,2022_Apr_26_1130,Semantic-hierachy,2021.1.2,
233,Trial # 234,layer9-17_T7_to_T8.jpg,layer9-17/layer9-17_T7_to_T8.jpg,TT,layer9-17,,,,,0.0,83.0,83.0,83.0,,,,,1259.9486385020427,None,4.0,5.010479968972504,1259.9486385020427,None,1259.9486385020427,None,1259.9486385020427,None,1,2022_Apr_26_1130,Semantic-hierachy,2021.1.2,
234,Trial # 235,layer9-17_O3_to_O4.jpg,layer9-17/layer9-17_O3_to_O4.jpg,OO,layer9-17,,,,,0.0,84.0,84.0,84.0,,,,,1265.300942355767,None,2.0,1.5081134741194546,1265.300942355767,None,1265.300942355767,None,1265.300942355767,None,1,2022_Apr_26_1130,Semantic-hierachy,2021.1.2,
235,Trial # 236,layer6-8_O8_to_T6.jpg,layer6-8/layer6-8_O8_to_T6.jpg,OT,layer6-8,,,,,0.0,85.0,85.0,85.0,,,,,1267.1343835890293,None,3.0,3.2947888979688287,1267.1343835890293,None,1267.1343835890293,None,1267.1343835890293,None,1,2022_Apr_26_1130,Semantic-hierachy,2021.1.2,
236,Trial # 237,layer9-17_T6_to_T7.jpg,layer9-17/layer9-17_T6_to_T7.jpg,TT,layer9-17,,,,,0.0,86.0,86.0,86.0,,,,,1270.735714376904,None,2.0,5.639708421193063,1270.735714376904,None,1270.735714376904,None,1270.735714376904,None,1,2022_Apr_26_1130,Semantic-hierachy,2021.1.2,
237,Trial # 238,layer0-5_T2_to_T9.jpg,layer0-5/layer0-5_T2_to_T9.jpg,TT,layer0-5,,,,,0.0,87.0,87.0,87.0,,,,,1276.720128885005,None,1.0,2.29350351775065,1276.720128885005,None,1276.720128885005,None,1276.720128885005,None,1,2022_Apr_26_1130,Semantic-hierachy,2021.1.2,
238,Trial # 239,layer0-5_O2_to_O5.jpg,layer0-5/layer0-5_O2_to_O5.jpg,OO,layer0-5,,,,,0.0,88.0,88.0,88.0,,,,,1279.322435718961,None,1.0,3.59850223409012,1279.322435718961,None,1279.322435718961,None,1279.322435718961,None,1,2022_Apr_26_1130,Semantic-hierachy,2021.1.2,
239,Trial # 240,layer6-8_O1_to_O5.jpg,layer6-8/layer6-8_O1_to_O5.jpg,OO,layer6-8,,,,,0.0,89.0,89.0,89.0,,,,,1283.255235428922,None,4.0,29.96271816920489,1283.255235428922,None,1283.255235428922,None,1283.255235428922,None,1,2022_Apr_26_1130,Semantic-hierachy,2021.1.2,
240,Trial # 241,layer9-17_O3_to_O7.jpg,layer9-17/layer9-17_O3_to_O7.jpg,OO,layer9-17,,,,,0.0,90.0,90.0,90.0,,,,,1313.5997790996917,None,2.0,1.8769888300448656,1313.5997790996917,None,1313.5997790996917,None,1313.5997790996917,None,1,2022_Apr_26_1130,Semantic-hierachy,2021.1.2,
241,Trial # 242,layer6-8_O11_to_O8.jpg,layer6-8/layer6-8_O11_to_O8.jpg,OO,layer6-8,,,,,0.0,91.0,91.0,91.0,,,,,1315.9990946929902,None,3.0,1.8715343489311635,1315.9990946929902,None,1315.9990946929902,None,1315.9990946929902,None,1,2022_Apr_26_1130,Semantic-hierachy,2021.1.2,
242,Trial # 243,layer9-17_T1_to_T12.jpg,layer9-17/layer9-17_T1_to_T12.jpg,TT,layer9-17,,,,,0.0,92.0,92.0,92.0,,,,,1318.1331204329615,None,2.0,2.0573576241731644,1318.1331204329615,None,1318.1331204329615,None,1318.1331204329615,None,1,2022_Apr_26_1130,Semantic-hierachy,2021.1.2,
243,Trial # 244,layer9-17_O6_to_O8.jpg,layer9-17/layer9-17_O6_to_O8.jpg,OO,layer9-17,,,,,0.0,93.0,93.0,93.0,,,,,1323.4010377479717,None,2.0,16.475763427093625,1323.4010377479717,None,1323.4010377479717,None,1323.4010377479717,None,1,2022_Apr_26_1130,Semantic-hierachy,2021.1.2,
244,Trial # 245,layer6-8_O4_to_T11.jpg,layer6-8/layer6-8_O4_to_T11.jpg,OT,layer6-8,,,,,0.0,94.0,94.0,94.0,,,,,1340.1732862619683,None,3.0,3.093401490710676,1340.1732862619683,None,1340.1732862619683,None,1340.1732862619683,None,1,2022_Apr_26_1130,Semantic-hierachy,2021.1.2,
245,Trial # 246,layer9-17_T10_to_T3.jpg,layer9-17/layer9-17_T10_to_T3.jpg,TT,layer9-17,,,,,0.0,95.0,95.0,95.0,,,,,1343.6076962128282,None,2.0,3.126292927190661,1343.6076962128282,None,1343.6076962128282,None,1343.6076962128282,None,1,2022_Apr_26_1130,Semantic-hierachy,2021.1.2,
246,Trial # 247,layer0-5_O10_to_O8.jpg,layer0-5/layer0-5_O10_to_O8.jpg,OO,layer0-5,,,,,0.0,96.0,96.0,96.0,,,,,1346.97514339583,None,1.0,1.958910380024463,1346.97514339583,None,1346.97514339583,None,1346.97514339583,None,1,2022_Apr_26_1130,Semantic-hierachy,2021.1.2,
247,Trial # 248,layer6-8_O3_to_T12.jpg,layer6-8/layer6-8_O3_to_T12.jpg,OT,layer6-8,,,,,0.0,97.0,97.0,97.0,,,,,1349.077371217776,None,3.0,3.83953313017264,1349.077371217776,None,1349.077371217776,None,1349.077371217776,None,1,2022_Apr_26_1130,Semantic-hierachy,2021.1.2,
248,Trial # 249,layer0-5_O12_to_T9.jpg,layer0-5/layer0-5_O12_to_T9.jpg,OT,layer0-5,,,,,0.0,98.0,98.0,98.0,,,,,1353.160384574905,None,1.0,1.9131476688198743,1353.160384574905,None,1353.160384574905,None,1353.160384574905,None,1,2022_Apr_26_1130,Semantic-hierachy,2021.1.2,
249,Trial # 250,layer9-17_T1_to_T9.jpg,layer9-17/layer9-17_T1_to_T9.jpg,TT,layer9-17,,,,,0.0,99.0,99.0,99.0,,,,,1355.578211195767,None,4.0,6.939395065885037,1355.578211195767,None,1355.578211195767,None,1355.578211195767,None,1,2022_Apr_26_1130,Semantic-hierachy,2021.1.2,
250,Trial # 251,layer9-17_T11_to_T8.jpg,layer9-17/layer9-17_T11_to_T8.jpg,TT,layer9-17,,,,,0.0,100.0,100.0,100.0,,,,,1362.7304533640854,None,2.0,2.9946095822379,1362.7304533640854,None,1362.7304533640854,None,1362.7304533640854,None,1,2022_Apr_26_1130,Semantic-hierachy,2021.1.2,
251,Trial # 252,layer9-17_T11_to_T5.jpg,layer9-17/layer9-17_T11_to_T5.jpg,TT,layer9-17,,,,,0.0,101.0,101.0,101.0,,,,,1366.0980487237684,None,4.0,5.428293630015105,1366.0980487237684,None,1366.0980487237684,None,1366.0980487237684,None,1,2022_Apr_26_1130,Semantic-hierachy,2021.1.2,
252,Trial # 253,layer6-8_T10_to_T12.jpg,layer6-8/layer6-8_T10_to_T12.jpg,TT,layer6-8,,,,,0.0,102.0,102.0,102.0,,,,,1371.9494082317688,None,4.0,2.789842309895903,1371.9494082317688,None,1371.9494082317688,None,1371.9494082317688,None,1,2022_Apr_26_1130,Semantic-hierachy,2021.1.2,
253,Trial # 254,layer9-17_O5_to_T1.jpg,layer9-17/layer9-17_O5_to_T1.jpg,OT,layer9-17,,,,,0.0,103.0,103.0,103.0,,,,,1375.0347612947226,None,2.0,2.7059097248129547,1375.0347612947226,None,1375.0347612947226,None,1375.0347612947226,None,1,2022_Apr_26_1130,Semantic-hierachy,2021.1.2,
254,Trial # 255,layer6-8_T2_to_T3.jpg,layer6-8/layer6-8_T2_to_T3.jpg,TT,layer6-8,,,,,0.0,104.0,104.0,104.0,,,,,1378.55223389389,None,3.0,2.5892991442233324,1378.55223389389,None,1378.55223389389,None,1378.55223389389,None,1,2022_Apr_26_1130,Semantic-hierachy,2021.1.2,
255,Trial # 256,layer6-8_O2_to_T6.jpg,layer6-8/layer6-8_O2_to_T6.jpg,OT,layer6-8,,,,,0.0,105.0,105.0,105.0,,,,,1382.03649686696,None,3.0,1.8252931772731245,1382.03649686696,None,1382.03649686696,None,1382.03649686696,None,1,2022_Apr_26_1130,Semantic-hierachy,2021.1.2,
256,Trial # 257,layer6-8_T11_to_T9.jpg,layer6-8/layer6-8_T11_to_T9.jpg,TT,layer6-8,,,,,0.0,106.0,106.0,106.0,,,,,1384.55473234877,None,4.0,5.045659866183996,1384.55473234877,None,1384.55473234877,None,1384.55473234877,None,1,2022_Apr_26_1130,Semantic-hierachy,2021.1.2,
257,Trial # 258,layer6-8_O5_to_T9.jpg,layer6-8/layer6-8_O5_to_T9.jpg,OT,layer6-8,,,,,0.0,107.0,107.0,107.0,,,,,1390.223155762069,None,3.0,2.404968226794153,1390.223155762069,None,1390.223155762069,None,1390.223155762069,None,1,2022_Apr_26_1130,Semantic-hierachy,2021.1.2,
258,Trial # 259,layer6-8_O9_to_T8.jpg,layer6-8/layer6-8_O9_to_T8.jpg,OT,layer6-8,,,,,0.0,108.0,108.0,108.0,,,,,1392.9892618968152,None,3.0,15.14385630795732,1392.9892618968152,None,1392.9892618968152,None,1392.9892618968152,None,1,2022_Apr_26_1130,Semantic-hierachy,2021.1.2,
259,Trial # 260,layer6-8_T1_to_T5.jpg,layer6-8/layer6-8_T1_to_T5.jpg,TT,layer6-8,,,,,0.0,109.0,109.0,109.0,,,,,1411.4122713278048,None,4.0,8.707235152833164,1411.4122713278048,None,1411.4122713278048,None,1411.4122713278048,None,1,2022_Apr_26_1130,Semantic-hierachy,2021.1.2,
260,Trial # 261,layer0-5_O11_to_T2.jpg,layer0-5/layer0-5_O11_to_T2.jpg,OT,layer0-5,,,,,0.0,110.0,110.0,110.0,,,,,1421.4986134278588,None,1.0,1.991650917101652,1421.4986134278588,None,1421.4986134278588,None,1421.4986134278588,None,1,2022_Apr_26_1130,Semantic-hierachy,2021.1.2,
261,Trial # 262,layer0-5_O7_to_T4.jpg,layer0-5/layer0-5_O7_to_T4.jpg,OT,layer0-5,,,,,0.0,111.0,111.0,111.0,,,,,1424.1333521888591,None,1.0,2.0561735327355564,1424.1333521888591,None,1424.1333521888591,None,1424.1333521888591,None,1,2022_Apr_26_1130,Semantic-hierachy,2021.1.2,
262,Trial # 263,layer6-8_T12_to_T8.jpg,layer6-8/layer6-8_T12_to_T8.jpg,TT,layer6-8,,,,,0.0,112.0,112.0,112.0,,,,,1426.5338464328088,None,2.0,4.242707182653248,1426.5338464328088,None,1426.5338464328088,None,1426.5338464328088,None,1,2022_Apr_26_1130,Semantic-hierachy,2021.1.2,
263,Trial # 264,layer6-8_O4_to_O9.jpg,layer6-8/layer6-8_O4_to_O9.jpg,OO,layer6-8,,,,,0.0,113.0,113.0,113.0,,,,,1431.035087835975,None,4.0,6.422906829975545,1431.035087835975,None,1431.035087835975,None,1431.035087835975,None,1,2022_Apr_26_1130,Semantic-hierachy,2021.1.2,
264,Trial # 265,layer0-5_T1_to_T5.jpg,layer0-5/layer0-5_T1_to_T5.jpg,TT,layer0-5,,,,,0.0,114.0,114.0,114.0,,,,,1438.2540032169782,None,1.0,2.891422403976321,1438.2540032169782,None,1438.2540032169782,None,1438.2540032169782,None,1,2022_Apr_26_1130,Semantic-hierachy,2021.1.2,
265,Trial # 266,layer0-5_O12_to_O7.jpg,layer0-5/layer0-5_O12_to_O7.jpg,OO,layer0-5,,,,,0.0,115.0,115.0,115.0,,,,,1442.2712520309724,None,1.0,2.130851071793586,1442.2712520309724,None,1442.2712520309724,None,1442.2712520309724,None,1,2022_Apr_26_1130,Semantic-hierachy,2021.1.2,
266,Trial # 267,layer6-8_T8_to_T9.jpg,layer6-8/layer6-8_T8_to_T9.jpg,TT,layer6-8,,,,,0.0,116.0,116.0,116.0,,,,,1447.4070689189248,None,4.0,3.935531606897712,1447.4070689189248,None,1447.4070689189248,None,1447.4070689189248,None,1,2022_Apr_26_1130,Semantic-hierachy,2021.1.2,
267,Trial # 268,layer9-17_O11_to_T10.jpg,layer9-17/layer9-17_O11_to_T10.jpg,OT,layer9-17,,,,,0.0,117.0,117.0,117.0,,,,,1452.2916409578174,None,2.0,4.073824823834002,1452.2916409578174,None,1452.2916409578174,None,1452.2916409578174,None,1,2022_Apr_26_1130,Semantic-hierachy,2021.1.2,
268,Trial # 269,layer0-5_O8_to_T9.jpg,layer0-5/layer0-5_O8_to_T9.jpg,OT,layer0-5,,,,,0.0,118.0,118.0,118.0,,,,,1456.9259483888743,None,1.0,3.077815750148148,1456.9259483888743,None,1456.9259483888743,None,1456.9259483888743,None,1,2022_Apr_26_1130,Semantic-hierachy,2021.1.2,
269,Trial # 270,layer9-17_O10_to_O11.jpg,layer9-17/layer9-17_O10_to_O11.jpg,OO,layer9-17,,,,,0.0,119.0,119.0,119.0,,,,,1460.4435063460842,None,3.0,2.453895517624914,1460.4435063460842,None,1460.4435063460842,None,1460.4435063460842,None,1,2022_Apr_26_1130,Semantic-hierachy,2021.1.2,
270,Trial # 271,layer0-5_T1_to_T9.jpg,layer0-5/layer0-5_T1_to_T9.jpg,TT,layer0-5,,,,,0.0,120.0,120.0,120.0,,,,,1463.4773826617748,None,1.0,2.676465721800924,1463.4773826617748,None,1463.4773826617748,None,1463.4773826617748,None,1,2022_Apr_26_1130,Semantic-hierachy,2021.1.2,
271,Trial # 272,layer6-8_T11_to_T8.jpg,layer6-8/layer6-8_T11_to_T8.jpg,TT,layer6-8,,,,,0.0,121.0,121.0,121.0,,,,,1466.9454306401312,None,4.0,3.306691119913012,1466.9454306401312,None,1466.9454306401312,None,1466.9454306401312,None,1,2022_Apr_26_1130,Semantic-hierachy,2021.1.2,
272,Trial # 273,layer9-17_O10_to_O12.jpg,layer9-17/layer9-17_O10_to_O12.jpg,OO,layer9-17,,,,,0.0,122.0,122.0,122.0,,,,,1470.5635671238415,None,2.0,7.638508374802768,1470.5635671238415,None,1470.5635671238415,None,1470.5635671238415,None,1,2022_Apr_26_1130,Semantic-hierachy,2021.1.2,
273,Trial # 274,layer0-5_T12_to_T6.jpg,layer0-5/layer0-5_T12_to_T6.jpg,TT,layer0-5,,,,,0.0,123.0,123.0,123.0,,,,,1478.4819099646993,None,1.0,2.1415105680935085,1478.4819099646993,None,1478.4819099646993,None,1478.4819099646993,None,1,2022_Apr_26_1130,Semantic-hierachy,2021.1.2,
274,Trial # 275,layer9-17_O11_to_O5.jpg,layer9-17/layer9-17_O11_to_O5.jpg,OO,layer9-17,,,,,0.0,124.0,124.0,124.0,,,,,1480.9843169990927,None,2.0,11.310009927954525,1480.9843169990927,None,1480.9843169990927,None,1480.9843169990927,None,1,2022_Apr_26_1130,Semantic-hierachy,2021.1.2,
275,Trial # 276,layer9-17_O1_to_O4.jpg,layer9-17/layer9-17_O1_to_O4.jpg,OO,layer9-17,,,,,0.0,125.0,125.0,125.0,,,,,1492.8376389620826,None,2.0,39.78687682375312,1492.8376389620826,None,1492.8376389620826,None,1492.8376389620826,None,1,2022_Apr_26_1130,Semantic-hierachy,2021.1.2,
276,Trial # 277,layer6-8_O11_to_O3.jpg,layer6-8/layer6-8_O11_to_O3.jpg,OO,layer6-8,,,,,0.0,126.0,126.0,126.0,,,,,1533.2661455171185,None,3.0,1.9860160029493272,1533.2661455171185,None,1533.2661455171185,None,1533.2661455171185,None,1,2022_Apr_26_1130,Semantic-hierachy,2021.1.2,
277,Trial # 278,layer6-8_T10_to_T11.jpg,layer6-8/layer6-8_T10_to_T11.jpg,TT,layer6-8,,,,,0.0,127.0,127.0,127.0,,,,,1535.9670317596756,None,4.0,2.107952115125954,1535.9670317596756,None,1535.9670317596756,None,1535.9670317596756,None,1,2022_Apr_26_1130,Semantic-hierachy,2021.1.2,
278,Trial # 279,layer0-5_O7_to_T3.jpg,layer0-5/layer0-5_O7_to_T3.jpg,OT,layer0-5,,,,,0.0,128.0,128.0,128.0,,,,,1538.433698398061,None,1.0,2.359680243767798,1538.433698398061,None,1538.433698398061,None,1538.433698398061,None,1,2022_Apr_26_1130,Semantic-hierachy,2021.1.2,
279,Trial # 280,layer9-17_T1_to_T10.jpg,layer9-17/layer9-17_T1_to_T10.jpg,TT,layer9-17,,,,,0.0,129.0,129.0,129.0,,,,,1541.0856851539577,None,2.0,2.2898128647357225,1541.0856851539577,None,1541.0856851539577,None,1541.0856851539577,None,1,2022_Apr_26_1130,Semantic-hierachy,2021.1.2,
280,Trial # 281,layer9-17_O6_to_T7.jpg,layer9-17/layer9-17_O6_to_T7.jpg,OT,layer9-17,,,,,0.0,130.0,130.0,130.0,,,,,1544.153855822049,None,2.0,9.98759745201096,1544.153855822049,None,1544.153855822049,None,1544.153855822049,None,1,2022_Apr_26_1130,Semantic-hierachy,2021.1.2,
281,Trial # 282,layer0-5_O10_to_O7.jpg,layer0-5/layer0-5_O10_to_O7.jpg,OO,layer0-5,,,,,0.0,131.0,131.0,131.0,,,,,1554.4406673586927,None,1.0,1.4932239758782089,1554.4406673586927,None,1554.4406673586927,None,1554.4406673586927,None,1,2022_Apr_26_1130,Semantic-hierachy,2021.1.2,
282,Trial # 283,layer0-5_O1_to_O11.jpg,layer0-5/layer0-5_O1_to_O11.jpg,OO,layer0-5,,,,,0.0,132.0,132.0,132.0,,,,,1556.1065859207883,None,1.0,1.2425053222104907,1556.1065859207883,None,1556.1065859207883,None,1556.1065859207883,None,1,2022_Apr_26_1130,Semantic-hierachy,2021.1.2,
283,Trial # 284,layer6-8_O7_to_O8.jpg,layer6-8/layer6-8_O7_to_O8.jpg,OO,layer6-8,,,,,0.0,133.0,133.0,133.0,,,,,1557.5063253538683,None,2.0,2.028291312977672,1557.5063253538683,None,1557.5063253538683,None,1557.5063253538683,None,1,2022_Apr_26_1130,Semantic-hierachy,2021.1.2,
284,Trial # 285,layer0-5_T7_to_T8.jpg,layer0-5/layer0-5_T7_to_T8.jpg,TT,layer0-5,,,,,0.0,134.0,134.0,134.0,,,,,1559.6409686696716,None,1.0,10.230998910032213,1559.6409686696716,None,1559.6409686696716,None,1559.6409686696716,None,1,2022_Apr_26_1130,Semantic-hierachy,2021.1.2,
285,Trial # 286,layer9-17_T11_to_T6.jpg,layer9-17/layer9-17_T11_to_T6.jpg,TT,layer9-17,,,,,0.0,135.0,135.0,135.0,,,,,1572.261258094106,None,2.0,2.628014743793756,1572.261258094106,None,1572.261258094106,None,1572.261258094106,None,1,2022_Apr_26_1130,Semantic-hierachy,2021.1.2,
286,Trial # 287,layer0-5_T2_to_T7.jpg,layer0-5/layer0-5_T2_to_T7.jpg,TT,layer0-5,,,,,0.0,136.0,136.0,136.0,,,,,1575.346843560692,None,1.0,1.6077542291022835,1575.346843560692,None,1575.346843560692,None,1575.346843560692,None,1,2022_Apr_26_1130,Semantic-hierachy,2021.1.2,
287,Trial # 288,layer9-17_O10_to_O2.jpg,layer9-17/layer9-17_O10_to_O2.jpg,OO,layer9-17,,,,,0.0,137.0,137.0,137.0,,,,,1577.179483324755,None,2.0,1.793839457910508,1577.179483324755,None,1577.179483324755,None,1577.179483324755,None,1,2022_Apr_26_1130,Semantic-hierachy,2021.1.2,
288,Trial # 289,layer0-5_T10_to_T9.jpg,layer0-5/layer0-5_T10_to_T9.jpg,TT,layer0-5,,,,,0.0,138.0,138.0,138.0,,,,,1579.1640567537395,None,1.0,1.709544934798032,1579.1640567537395,None,1579.1640567537395,None,1579.1640567537395,None,1,2022_Apr_26_1130,Semantic-hierachy,2021.1.2,
289,Trial # 290,layer6-8_O11_to_O5.jpg,layer6-8/layer6-8_O11_to_O5.jpg,OO,layer6-8,,,,,0.0,139.0,139.0,139.0,,,,,1581.1140114837326,None,2.0,1.5400297828018663,1581.1140114837326,None,1581.1140114837326,None,1581.1140114837326,None,1,2022_Apr_26_1130,Semantic-hierachy,2021.1.2,
290,Trial # 291,layer6-8_O3_to_O7.jpg,layer6-8/layer6-8_O3_to_O7.jpg,OO,layer6-8,,,,,0.0,140.0,140.0,140.0,,,,,1582.881164421793,None,2.0,3.591879895888269,1582.881164421793,None,1582.881164421793,None,1582.881164421793,None,1,2022_Apr_26_1130,Semantic-hierachy,2021.1.2,
291,Trial # 292,layer9-17_O12_to_T11.jpg,layer9-17/layer9-17_O12_to_T11.jpg,OT,layer9-17,,,,,0.0,141.0,141.0,141.0,,,,,1586.6994209489785,None,2.0,7.375545019749552,1586.6994209489785,None,1586.6994209489785,None,1586.6994209489785,None,1,2022_Apr_26_1130,Semantic-hierachy,2021.1.2,
292,Trial # 293,layer9-17_O2_to_O4.jpg,layer9-17/layer9-17_O2_to_O4.jpg,OO,layer9-17,,,,,0.0,142.0,142.0,142.0,,,,,1594.3023031218909,None,4.0,2.492404885124415,1594.3023031218909,None,1594.3023031218909,None,1594.3023031218909,None,1,2022_Apr_26_1130,Semantic-hierachy,2021.1.2,
293,Trial # 294,layer6-8_O1_to_T12.jpg,layer6-8/layer6-8_O1_to_T12.jpg,OT,layer6-8,,,,,0.0,143.0,143.0,143.0,,,,,1597.1359597691337,None,3.0,1.95301431696862,1597.1359597691337,None,1597.1359597691337,None,1597.1359597691337,None,1,2022_Apr_26_1130,Semantic-hierachy,2021.1.2,
294,Trial # 295,layer9-17_O11_to_T5.jpg,layer9-17/layer9-17_O11_to_T5.jpg,OT,layer9-17,,,,,0.0,144.0,144.0,144.0,,,,,1599.2699943878688,None,4.0,6.108463611919433,1599.2699943878688,None,1599.2699943878688,None,1599.2699943878688,None,1,2022_Apr_26_1130,Semantic-hierachy,2021.1.2,
295,Trial # 296,layer0-5_O10_to_O9.jpg,layer0-5/layer0-5_O10_to_O9.jpg,OO,layer0-5,,,,,0.0,145.0,145.0,145.0,,,,,1605.6896987156942,None,1.0,1.7689526244066656,1605.6896987156942,None,1605.6896987156942,None,1605.6896987156942,None,1,2022_Apr_26_1130,Semantic-hierachy,2021.1.2,
296,Trial # 297,layer6-8_O12_to_T10.jpg,layer6-8/layer6-8_O12_to_T10.jpg,OT,layer6-8,,,,,0.0,146.0,146.0,146.0,,,,,1607.9225624050014,None,4.0,3.0278567308560014,1607.9225624050014,None,1607.9225624050014,None,1607.9225624050014,None,1,2022_Apr_26_1130,Semantic-hierachy,2021.1.2,
297,Trial # 298,layer6-8_O3_to_T2.jpg,layer6-8/layer6-8_O3_to_T2.jpg,OT,layer6-8,,,,,0.0,147.0,147.0,147.0,,,,,1611.3078757966869,None,1.0,1.587729045189917,1611.3078757966869,None,1611.3078757966869,None,1611.3078757966869,None,1,2022_Apr_26_1130,Semantic-hierachy,2021.1.2,
298,Trial # 299,layer9-17_O2_to_T5.jpg,layer9-17/layer9-17_O2_to_T5.jpg,OT,layer9-17,,,,,0.0,148.0,148.0,148.0,,,,,1613.057464198675,None,1.0,2.7888930630870163,1613.057464198675,None,1613.057464198675,None,1613.057464198675,None,1,2022_Apr_26_1130,Semantic-hierachy,2021.1.2,
299,Trial # 300,layer0-5_O3_to_T7.jpg,layer0-5/layer0-5_O3_to_T7.jpg,OT,layer0-5,,,,,0.0,149.0,149.0,149.0,,,,,1616.0261433660053,None,1.0,1.4077901602722704,1616.0261433660053,None,1616.0261433660053,None,1616.0261433660053,None,1,2022_Apr_26_1130,Semantic-hierachy,2021.1.2,
300,Trial # 301,layer9-17_O11_to_O6.jpg,layer9-17/layer9-17_O11_to_O6.jpg,OO,layer9-17,,,,,,,,,0.0,0.0,0.0,0.0,1620.477143771015,None,3.0,5.467224036809057,1620.477143771015,None,1620.477143771015,None,1620.477143771015,None,1,2022_Apr_26_1130,Semantic-hierachy,2021.1.2,
301,Trial # 302,layer0-5_O3_to_O7.jpg,layer0-5/layer0-5_O3_to_O7.jpg,OO,layer0-5,,,,,,,,,0.0,1.0,1.0,1.0,1626.1947750579566,None,1.0,1.52407969487831,1626.1947750579566,None,1626.1947750579566,None,1626.1947750579566,None,1,2022_Apr_26_1130,Semantic-hierachy,2021.1.2,
302,Trial # 303,layer6-8_O11_to_T3.jpg,layer6-8/layer6-8_O11_to_T3.jpg,OT,layer6-8,,,,,,,,,0.0,2.0,2.0,2.0,1627.928177294787,None,3.0,5.169926831964403,1627.928177294787,None,1627.928177294787,None,1627.928177294787,None,1,2022_Apr_26_1130,Semantic-hierachy,2021.1.2,
303,Trial # 304,layer6-8_O2_to_T7.jpg,layer6-8/layer6-8_O2_to_T7.jpg,OT,layer6-8,,,,,,,,,0.0,3.0,3.0,3.0,1633.2969827130437,None,3.0,1.6549433963373303,1633.2969827130437,None,1633.2969827130437,None,1633.2969827130437,None,1,2022_Apr_26_1130,Semantic-hierachy,2021.1.2,
304,Trial # 305,layer0-5_T1_to_T7.jpg,layer0-5/layer0-5_T1_to_T7.jpg,TT,layer0-5,,,,,,,,,0.0,4.0,4.0,4.0,1635.114495286718,None,1.0,1.5375750777311623,1635.114495286718,None,1635.114495286718,None,1635.114495286718,None,1,2022_Apr_26_1130,Semantic-hierachy,2021.1.2,
305,Trial # 306,layer6-8_O7_to_T11.jpg,layer6-8/layer6-8_O7_to_T11.jpg,OT,layer6-8,,,,,,,,,0.0,5.0,5.0,5.0,1636.8150564627722,None,3.0,1.971980320289731,1636.8150564627722,None,1636.8150564627722,None,1636.8150564627722,None,1,2022_Apr_26_1130,Semantic-hierachy,2021.1.2,
306,Trial # 307,layer9-17_O5_to_T5.jpg,layer9-17/layer9-17_O5_to_T5.jpg,OT,layer9-17,,,,,,,,,0.0,6.0,6.0,6.0,1639.2829981609248,None,2.0,1.5924141658470037,1639.2829981609248,None,1639.2829981609248,None,1639.2829981609248,None,1,2022_Apr_26_1130,Semantic-hierachy,2021.1.2,
307,Trial # 308,layer9-17_T12_to_T5.jpg,layer9-17/layer9-17_T12_to_T5.jpg,TT,layer9-17,,,,,,,,,0.0,7.0,7.0,7.0,1641.0994349541145,None,2.0,1.42684752587229,1641.0994349541145,None,1641.0994349541145,None,1641.0994349541145,None,1,2022_Apr_26_1130,Semantic-hierachy,2021.1.2,
308,Trial # 309,layer6-8_O11_to_O2.jpg,layer6-8/layer6-8_O11_to_O2.jpg,OO,layer6-8,,,,,,,,,0.0,8.0,8.0,8.0,1642.7669943207875,None,3.0,1.5935878450982273,1642.7669943207875,None,1642.7669943207875,None,1642.7669943207875,None,1,2022_Apr_26_1130,Semantic-hierachy,2021.1.2,
309,Trial # 310,layer6-8_O10_to_O7.jpg,layer6-8/layer6-8_O10_to_O7.jpg,OO,layer6-8,,,,,,,,,0.0,9.0,9.0,9.0,1644.5181187400594,None,4.0,3.460126121994108,1644.5181187400594,None,1644.5181187400594,None,1644.5181187400594,None,1,2022_Apr_26_1130,Semantic-hierachy,2021.1.2,
310,Trial # 311,layer9-17_O10_to_T11.jpg,layer9-17/layer9-17_O10_to_T11.jpg,OT,layer9-17,,,,,,,,,0.0,10.0,10.0,10.0,1648.7863687830975,None,4.0,6.794301428832114,1648.7863687830975,None,1648.7863687830975,None,1648.7863687830975,None,1,2022_Apr_26_1130,Semantic-hierachy,2021.1.2,
311,Trial # 312,layer6-8_O11_to_O12.jpg,layer6-8/layer6-8_O11_to_O12.jpg,OO,layer6-8,,,,,,,,,0.0,11.0,11.0,11.0,1656.070772553794,None,3.0,4.077436362858862,1656.070772553794,None,1656.070772553794,None,1656.070772553794,None,1,2022_Apr_26_1130,Semantic-hierachy,2021.1.2,
312,Trial # 313,layer9-17_O9_to_T8.jpg,layer9-17/layer9-17_O9_to_T8.jpg,OT,layer9-17,,,,,,,,,0.0,12.0,12.0,12.0,1661.2061222000048,None,4.0,2.9566680300049484,1661.2061222000048,None,1661.2061222000048,None,1661.2061222000048,None,1,2022_Apr_26_1130,Semantic-hierachy,2021.1.2,
313,Trial # 314,layer0-5_O3_to_T2.jpg,layer0-5/layer0-5_O3_to_T2.jpg,OT,layer0-5,,,,,,,,,0.0,13.0,13.0,13.0,1664.39124532789,None,1.0,2.2269334737211466,1664.39124532789,None,1664.39124532789,None,1664.39124532789,None,1,2022_Apr_26_1130,Semantic-hierachy,2021.1.2,
314,Trial # 315,layer9-17_T1_to_T11.jpg,layer9-17/layer9-17_T1_to_T11.jpg,TT,layer9-17,,,,,,,,,0.0,14.0,14.0,14.0,1666.8411361039616,None,2.0,1.5096474983729422,1666.8411361039616,None,1666.8411361039616,None,1666.8411361039616,None,1,2022_Apr_26_1130,Semantic-hierachy,2021.1.2,
315,Trial # 316,layer6-8_T10_to_T7.jpg,layer6-8/layer6-8_T10_to_T7.jpg,TT,layer6-8,,,,,,,,,0.0,15.0,15.0,15.0,1668.54082907876,None,4.0,9.255849129054695,1668.54082907876,None,1668.54082907876,None,1668.54082907876,None,1,2022_Apr_26_1130,Semantic-hierachy,2021.1.2,
316,Trial # 317,layer0-5_T6_to_T7.jpg,layer0-5/layer0-5_T6_to_T7.jpg,TT,layer0-5,,,,,,,,,0.0,16.0,16.0,16.0,1677.9442607900128,None,1.0,1.9590159081853928,1677.9442607900128,None,1677.9442607900128,None,1677.9442607900128,None,1,2022_Apr_26_1130,Semantic-hierachy,2021.1.2,
317,Trial # 318,layer9-17_O1_to_T3.jpg,layer9-17/layer9-17_O1_to_T3.jpg,OT,layer9-17,,,,,,,,,0.0,17.0,17.0,17.0,1680.095027858857,None,2.0,2.5055049462243915,1680.095027858857,None,1680.095027858857,None,1680.095027858857,None,1,2022_Apr_26_1130,Semantic-hierachy,2021.1.2,
318,Trial # 319,layer0-5_O2_to_T5.jpg,layer0-5/layer0-5_O2_to_T5.jpg,OT,layer0-5,,,,,,,,,0.0,18.0,18.0,18.0,1682.778648593929,None,1.0,5.940256665926427,1682.778648593929,None,1682.778648593929,None,1682.778648593929,None,1,2022_Apr_26_1130,Semantic-hierachy,2021.1.2,
319,Trial # 320,layer6-8_O7_to_T10.jpg,layer6-8/layer6-8_O7_to_T10.jpg,OT,layer6-8,,,,,,,,,0.0,19.0,19.0,19.0,1688.9812038848177,None,1.0,1.2263535438105464,1688.9812038848177,None,1688.9812038848177,None,1688.9812038848177,None,1,2022_Apr_26_1130,Semantic-hierachy,2021.1.2,
320,Trial # 321,layer0-5_O5_to_O6.jpg,layer0-5/layer0-5_O5_to_O6.jpg,OO,layer0-5,,,,,,,,,0.0,20.0,20.0,20.0,1691.9648956358433,None,1.0,3.5572956730611622,1691.9648956358433,None,1691.9648956358433,None,1691.9648956358433,None,1,2022_Apr_26_1130,Semantic-hierachy,2021.1.2,
321,Trial # 322,layer9-17_O5_to_T4.jpg,layer9-17/layer9-17_O5_to_T4.jpg,OT,layer9-17,,,,,,,,,0.0,21.0,21.0,21.0,1695.749676527921,None,2.0,2.3567969878204167,1695.749676527921,None,1695.749676527921,None,1695.749676527921,None,1,2022_Apr_26_1130,Semantic-hierachy,2021.1.2,
322,Trial # 323,layer0-5_T12_to_T2.jpg,layer0-5/layer0-5_T12_to_T2.jpg,TT,layer0-5,,,,,,,,,0.0,22.0,22.0,22.0,1698.350382803008,None,1.0,5.443634743336588,1698.350382803008,None,1698.350382803008,None,1698.350382803008,None,1,2022_Apr_26_1130,Semantic-hierachy,2021.1.2,
323,Trial # 324,layer0-5_O2_to_O4.jpg,layer0-5/layer0-5_O2_to_O4.jpg,OO,layer0-5,,,,,,,,,0.0,23.0,23.0,23.0,1704.135668050032,None,1.0,1.304206409025937,1704.135668050032,None,1704.135668050032,None,1704.135668050032,None,1,2022_Apr_26_1130,Semantic-hierachy,2021.1.2,
324,Trial # 325,layer6-8_O1_to_O9.jpg,layer6-8/layer6-8_O1_to_O9.jpg,OO,layer6-8,,,,,,,,,0.0,24.0,24.0,24.0,1705.636895437725,None,4.0,2.4758659857325256,1705.636895437725,None,1705.636895437725,None,1705.636895437725,None,1,2022_Apr_26_1130,Semantic-hierachy,2021.1.2,
325,Trial # 326,layer0-5_T3_to_T5.jpg,layer0-5/layer0-5_T3_to_T5.jpg,TT,layer0-5,,,,,,,,,0.0,25.0,25.0,25.0,1708.4030879307538,None,1.0,2.1408547339960933,1708.4030879307538,None,1708.4030879307538,None,1708.4030879307538,None,1,2022_Apr_26_1130,Semantic-hierachy,2021.1.2,
326,Trial # 327,layer6-8_O8_to_T12.jpg,layer6-8/layer6-8_O8_to_T12.jpg,OT,layer6-8,,,,,,,,,0.0,26.0,26.0,26.0,1710.7213941100051,None,3.0,3.105678540188819,1710.7213941100051,None,1710.7213941100051,None,1710.7213941100051,None,1,2022_Apr_26_1130,Semantic-hierachy,2021.1.2,
327,Trial # 328,layer9-17_T11_to_T4.jpg,layer9-17/layer9-17_T11_to_T4.jpg,TT,layer9-17,,,,,,,,,0.0,27.0,27.0,27.0,1714.0232059899718,None,2.0,1.9955835221335287,1714.0232059899718,None,1714.0232059899718,None,1714.0232059899718,None,1,2022_Apr_26_1130,Semantic-hierachy,2021.1.2,
328,Trial # 329,layer9-17_O6_to_T2.jpg,layer9-17/layer9-17_O6_to_T2.jpg,OT,layer9-17,,,,,,,,,0.0,28.0,28.0,28.0,1716.2224308610894,None,2.0,1.019437305163592,1716.2224308610894,None,1716.2224308610894,None,1716.2224308610894,None,1,2022_Apr_26_1130,Semantic-hierachy,2021.1.2,
329,Trial # 330,layer9-17_T10_to_T9.jpg,layer9-17/layer9-17_T10_to_T9.jpg,TT,layer9-17,,,,,,,,,0.0,29.0,29.0,29.0,1717.5059126857668,None,2.0,3.077121509704739,1717.5059126857668,None,1717.5059126857668,None,1717.5059126857668,None,1,2022_Apr_26_1130,Semantic-hierachy,2021.1.2,
330,Trial # 331,layer0-5_O2_to_O3.jpg,layer0-5/layer0-5_O2_to_O3.jpg,OO,layer0-5,,,,,,,,,0.0,30.0,30.0,30.0,1720.7405914980918,None,1.0,2.07420723233372,1720.7405914980918,None,1720.7405914980918,None,1720.7405914980918,None,1,2022_Apr_26_1130,Semantic-hierachy,2021.1.2,
331,Trial # 332,layer6-8_O1_to_O12.jpg,layer6-8/layer6-8_O1_to_O12.jpg,OO,layer6-8,,,,,,,,,0.0,31.0,31.0,31.0,1723.108190535102,None,3.0,3.4573583006858826,1723.108190535102,None,1723.108190535102,None,1723.108190535102,None,1,2022_Apr_26_1130,Semantic-hierachy,2021.1.2,
332,Trial # 333,layer0-5_O5_to_T12.jpg,layer0-5/layer0-5_O5_to_T12.jpg,OT,layer0-5,,,,,,,,,0.0,32.0,32.0,32.0,1726.9096286520362,None,1.0,1.586427766829729,1726.9096286520362,None,1726.9096286520362,None,1726.9096286520362,None,1,2022_Apr_26_1130,Semantic-hierachy,2021.1.2,
333,Trial # 334,layer9-17_O11_to_T6.jpg,layer9-17/layer9-17_O11_to_T6.jpg,OT,layer9-17,,,,,,,,,0.0,33.0,33.0,33.0,1728.6774196107872,None,3.0,2.3816166780889034,1728.6774196107872,None,1728.6774196107872,None,1728.6774196107872,None,1,2022_Apr_26_1130,Semantic-hierachy,2021.1.2,
334,Trial # 335,layer0-5_O4_to_T1.jpg,layer0-5/layer0-5_O4_to_T1.jpg,OT,layer0-5,,,,,,,,,0.0,34.0,34.0,34.0,1731.2774095167406,None,1.0,2.170328012201935,1731.2774095167406,None,1731.2774095167406,None,1731.2774095167406,None,1,2022_Apr_26_1130,Semantic-hierachy,2021.1.2,
335,Trial # 336,layer6-8_T1_to_T6.jpg,layer6-8/layer6-8_T1_to_T6.jpg,TT,layer6-8,,,,,,,,,0.0,35.0,35.0,35.0,1733.6616361858323,None,4.0,6.41040346911177,1733.6616361858323,None,1733.6616361858323,None,1733.6616361858323,None,1,2022_Apr_26_1130,Semantic-hierachy,2021.1.2,
336,Trial # 337,layer0-5_O12_to_O6.jpg,layer0-5/layer0-5_O12_to_O6.jpg,OO,layer0-5,,,,,,,,,0.0,36.0,36.0,36.0,1740.6969899679534,None,1.0,2.1602708199061453,1740.6969899679534,None,1740.6969899679534,None,1740.6969899679534,None,1,2022_Apr_26_1130,Semantic-hierachy,2021.1.2,
337,Trial # 338,layer0-5_O1_to_O10.jpg,layer0-5/layer0-5_O1_to_O10.jpg,OO,layer0-5,,,,,,,,,0.0,37.0,37.0,37.0,1743.130953873973,None,1.0,2.1680121161043644,1743.130953873973,None,1743.130953873973,None,1743.130953873973,None,1,2022_Apr_26_1130,Semantic-hierachy,2021.1.2,
338,Trial # 339,layer0-5_O9_to_T9.jpg,layer0-5/layer0-5_O9_to_T9.jpg,OT,layer0-5,,,,,,,,,0.0,38.0,38.0,38.0,1745.5986272799782,None,1.0,1.2076637730933726,1745.5986272799782,None,1745.5986272799782,None,1745.5986272799782,None,1,2022_Apr_26_1130,Semantic-hierachy,2021.1.2,
339,Trial # 340,layer6-8_O6_to_T10.jpg,layer6-8/layer6-8_O6_to_T10.jpg,OT,layer6-8,,,,,,,,,0.0,39.0,39.0,39.0,1746.982051114086,None,3.0,2.575117882806808,1746.982051114086,None,1746.982051114086,None,1746.982051114086,None,1,2022_Apr_26_1130,Semantic-hierachy,2021.1.2,
340,Trial # 341,layer9-17_O3_to_T3.jpg,layer9-17/layer9-17_O3_to_T3.jpg,OT,layer9-17,,,,,,,,,0.0,40.0,40.0,40.0,1750.6840130030178,None,2.0,2.30835623620078,1750.6840130030178,None,1750.6840130030178,None,1750.6840130030178,None,1,2022_Apr_26_1130,Semantic-hierachy,2021.1.2,
341,Trial # 342,layer0-5_O8_to_T8.jpg,layer0-5/layer0-5_O8_to_T8.jpg,OT,layer0-5,,,,,,,,,0.0,41.0,41.0,41.0,1753.251164443791,None,1.0,1.68854416674003,1753.251164443791,None,1753.251164443791,None,1753.251164443791,None,1,2022_Apr_26_1130,Semantic-hierachy,2021.1.2,
342,Trial # 343,layer9-17_O11_to_O3.jpg,layer9-17/layer9-17_O11_to_O3.jpg,OO,layer9-17,,,,,,,,,0.0,42.0,42.0,42.0,1755.1183710359037,None,2.0,1.6264026602730155,1755.1183710359037,None,1755.1183710359037,None,1755.1183710359037,None,1,2022_Apr_26_1130,Semantic-hierachy,2021.1.2,
343,Trial # 344,layer9-17_O10_to_T12.jpg,layer9-17/layer9-17_O10_to_T12.jpg,OT,layer9-17,,,,,,,,,0.0,43.0,43.0,43.0,1757.585665687919,None,2.0,3.2895590206608176,1757.585665687919,None,1757.585665687919,None,1757.585665687919,None,1,2022_Apr_26_1130,Semantic-hierachy,2021.1.2,
344,Trial # 345,layer6-8_T3_to_T6.jpg,layer6-8/layer6-8_T3_to_T6.jpg,TT,layer6-8,,,,,,,,,0.0,44.0,44.0,44.0,1761.5363267636858,None,4.0,2.7969627673737705,1761.5363267636858,None,1761.5363267636858,None,1761.5363267636858,None,1,2022_Apr_26_1130,Semantic-hierachy,2021.1.2,
345,Trial # 346,layer6-8_O1_to_O4.jpg,layer6-8/layer6-8_O1_to_O4.jpg,OO,layer6-8,,,,,,,,,0.0,45.0,45.0,45.0,1765.12234656699,None,4.0,2.51314142299816,1765.12234656699,None,1765.12234656699,None,1765.12234656699,None,1,2022_Apr_26_1130,Semantic-hierachy,2021.1.2,
346,Trial # 347,layer0-5_O8_to_T3.jpg,layer0-5/layer0-5_O8_to_T3.jpg,OT,layer0-5,,,,,,,,,0.0,46.0,46.0,46.0,1767.804793921765,None,1.0,1.512501152232289,1767.804793921765,None,1767.804793921765,None,1767.804793921765,None,1,2022_Apr_26_1130,Semantic-hierachy,2021.1.2,
347,Trial # 348,layer9-17_T2_to_T7.jpg,layer9-17/layer9-17_T2_to_T7.jpg,TT,layer9-17,,,,,,,,,0.0,47.0,47.0,47.0,1769.606882315129,None,2.0,2.126333980355412,1769.606882315129,None,1769.606882315129,None,1769.606882315129,None,1,2022_Apr_26_1130,Semantic-hierachy,2021.1.2,
348,Trial # 349,layer0-5_O9_to_T4.jpg,layer0-5/layer0-5_O9_to_T4.jpg,OT,layer0-5,,,,,,,,,0.0,48.0,48.0,48.0,1771.9233040558174,None,1.0,1.487933763768524,1771.9233040558174,None,1771.9233040558174,None,1771.9233040558174,None,1,2022_Apr_26_1130,Semantic-hierachy,2021.1.2,
349,Trial # 350,layer9-17_T12_to_T9.jpg,layer9-17/layer9-17_T12_to_T9.jpg,TT,layer9-17,,,,,,,,,0.0,49.0,49.0,49.0,1773.589974432718,None,2.0,1.6111229043453932,1773.589974432718,None,1773.589974432718,None,1773.589974432718,None,1,2022_Apr_26_1130,Semantic-hierachy,2021.1.2,
350,Trial # 351,layer6-8_O11_to_O6.jpg,layer6-8/layer6-8_O11_to_O6.jpg,OO,layer6-8,,,,,,,,,0.0,50.0,50.0,50.0,1775.4079477828927,None,2.0,1.7990611200220883,1775.4079477828927,None,1775.4079477828927,None,1775.4079477828927,None,1,2022_Apr_26_1130,Semantic-hierachy,2021.1.2,
351,Trial # 352,layer0-5_O10_to_O11.jpg,layer0-5/layer0-5_O10_to_O11.jpg,OO,layer0-5,,,,,,,,,0.0,51.0,51.0,51.0,1777.424608429894,None,1.0,1.8765502772293985,1777.424608429894,None,1777.424608429894,None,1777.424608429894,None,1,2022_Apr_26_1130,Semantic-hierachy,2021.1.2,
352,Trial # 353,layer9-17_O4_to_T7.jpg,layer9-17/layer9-17_O4_to_T7.jpg,OT,layer9-17,,,,,,,,,0.0,52.0,52.0,52.0,1779.4762877007015,None,2.0,1.5850927629508078,1779.4762877007015,None,1779.4762877007015,None,1779.4762877007015,None,1,2022_Apr_26_1130,Semantic-hierachy,2021.1.2,
353,Trial # 354,layer0-5_O2_to_T11.jpg,layer0-5/layer0-5_O2_to_T11.jpg,OT,layer0-5,,,,,,,,,0.0,53.0,53.0,53.0,1781.3768082018942,None,1.0,1.4085400770418346,1781.3768082018942,None,1781.3768082018942,None,1781.3768082018942,None,1,2022_Apr_26_1130,Semantic-hierachy,2021.1.2,
354,Trial # 355,layer9-17_O5_to_O6.jpg,layer9-17/layer9-17_O5_to_O6.jpg,OO,layer9-17,,,,,,,,,0.0,54.0,54.0,54.0,1782.9932780778036,None,2.0,1.4103504829108715,1782.9932780778036,None,1782.9932780778036,None,1782.9932780778036,None,1,2022_Apr_26_1130,Semantic-hierachy,2021.1.2,
355,Trial # 356,layer6-8_O5_to_T10.jpg,layer6-8/layer6-8_O5_to_T10.jpg,OT,layer6-8,,,,,,,,,0.0,55.0,55.0,55.0,1784.6116382540204,None,1.0,1.42553203785792,1784.6116382540204,None,1784.6116382540204,None,1784.6116382540204,None,1,2022_Apr_26_1130,Semantic-hierachy,2021.1.2,
356,Trial # 357,layer6-8_T3_to_T4.jpg,layer6-8/layer6-8_T3_to_T4.jpg,TT,layer6-8,,,,,,,,,0.0,56.0,56.0,56.0,1786.2608409146778,None,1.0,4.286536854691804,1786.2608409146778,None,1786.2608409146778,None,1786.2608409146778,None,1,2022_Apr_26_1130,Semantic-hierachy,2021.1.2,
357,Trial # 358,layer6-8_T4_to_T8.jpg,layer6-8/layer6-8_T4_to_T8.jpg,TT,layer6-8,,,,,,,,,0.0,57.0,57.0,57.0,1791.0455553960055,None,4.0,8.422471112105995,1791.0455553960055,None,1791.0455553960055,None,1791.0455553960055,None,1,2022_Apr_26_1130,Semantic-hierachy,2021.1.2,
358,Trial # 359,layer0-5_O2_to_T4.jpg,layer0-5/layer0-5_O2_to_T4.jpg,OT,layer0-5,,,,,,,,,0.0,58.0,58.0,58.0,1800.1325709871016,None,1.0,1.6108708861283958,1800.1325709871016,None,1800.1325709871016,None,1800.1325709871016,None,1,2022_Apr_26_1130,Semantic-hierachy,2021.1.2,
359,Trial # 360,layer0-5_O4_to_O7.jpg,layer0-5/layer0-5_O4_to_O7.jpg,OO,layer0-5,,,,,,,,,0.0,59.0,59.0,59.0,1802.6156046180984,None,1.0,1.3675395902246237,1802.6156046180984,None,1802.6156046180984,None,1802.6156046180984,None,1,2022_Apr_26_1130,Semantic-hierachy,2021.1.2,
360,Trial # 361,layer9-17_O12_to_T7.jpg,layer9-17/layer9-17_O12_to_T7.jpg,OT,layer9-17,,,,,,,,,0.0,60.0,60.0,60.0,1804.1838160529733,None,2.0,2.7275243583135307,1804.1838160529733,None,1804.1838160529733,None,1804.1838160529733,None,1,2022_Apr_26_1130,Semantic-hierachy,2021.1.2,
361,Trial # 362,layer6-8_O11_to_T8.jpg,layer6-8/layer6-8_O11_to_T8.jpg,OT,layer6-8,,,,,,,,,0.0,61.0,61.0,61.0,1807.333742884919,None,3.0,1.7263767886906862,1807.333742884919,None,1807.333742884919,None,1807.333742884919,None,1,2022_Apr_26_1130,Semantic-hierachy,2021.1.2,
362,Trial # 363,layer9-17_O10_to_T6.jpg,layer9-17/layer9-17_O10_to_T6.jpg,OT,layer9-17,,,,,,,,,0.0,62.0,62.0,62.0,1809.1859796149656,None,2.0,3.0411369120702147,1809.1859796149656,None,1809.1859796149656,None,1809.1859796149656,None,1,2022_Apr_26_1130,Semantic-hierachy,2021.1.2,
363,Trial # 364,layer0-5_O5_to_T7.jpg,layer0-5/layer0-5_O5_to_T7.jpg,OT,layer0-5,,,,,,,,,0.0,63.0,63.0,63.0,1812.420006238856,None,1.0,1.678373851813376,1812.420006238856,None,1812.420006238856,None,1812.420006238856,None,1,2022_Apr_26_1130,Semantic-hierachy,2021.1.2,
