,Trial_num,image_name,image_path,pair_type,layers,block1.thisRepN,block1.thisTrialN,block1.thisN,block1.thisIndex,block2.thisRepN,block2.thisTrialN,block2.thisN,block2.thisIndex,block3.thisRepN,block3.thisTrialN,block3.thisN,block3.thisIndex,image_8.started,image_8.stopped,selected_semantic.response,selected_semantic.rt,selected_semantic.started,selected_semantic.stopped,Instruction.started,Instruction.stopped,Trial_number.started,Trial_number.stopped,session,date,expName,psychopyVersion,Unnamed: 33
0,Trial # 1,layer0-5_O2_to_T1.jpg,layer0-5/layer0-5_O2_to_T1.jpg,OT,layer0-5,0.0,0.0,0.0,0.0,,,,,,,,,62.34163439899567,None,1.0,35.99979302800057,62.34163439899567,None,62.34163439899567,None,62.34163439899567,None,1,2022_Jun_23_1319,Semantic-hierachy,2021.1.2,
1,Trial # 2,layer0-5_O11_to_T7.jpg,layer0-5/layer0-5_O11_to_T7.jpg,OT,layer0-5,0.0,1.0,1.0,1.0,,,,,,,,,102.9048452059942,None,1.0,10.364158304997543,102.9048452059942,None,102.9048452059942,None,102.9048452059942,None,1,2022_Jun_23_1319,Semantic-hierachy,2021.1.2,
2,Trial # 3,layer6-8_O3_to_O5.jpg,layer6-8/layer6-8_O3_to_O5.jpg,OO,layer6-8,0.0,2.0,2.0,2.0,,,,,,,,,115.72459496399824,None,4.0,9.933816173004743,115.72459496399824,None,115.72459496399824,None,115.72459496399824,None,1,2022_Jun_23_1319,Semantic-hierachy,2021.1.2,
3,Trial # 4,layer6-8_O11_to_O4.jpg,layer6-8/layer6-8_O11_to_O4.jpg,OO,layer6-8,0.0,3.0,3.0,3.0,,,,,,,,,127.99592638199827,None,4.0,18.51396590100194,127.99592638199827,None,127.99592638199827,None,127.99592638199827,None,1,2022_Jun_23_1319,Semantic-hierachy,2021.1.2,
4,Trial # 5,layer6-8_O8_to_T8.jpg,layer6-8/layer6-8_O8_to_T8.jpg,OT,layer6-8,0.0,4.0,4.0,4.0,,,,,,,,,148.1358936010001,None,4.0,26.449220130001777,148.1358936010001,None,148.1358936010001,None,148.1358936010001,None,1,2022_Jun_23_1319,Semantic-hierachy,2021.1.2,
5,Trial # 6,layer0-5_O11_to_O8.jpg,layer0-5/layer0-5_O11_to_O8.jpg,OO,layer0-5,0.0,5.0,5.0,5.0,,,,,,,,,175.07656033899548,None,1.0,19.44399961399904,175.07656033899548,None,175.07656033899548,None,175.07656033899548,None,1,2022_Jun_23_1319,Semantic-hierachy,2021.1.2,
6,Trial # 7,layer0-5_T10_to_T11.jpg,layer0-5/layer0-5_T10_to_T11.jpg,TT,layer0-5,0.0,6.0,6.0,6.0,,,,,,,,,201.8679449689953,None,1.0,4.892517508997116,201.8679449689953,None,201.8679449689953,None,201.8679449689953,None,1,2022_Jun_23_1319,Semantic-hierachy,2021.1.2,
7,Trial # 8,layer9-17_O6_to_O9.jpg,layer9-17/layer9-17_O6_to_O9.jpg,OO,layer9-17,0.0,7.0,7.0,7.0,,,,,,,,,207.904186369,None,2.0,2.423617597996781,207.904186369,None,207.904186369,None,207.904186369,None,1,2022_Jun_23_1319,Semantic-hierachy,2021.1.2,
8,Trial # 9,layer6-8_O12_to_O9.jpg,layer6-8/layer6-8_O12_to_O9.jpg,OO,layer6-8,0.0,8.0,8.0,8.0,,,,,,,,,211.47094238299903,None,3.0,2.360339901999396,211.47094238299903,None,211.47094238299903,None,211.47094238299903,None,1,2022_Jun_23_1319,Semantic-hierachy,2021.1.2,
9,Trial # 10,layer0-5_O10_to_T2.jpg,layer0-5/layer0-5_O10_to_T2.jpg,OT,layer0-5,0.0,9.0,9.0,9.0,,,,,,,,,214.355316661,None,4.0,8.810341265998431,214.355316661,None,214.355316661,None,214.355316661,None,1,2022_Jun_23_1319,Semantic-hierachy,2021.1.2,
10,Trial # 11,layer9-17_T10_to_T2.jpg,layer9-17/layer9-17_T10_to_T2.jpg,TT,layer9-17,0.0,10.0,10.0,10.0,,,,,,,,,224.75839320199884,None,2.0,10.62746821899782,224.75839320199884,None,224.75839320199884,None,224.75839320199884,None,1,2022_Jun_23_1319,Semantic-hierachy,2021.1.2,
11,Trial # 12,layer6-8_T6_to_T7.jpg,layer6-8/layer6-8_T6_to_T7.jpg,TT,layer6-8,0.0,11.0,11.0,11.0,,,,,,,,,244.81422569799903,None,3.0,7.961899353998888,244.81422569799903,None,244.81422569799903,None,244.81422569799903,None,1,2022_Jun_23_1319,Semantic-hierachy,2021.1.2,
12,Trial # 13,layer9-17_O10_to_T2.jpg,layer9-17/layer9-17_O10_to_T2.jpg,OT,layer9-17,0.0,12.0,12.0,12.0,,,,,,,,,256.1841280239969,None,2.0,4.24225871499948,256.1841280239969,None,256.1841280239969,None,256.1841280239969,None,1,2022_Jun_23_1319,Semantic-hierachy,2021.1.2,
13,Trial # 14,layer6-8_T4_to_T7.jpg,layer6-8/layer6-8_T4_to_T7.jpg,TT,layer6-8,0.0,13.0,13.0,13.0,,,,,,,,,260.68619259399566,None,3.0,2.542572852995363,260.68619259399566,None,260.68619259399566,None,260.68619259399566,None,1,2022_Jun_23_1319,Semantic-hierachy,2021.1.2,
14,Trial # 15,layer9-17_O8_to_T2.jpg,layer9-17/layer9-17_O8_to_T2.jpg,OT,layer9-17,0.0,14.0,14.0,14.0,,,,,,,,,264.9873272499972,None,2.0,2.4974132489951444,264.9873272499972,None,264.9873272499972,None,264.9873272499972,None,1,2022_Jun_23_1319,Semantic-hierachy,2021.1.2,
15,Trial # 16,layer0-5_T6_to_T9.jpg,layer0-5/layer0-5_T6_to_T9.jpg,TT,layer0-5,0.0,15.0,15.0,15.0,,,,,,,,,267.85656615899643,None,1.0,3.30040100900078,267.85656615899643,None,267.85656615899643,None,267.85656615899643,None,1,2022_Jun_23_1319,Semantic-hierachy,2021.1.2,
16,Trial # 17,layer0-5_O11_to_O12.jpg,layer0-5/layer0-5_O11_to_O12.jpg,OO,layer0-5,0.0,16.0,16.0,16.0,,,,,,,,,271.5728759079939,None,1.0,3.957997859004536,271.5728759079939,None,271.5728759079939,None,271.5728759079939,None,1,2022_Jun_23_1319,Semantic-hierachy,2021.1.2,
17,Trial # 18,layer0-5_T11_to_T5.jpg,layer0-5/layer0-5_T11_to_T5.jpg,TT,layer0-5,0.0,17.0,17.0,17.0,,,,,,,,,275.8575009529959,None,1.0,5.029335307997826,275.8575009529959,None,275.8575009529959,None,275.8575009529959,None,1,2022_Jun_23_1319,Semantic-hierachy,2021.1.2,
18,Trial # 19,layer0-5_O6_to_T12.jpg,layer0-5/layer0-5_O6_to_T12.jpg,OT,layer0-5,0.0,18.0,18.0,18.0,,,,,,,,,284.54356725199614,None,1.0,4.611778300997685,284.54356725199614,None,284.54356725199614,None,284.54356725199614,None,1,2022_Jun_23_1319,Semantic-hierachy,2021.1.2,
19,Trial # 20,layer6-8_T6_to_T8.jpg,layer6-8/layer6-8_T6_to_T8.jpg,TT,layer6-8,0.0,19.0,19.0,19.0,,,,,,,,,289.46186597299675,None,4.0,3.718729521002388,289.46186597299675,None,289.46186597299675,None,289.46186597299675,None,1,2022_Jun_23_1319,Semantic-hierachy,2021.1.2,
20,Trial # 21,layer9-17_T2_to_T5.jpg,layer9-17/layer9-17_T2_to_T5.jpg,TT,layer9-17,0.0,20.0,20.0,20.0,,,,,,,,,293.6466364939988,None,2.0,2.452984408999328,293.6466364939988,None,293.6466364939988,None,293.6466364939988,None,1,2022_Jun_23_1319,Semantic-hierachy,2021.1.2,
21,Trial # 22,layer6-8_O2_to_O6.jpg,layer6-8/layer6-8_O2_to_O6.jpg,OO,layer6-8,0.0,21.0,21.0,21.0,,,,,,,,,296.3978126029979,None,2.0,3.3096424510004,296.3978126029979,None,296.3978126029979,None,296.3978126029979,None,1,2022_Jun_23_1319,Semantic-hierachy,2021.1.2,
22,Trial # 23,layer9-17_O3_to_T12.jpg,layer9-17/layer9-17_O3_to_T12.jpg,OT,layer9-17,0.0,22.0,22.0,22.0,,,,,,,,,303.31725126999663,None,2.0,5.327886004000902,303.31725126999663,None,303.31725126999663,None,303.31725126999663,None,1,2022_Jun_23_1319,Semantic-hierachy,2021.1.2,
23,Trial # 24,layer0-5_O11_to_O3.jpg,layer0-5/layer0-5_O11_to_O3.jpg,OO,layer0-5,0.0,23.0,23.0,23.0,,,,,,,,,308.9349019489964,None,1.0,3.337246739996772,308.9349019489964,None,308.9349019489964,None,308.9349019489964,None,1,2022_Jun_23_1319,Semantic-hierachy,2021.1.2,
24,Trial # 25,layer6-8_O2_to_O9.jpg,layer6-8/layer6-8_O2_to_O9.jpg,OO,layer6-8,0.0,24.0,24.0,24.0,,,,,,,,,312.886864135995,None,4.0,6.911056958997506,312.886864135995,None,312.886864135995,None,312.886864135995,None,1,2022_Jun_23_1319,Semantic-hierachy,2021.1.2,
25,Trial # 26,layer9-17_O10_to_O8.jpg,layer9-17/layer9-17_O10_to_O8.jpg,OO,layer9-17,0.0,25.0,25.0,25.0,,,,,,,,,320.28772175099584,None,4.0,6.891818308002257,320.28772175099584,None,320.28772175099584,None,320.28772175099584,None,1,2022_Jun_23_1319,Semantic-hierachy,2021.1.2,
26,Trial # 27,layer9-17_T4_to_T6.jpg,layer9-17/layer9-17_T4_to_T6.jpg,TT,layer9-17,0.0,26.0,26.0,26.0,,,,,,,,,327.4077080529969,None,2.0,2.077992635000556,327.4077080529969,None,327.4077080529969,None,327.4077080529969,None,1,2022_Jun_23_1319,Semantic-hierachy,2021.1.2,
27,Trial # 28,layer6-8_O7_to_T8.jpg,layer6-8/layer6-8_O7_to_T8.jpg,OT,layer6-8,0.0,27.0,27.0,27.0,,,,,,,,,329.69157362999977,None,2.0,1.9227202449983447,329.69157362999977,None,329.69157362999977,None,329.69157362999977,None,1,2022_Jun_23_1319,Semantic-hierachy,2021.1.2,
28,Trial # 29,layer6-8_T4_to_T5.jpg,layer6-8/layer6-8_T4_to_T5.jpg,TT,layer6-8,0.0,28.0,28.0,28.0,,,,,,,,,332.22543288099405,None,4.0,3.8839294979989054,332.22543288099405,None,332.22543288099405,None,332.22543288099405,None,1,2022_Jun_23_1319,Semantic-hierachy,2021.1.2,
29,Trial # 30,layer6-8_T10_to_T9.jpg,layer6-8/layer6-8_T10_to_T9.jpg,TT,layer6-8,0.0,29.0,29.0,29.0,,,,,,,,,336.942781234,None,4.0,6.811320559994783,336.942781234,None,336.942781234,None,336.942781234,None,1,2022_Jun_23_1319,Semantic-hierachy,2021.1.2,
30,Trial # 31,layer9-17_O1_to_O8.jpg,layer9-17/layer9-17_O1_to_O8.jpg,OO,layer9-17,0.0,30.0,30.0,30.0,,,,,,,,,344.6287991539939,None,2.0,3.976957224003854,344.6287991539939,None,344.6287991539939,None,344.6287991539939,None,1,2022_Jun_23_1319,Semantic-hierachy,2021.1.2,
31,Trial # 32,layer9-17_O12_to_O7.jpg,layer9-17/layer9-17_O12_to_O7.jpg,OO,layer9-17,0.0,31.0,31.0,31.0,,,,,,,,,349.0480785489999,None,2.0,6.4440777609997895,349.0480785489999,None,349.0480785489999,None,349.0480785489999,None,1,2022_Jun_23_1319,Semantic-hierachy,2021.1.2,
32,Trial # 33,layer9-17_T10_to_T12.jpg,layer9-17/layer9-17_T10_to_T12.jpg,TT,layer9-17,0.0,32.0,32.0,32.0,,,,,,,,,355.94887115500023,None,4.0,1.956032416994276,355.94887115500023,None,355.94887115500023,None,355.94887115500023,None,1,2022_Jun_23_1319,Semantic-hierachy,2021.1.2,
33,Trial # 34,layer0-5_T2_to_T6.jpg,layer0-5/layer0-5_T2_to_T6.jpg,TT,layer0-5,0.0,33.0,33.0,33.0,,,,,,,,,358.2010278749949,None,1.0,4.245008404002874,358.2010278749949,None,358.2010278749949,None,358.2010278749949,None,1,2022_Jun_23_1319,Semantic-hierachy,2021.1.2,
34,Trial # 35,layer6-8_T11_to_T2.jpg,layer6-8/layer6-8_T11_to_T2.jpg,TT,layer6-8,0.0,34.0,34.0,34.0,,,,,,,,,362.7521710579968,None,4.0,4.694843104000029,362.7521710579968,None,362.7521710579968,None,362.7521710579968,None,1,2022_Jun_23_1319,Semantic-hierachy,2021.1.2,
35,Trial # 36,layer6-8_O4_to_T3.jpg,layer6-8/layer6-8_O4_to_T3.jpg,OT,layer6-8,0.0,35.0,35.0,35.0,,,,,,,,,367.7859369180005,None,3.0,5.472683215004508,367.7859369180005,None,367.7859369180005,None,367.7859369180005,None,1,2022_Jun_23_1319,Semantic-hierachy,2021.1.2,
36,Trial # 37,layer6-8_O3_to_T11.jpg,layer6-8/layer6-8_O3_to_T11.jpg,OT,layer6-8,0.0,36.0,36.0,36.0,,,,,,,,,373.522384387994,None,3.0,9.481158192000294,373.522384387994,None,373.522384387994,None,373.522384387994,None,1,2022_Jun_23_1319,Semantic-hierachy,2021.1.2,
37,Trial # 38,layer6-8_T1_to_T2.jpg,layer6-8/layer6-8_T1_to_T2.jpg,TT,layer6-8,0.0,37.0,37.0,37.0,,,,,,,,,385.5247345389944,None,2.0,4.072768528996676,385.5247345389944,None,385.5247345389944,None,385.5247345389944,None,1,2022_Jun_23_1319,Semantic-hierachy,2021.1.2,
38,Trial # 39,layer9-17_O2_to_O6.jpg,layer9-17/layer9-17_O2_to_O6.jpg,OO,layer9-17,0.0,38.0,38.0,38.0,,,,,,,,,389.892744576995,None,4.0,7.924729935999494,389.892744576995,None,389.892744576995,None,389.892744576995,None,1,2022_Jun_23_1319,Semantic-hierachy,2021.1.2,
39,Trial # 40,layer9-17_O4_to_T2.jpg,layer9-17/layer9-17_O4_to_T2.jpg,OT,layer9-17,0.0,39.0,39.0,39.0,,,,,,,,,398.8798776349941,None,2.0,2.057446760998573,398.8798776349941,None,398.8798776349941,None,398.8798776349941,None,1,2022_Jun_23_1319,Semantic-hierachy,2021.1.2,
40,Trial # 41,layer6-8_O5_to_T3.jpg,layer6-8/layer6-8_O5_to_T3.jpg,OT,layer6-8,0.0,40.0,40.0,40.0,,,,,,,,,401.896425166,None,3.0,2.47365519500454,401.896425166,None,401.896425166,None,401.896425166,None,1,2022_Jun_23_1319,Semantic-hierachy,2021.1.2,
41,Trial # 42,layer6-8_O2_to_O3.jpg,layer6-8/layer6-8_O2_to_O3.jpg,OO,layer6-8,0.0,41.0,41.0,41.0,,,,,,,,,404.647436897998,None,4.0,2.8105562630007626,404.647436897998,None,404.647436897998,None,404.647436897998,None,1,2022_Jun_23_1319,Semantic-hierachy,2021.1.2,
42,Trial # 43,layer6-8_O1_to_T6.jpg,layer6-8/layer6-8_O1_to_T6.jpg,OT,layer6-8,0.0,42.0,42.0,42.0,,,,,,,,,408.4485665920001,None,2.0,3.773844697003369,408.4485665920001,None,408.4485665920001,None,408.4485665920001,None,1,2022_Jun_23_1319,Semantic-hierachy,2021.1.2,
43,Trial # 44,layer6-8_O2_to_T12.jpg,layer6-8/layer6-8_O2_to_T12.jpg,OT,layer6-8,0.0,43.0,43.0,43.0,,,,,,,,,413.4179540179976,None,3.0,2.1474253319975105,413.4179540179976,None,413.4179540179976,None,413.4179540179976,None,1,2022_Jun_23_1319,Semantic-hierachy,2021.1.2,
44,Trial # 45,layer9-17_O2_to_O8.jpg,layer9-17/layer9-17_O2_to_O8.jpg,OO,layer9-17,0.0,44.0,44.0,44.0,,,,,,,,,416.0677167679969,None,4.0,9.3126408600001,416.0677167679969,None,416.0677167679969,None,416.0677167679969,None,1,2022_Jun_23_1319,Semantic-hierachy,2021.1.2,
45,Trial # 46,layer9-17_O10_to_O4.jpg,layer9-17/layer9-17_O10_to_O4.jpg,OO,layer9-17,0.0,45.0,45.0,45.0,,,,,,,,,425.686993077994,None,2.0,3.72893847800151,425.686993077994,None,425.686993077994,None,425.686993077994,None,1,2022_Jun_23_1319,Semantic-hierachy,2021.1.2,
46,Trial # 47,layer0-5_O1_to_O4.jpg,layer0-5/layer0-5_O1_to_O4.jpg,OO,layer0-5,0.0,46.0,46.0,46.0,,,,,,,,,430.32206198699714,None,1.0,2.786118312003964,430.32206198699714,None,430.32206198699714,None,430.32206198699714,None,1,2022_Jun_23_1319,Semantic-hierachy,2021.1.2,
47,Trial # 48,layer0-5_T4_to_T5.jpg,layer0-5/layer0-5_T4_to_T5.jpg,TT,layer0-5,0.0,47.0,47.0,47.0,,,,,,,,,434.6400667639973,None,1.0,2.6528537850026623,434.6400667639973,None,434.6400667639973,None,434.6400667639973,None,1,2022_Jun_23_1319,Semantic-hierachy,2021.1.2,
48,Trial # 49,layer9-17_T12_to_T8.jpg,layer9-17/layer9-17_T12_to_T8.jpg,TT,layer9-17,0.0,48.0,48.0,48.0,,,,,,,,,437.94229626199376,None,2.0,2.202557610005897,437.94229626199376,None,437.94229626199376,None,437.94229626199376,None,1,2022_Jun_23_1319,Semantic-hierachy,2021.1.2,
49,Trial # 50,layer0-5_T10_to_T5.jpg,layer0-5/layer0-5_T10_to_T5.jpg,TT,layer0-5,0.0,49.0,49.0,49.0,,,,,,,,,440.50828208599705,None,1.0,4.763639828997839,440.50828208599705,None,440.50828208599705,None,440.50828208599705,None,1,2022_Jun_23_1319,Semantic-hierachy,2021.1.2,
50,Trial # 51,layer6-8_O10_to_O8.jpg,layer6-8/layer6-8_O10_to_O8.jpg,OO,layer6-8,0.0,50.0,50.0,50.0,,,,,,,,,445.4767831099962,None,2.0,5.320764846001111,445.4767831099962,None,445.4767831099962,None,445.4767831099962,None,1,2022_Jun_23_1319,Semantic-hierachy,2021.1.2,
51,Trial # 52,layer9-17_O3_to_O5.jpg,layer9-17/layer9-17_O3_to_O5.jpg,OO,layer9-17,0.0,51.0,51.0,51.0,,,,,,,,,451.0451044729998,None,2.0,1.5317639950008015,451.0451044729998,None,451.0451044729998,None,451.0451044729998,None,1,2022_Jun_23_1319,Semantic-hierachy,2021.1.2,
52,Trial # 53,layer6-8_T1_to_T12.jpg,layer6-8/layer6-8_T1_to_T12.jpg,TT,layer6-8,0.0,52.0,52.0,52.0,,,,,,,,,452.7961330830003,None,4.0,1.7439368499981356,452.7961330830003,None,452.7961330830003,None,452.7961330830003,None,1,2022_Jun_23_1319,Semantic-hierachy,2021.1.2,
53,Trial # 54,layer0-5_O4_to_O9.jpg,layer0-5/layer0-5_O4_to_O9.jpg,OO,layer0-5,0.0,53.0,53.0,53.0,,,,,,,,,455.36310327399406,None,1.0,3.443903257000784,455.36310327399406,None,455.36310327399406,None,455.36310327399406,None,1,2022_Jun_23_1319,Semantic-hierachy,2021.1.2,
54,Trial # 55,layer0-5_O5_to_O9.jpg,layer0-5/layer0-5_O5_to_O9.jpg,OO,layer0-5,0.0,54.0,54.0,54.0,,,,,,,,,459.0654559929972,None,3.0,2.1363774700002978,459.0654559929972,None,459.0654559929972,None,459.0654559929972,None,1,2022_Jun_23_1319,Semantic-hierachy,2021.1.2,
55,Trial # 56,layer0-5_O1_to_O2.jpg,layer0-5/layer0-5_O1_to_O2.jpg,OO,layer0-5,0.0,55.0,55.0,55.0,,,,,,,,,462.2318114029986,None,1.0,3.694016435998492,462.2318114029986,None,462.2318114029986,None,462.2318114029986,None,1,2022_Jun_23_1319,Semantic-hierachy,2021.1.2,
56,Trial # 57,layer9-17_T12_to_T3.jpg,layer9-17/layer9-17_T12_to_T3.jpg,TT,layer9-17,0.0,56.0,56.0,56.0,,,,,,,,,466.2163250769954,None,2.0,1.88828433699382,466.2163250769954,None,466.2163250769954,None,466.2163250769954,None,1,2022_Jun_23_1319,Semantic-hierachy,2021.1.2,
57,Trial # 58,layer0-5_O7_to_O9.jpg,layer0-5/layer0-5_O7_to_O9.jpg,OO,layer0-5,0.0,57.0,57.0,57.0,,,,,,,,,468.468371389994,None,1.0,2.141296211993904,468.468371389994,None,468.468371389994,None,468.468371389994,None,1,2022_Jun_23_1319,Semantic-hierachy,2021.1.2,
58,Trial # 59,layer0-5_T5_to_T9.jpg,layer0-5/layer0-5_T5_to_T9.jpg,TT,layer0-5,0.0,58.0,58.0,58.0,,,,,,,,,470.9509722589937,None,1.0,2.06965814200521,470.9509722589937,None,470.9509722589937,None,470.9509722589937,None,1,2022_Jun_23_1319,Semantic-hierachy,2021.1.2,
59,Trial # 60,layer9-17_O1_to_O9.jpg,layer9-17/layer9-17_O1_to_O9.jpg,OO,layer9-17,0.0,59.0,59.0,59.0,,,,,,,,,473.3697623009939,None,4.0,5.122722571999475,473.3697623009939,None,473.3697623009939,None,473.3697623009939,None,1,2022_Jun_23_1319,Semantic-hierachy,2021.1.2,
60,Trial # 61,layer0-5_O6_to_O7.jpg,layer0-5/layer0-5_O6_to_O7.jpg,OO,layer0-5,0.0,60.0,60.0,60.0,,,,,,,,,481.7374873410008,None,1.0,3.3295176300016465,481.7374873410008,None,481.7374873410008,None,481.7374873410008,None,1,2022_Jun_23_1319,Semantic-hierachy,2021.1.2,
61,Trial # 62,layer9-17_T5_to_T6.jpg,layer9-17/layer9-17_T5_to_T6.jpg,TT,layer9-17,0.0,61.0,61.0,61.0,,,,,,,,,485.3218764400008,None,2.0,8.400654010001745,485.3218764400008,None,485.3218764400008,None,485.3218764400008,None,1,2022_Jun_23_1319,Semantic-hierachy,2021.1.2,
62,Trial # 63,layer9-17_T4_to_T9.jpg,layer9-17/layer9-17_T4_to_T9.jpg,TT,layer9-17,0.0,62.0,62.0,62.0,,,,,,,,,493.97636562799744,None,2.0,1.9467858680000063,493.97636562799744,None,493.97636562799744,None,493.97636562799744,None,1,2022_Jun_23_1319,Semantic-hierachy,2021.1.2,
63,Trial # 64,layer0-5_O11_to_T1.jpg,layer0-5/layer0-5_O11_to_T1.jpg,OT,layer0-5,0.0,63.0,63.0,63.0,,,,,,,,,496.12582382199616,None,1.0,3.2146716300048865,496.12582382199616,None,496.12582382199616,None,496.12582382199616,None,1,2022_Jun_23_1319,Semantic-hierachy,2021.1.2,
64,Trial # 65,layer6-8_T5_to_T9.jpg,layer6-8/layer6-8_T5_to_T9.jpg,TT,layer6-8,0.0,64.0,64.0,64.0,,,,,,,,,499.6933437979969,None,4.0,4.326666355998896,499.6933437979969,None,499.6933437979969,None,499.6933437979969,None,1,2022_Jun_23_1319,Semantic-hierachy,2021.1.2,
65,Trial # 66,layer0-5_T4_to_T7.jpg,layer0-5/layer0-5_T4_to_T7.jpg,TT,layer0-5,0.0,65.0,65.0,65.0,,,,,,,,,504.2793801469961,None,1.0,2.401730301004136,504.2793801469961,None,504.2793801469961,None,504.2793801469961,None,1,2022_Jun_23_1319,Semantic-hierachy,2021.1.2,
66,Trial # 67,layer0-5_O2_to_O6.jpg,layer0-5/layer0-5_O2_to_O6.jpg,OO,layer0-5,0.0,66.0,66.0,66.0,,,,,,,,,506.9617541919943,None,1.0,2.7069152550029685,506.9617541919943,None,506.9617541919943,None,506.9617541919943,None,1,2022_Jun_23_1319,Semantic-hierachy,2021.1.2,
67,Trial # 68,layer9-17_O12_to_T3.jpg,layer9-17/layer9-17_O12_to_T3.jpg,OT,layer9-17,0.0,67.0,67.0,67.0,,,,,,,,,509.9464990599954,None,2.0,1.7053383910024422,509.9464990599954,None,509.9464990599954,None,509.9464990599954,None,1,2022_Jun_23_1319,Semantic-hierachy,2021.1.2,
68,Trial # 69,layer9-17_O7_to_O9.jpg,layer9-17/layer9-17_O7_to_O9.jpg,OO,layer9-17,0.0,68.0,68.0,68.0,,,,,,,,,511.81403158799367,None,4.0,11.715608938000514,511.81403158799367,None,511.81403158799367,None,511.81403158799367,None,1,2022_Jun_23_1319,Semantic-hierachy,2021.1.2,
69,Trial # 70,layer9-17_T1_to_T8.jpg,layer9-17/layer9-17_T1_to_T8.jpg,TT,layer9-17,0.0,69.0,69.0,69.0,,,,,,,,,523.7852536089995,None,4.0,1.829934768997191,523.7852536089995,None,523.7852536089995,None,523.7852536089995,None,1,2022_Jun_23_1319,Semantic-hierachy,2021.1.2,
70,Trial # 71,layer0-5_O3_to_T8.jpg,layer0-5/layer0-5_O3_to_T8.jpg,OT,layer0-5,0.0,70.0,70.0,70.0,,,,,,,,,525.9513435349945,None,1.0,5.4982190419978,525.9513435349945,None,525.9513435349945,None,525.9513435349945,None,1,2022_Jun_23_1319,Semantic-hierachy,2021.1.2,
71,Trial # 72,layer9-17_O9_to_T2.jpg,layer9-17/layer9-17_O9_to_T2.jpg,OT,layer9-17,0.0,71.0,71.0,71.0,,,,,,,,,532.0696616439964,None,2.0,13.547233199999027,532.0696616439964,None,532.0696616439964,None,532.0696616439964,None,1,2022_Jun_23_1319,Semantic-hierachy,2021.1.2,
72,Trial # 73,layer9-17_O5_to_O7.jpg,layer9-17/layer9-17_O5_to_O7.jpg,OO,layer9-17,0.0,72.0,72.0,72.0,,,,,,,,,546.7247520519959,None,2.0,5.735080185004335,546.7247520519959,None,546.7247520519959,None,546.7247520519959,None,1,2022_Jun_23_1319,Semantic-hierachy,2021.1.2,
73,Trial # 74,layer0-5_T11_to_T9.jpg,layer0-5/layer0-5_T11_to_T9.jpg,TT,layer0-5,0.0,73.0,73.0,73.0,,,,,,,,,552.9270309399944,None,1.0,3.9826865189970704,552.9270309399944,None,552.9270309399944,None,552.9270309399944,None,1,2022_Jun_23_1319,Semantic-hierachy,2021.1.2,
74,Trial # 75,layer0-5_O11_to_T12.jpg,layer0-5/layer0-5_O11_to_T12.jpg,OT,layer0-5,0.0,74.0,74.0,74.0,,,,,,,,,557.7626474719946,None,1.0,1.704116425004031,557.7626474719946,None,557.7626474719946,None,557.7626474719946,None,1,2022_Jun_23_1319,Semantic-hierachy,2021.1.2,
75,Trial # 76,layer9-17_T7_to_T9.jpg,layer9-17/layer9-17_T7_to_T9.jpg,TT,layer9-17,0.0,75.0,75.0,75.0,,,,,,,,,560.3470090849951,None,4.0,8.235221132003062,560.3470090849951,None,560.3470090849951,None,560.3470090849951,None,1,2022_Jun_23_1319,Semantic-hierachy,2021.1.2,
76,Trial # 77,layer6-8_O6_to_T2.jpg,layer6-8/layer6-8_O6_to_T2.jpg,OT,layer6-8,0.0,76.0,76.0,76.0,,,,,,,,,568.9324217049943,None,4.0,5.184175488997425,568.9324217049943,None,568.9324217049943,None,568.9324217049943,None,1,2022_Jun_23_1319,Semantic-hierachy,2021.1.2,
77,Trial # 78,layer9-17_T4_to_T5.jpg,layer9-17/layer9-17_T4_to_T5.jpg,TT,layer9-17,0.0,77.0,77.0,77.0,,,,,,,,,574.9501020509997,None,2.0,2.067590403996292,574.9501020509997,None,574.9501020509997,None,574.9501020509997,None,1,2022_Jun_23_1319,Semantic-hierachy,2021.1.2,
78,Trial # 79,layer0-5_T2_to_T4.jpg,layer0-5/layer0-5_T2_to_T4.jpg,TT,layer0-5,0.0,78.0,78.0,78.0,,,,,,,,,577.317941759,None,1.0,4.117230442003347,577.317941759,None,577.317941759,None,577.317941759,None,1,2022_Jun_23_1319,Semantic-hierachy,2021.1.2,
79,Trial # 80,layer0-5_T2_to_T8.jpg,layer0-5/layer0-5_T2_to_T8.jpg,TT,layer0-5,0.0,79.0,79.0,79.0,,,,,,,,,581.751837592994,None,1.0,2.6787595670029987,581.751837592994,None,581.751837592994,None,581.751837592994,None,1,2022_Jun_23_1319,Semantic-hierachy,2021.1.2,
80,Trial # 81,layer9-17_T3_to_T9.jpg,layer9-17/layer9-17_T3_to_T9.jpg,TT,layer9-17,0.0,80.0,80.0,80.0,,,,,,,,,585.3030173089937,None,2.0,4.977310865004256,585.3030173089937,None,585.3030173089937,None,585.3030173089937,None,1,2022_Jun_23_1319,Semantic-hierachy,2021.1.2,
81,Trial # 82,layer9-17_O2_to_O5.jpg,layer9-17/layer9-17_O2_to_O5.jpg,OO,layer9-17,0.0,81.0,81.0,81.0,,,,,,,,,590.6378806259963,None,2.0,2.3021713589987485,590.6378806259963,None,590.6378806259963,None,590.6378806259963,None,1,2022_Jun_23_1319,Semantic-hierachy,2021.1.2,
82,Trial # 83,layer6-8_O6_to_O7.jpg,layer6-8/layer6-8_O6_to_O7.jpg,OO,layer6-8,0.0,82.0,82.0,82.0,,,,,,,,,593.2568822579997,None,4.0,2.2326833929982968,593.2568822579997,None,593.2568822579997,None,593.2568822579997,None,1,2022_Jun_23_1319,Semantic-hierachy,2021.1.2,
83,Trial # 84,layer9-17_O11_to_T1.jpg,layer9-17/layer9-17_O11_to_T1.jpg,OT,layer9-17,0.0,83.0,83.0,83.0,,,,,,,,,596.0396572280006,None,2.0,1.8294563720046424,596.0396572280006,None,596.0396572280006,None,596.0396572280006,None,1,2022_Jun_23_1319,Semantic-hierachy,2021.1.2,
84,Trial # 85,layer6-8_O5_to_T12.jpg,layer6-8/layer6-8_O5_to_T12.jpg,OT,layer6-8,0.0,84.0,84.0,84.0,,,,,,,,,598.1915911859978,None,3.0,2.394696065995958,598.1915911859978,None,598.1915911859978,None,598.1915911859978,None,1,2022_Jun_23_1319,Semantic-hierachy,2021.1.2,
85,Trial # 86,layer6-8_O4_to_O7.jpg,layer6-8/layer6-8_O4_to_O7.jpg,OO,layer6-8,0.0,85.0,85.0,85.0,,,,,,,,,601.1077362279975,None,4.0,2.536119468000834,601.1077362279975,None,601.1077362279975,None,601.1077362279975,None,1,2022_Jun_23_1319,Semantic-hierachy,2021.1.2,
86,Trial # 87,layer6-8_T10_to_T8.jpg,layer6-8/layer6-8_T10_to_T8.jpg,TT,layer6-8,0.0,86.0,86.0,86.0,,,,,,,,,604.7593803599957,None,2.0,3.497362902999157,604.7593803599957,None,604.7593803599957,None,604.7593803599957,None,1,2022_Jun_23_1319,Semantic-hierachy,2021.1.2,
87,Trial # 88,layer6-8_O10_to_T3.jpg,layer6-8/layer6-8_O10_to_T3.jpg,OT,layer6-8,0.0,87.0,87.0,87.0,,,,,,,,,610.2608653290008,None,3.0,2.596185094000248,610.2608653290008,None,610.2608653290008,None,610.2608653290008,None,1,2022_Jun_23_1319,Semantic-hierachy,2021.1.2,
88,Trial # 89,layer6-8_O5_to_O9.jpg,layer6-8/layer6-8_O5_to_O9.jpg,OO,layer6-8,0.0,88.0,88.0,88.0,,,,,,,,,613.2462218619985,None,4.0,5.5158373640006175,613.2462218619985,None,613.2462218619985,None,613.2462218619985,None,1,2022_Jun_23_1319,Semantic-hierachy,2021.1.2,
89,Trial # 90,layer6-8_O10_to_O11.jpg,layer6-8/layer6-8_O10_to_O11.jpg,OO,layer6-8,0.0,89.0,89.0,89.0,,,,,,,,,619.1814706500008,None,4.0,3.8290472340013366,619.1814706500008,None,619.1814706500008,None,619.1814706500008,None,1,2022_Jun_23_1319,Semantic-hierachy,2021.1.2,
90,Trial # 91,layer0-5_O4_to_T5.jpg,layer0-5/layer0-5_O4_to_T5.jpg,OT,layer0-5,0.0,90.0,90.0,90.0,,,,,,,,,623.3153156949993,None,1.0,2.0610659800004214,623.3153156949993,None,623.3153156949993,None,623.3153156949993,None,1,2022_Jun_23_1319,Semantic-hierachy,2021.1.2,
91,Trial # 92,layer0-5_T11_to_T12.jpg,layer0-5/layer0-5_T11_to_T12.jpg,TT,layer0-5,0.0,91.0,91.0,91.0,,,,,,,,,627.8178240709967,None,1.0,3.0475854399992386,627.8178240709967,None,627.8178240709967,None,627.8178240709967,None,1,2022_Jun_23_1319,Semantic-hierachy,2021.1.2,
92,Trial # 93,layer0-5_T10_to_T3.jpg,layer0-5/layer0-5_T10_to_T3.jpg,TT,layer0-5,0.0,92.0,92.0,92.0,,,,,,,,,632.9517541229943,None,1.0,2.334599124995293,632.9517541229943,None,632.9517541229943,None,632.9517541229943,None,1,2022_Jun_23_1319,Semantic-hierachy,2021.1.2,
93,Trial # 94,layer0-5_O2_to_O8.jpg,layer0-5/layer0-5_O2_to_O8.jpg,OO,layer0-5,0.0,93.0,93.0,93.0,,,,,,,,,635.885619198998,None,1.0,4.800941702000273,635.885619198998,None,635.885619198998,None,635.885619198998,None,1,2022_Jun_23_1319,Semantic-hierachy,2021.1.2,
94,Trial # 95,layer0-5_T3_to_T8.jpg,layer0-5/layer0-5_T3_to_T8.jpg,TT,layer0-5,0.0,94.0,94.0,94.0,,,,,,,,,642.0036440279946,None,1.0,2.741421304999676,642.0036440279946,None,642.0036440279946,None,642.0036440279946,None,1,2022_Jun_23_1319,Semantic-hierachy,2021.1.2,
95,Trial # 96,layer0-5_O7_to_O8.jpg,layer0-5/layer0-5_O7_to_O8.jpg,OO,layer0-5,0.0,95.0,95.0,95.0,,,,,,,,,645.7719880969962,None,1.0,3.734618662005232,645.7719880969962,None,645.7719880969962,None,645.7719880969962,None,1,2022_Jun_23_1319,Semantic-hierachy,2021.1.2,
96,Trial # 97,layer6-8_T10_to_T6.jpg,layer6-8/layer6-8_T10_to_T6.jpg,TT,layer6-8,0.0,96.0,96.0,96.0,,,,,,,,,649.7399874830007,None,4.0,2.294109820002632,649.7399874830007,None,649.7399874830007,None,649.7399874830007,None,1,2022_Jun_23_1319,Semantic-hierachy,2021.1.2,
97,Trial # 98,layer0-5_O1_to_O5.jpg,layer0-5/layer0-5_O1_to_O5.jpg,OO,layer0-5,0.0,97.0,97.0,97.0,,,,,,,,,652.3406529389977,None,1.0,2.0148888859985163,652.3406529389977,None,652.3406529389977,None,652.3406529389977,None,1,2022_Jun_23_1319,Semantic-hierachy,2021.1.2,
98,Trial # 99,layer6-8_O1_to_O6.jpg,layer6-8/layer6-8_O1_to_O6.jpg,OO,layer6-8,0.0,98.0,98.0,98.0,,,,,,,,,654.6581292769988,None,1.0,1.69156239899894,654.6581292769988,None,654.6581292769988,None,654.6581292769988,None,1,2022_Jun_23_1319,Semantic-hierachy,2021.1.2,
99,Trial # 100,layer6-8_O3_to_T1.jpg,layer6-8/layer6-8_O3_to_T1.jpg,OT,layer6-8,0.0,99.0,99.0,99.0,,,,,,,,,658.4771662959974,None,3.0,9.03013753399864,658.4771662959974,None,658.4771662959974,None,658.4771662959974,None,1,2022_Jun_23_1319,Semantic-hierachy,2021.1.2,
100,Trial # 101,layer6-8_T1_to_T9.jpg,layer6-8/layer6-8_T1_to_T9.jpg,TT,layer6-8,0.0,100.0,100.0,100.0,,,,,,,,,668.1791531339986,None,4.0,2.880133532002219,668.1791531339986,None,668.1791531339986,None,668.1791531339986,None,1,2022_Jun_23_1319,Semantic-hierachy,2021.1.2,
101,Trial # 102,layer9-17_O12_to_O6.jpg,layer9-17/layer9-17_O12_to_O6.jpg,OO,layer9-17,0.0,101.0,101.0,101.0,,,,,,,,,673.8483713479945,None,2.0,2.897099794005044,673.8483713479945,None,673.8483713479945,None,673.8483713479945,None,1,2022_Jun_23_1319,Semantic-hierachy,2021.1.2,
102,Trial # 103,layer0-5_T4_to_T9.jpg,layer0-5/layer0-5_T4_to_T9.jpg,TT,layer0-5,0.0,102.0,102.0,102.0,,,,,,,,,677.2657034069998,None,1.0,2.043505447996722,677.2657034069998,None,677.2657034069998,None,677.2657034069998,None,1,2022_Jun_23_1319,Semantic-hierachy,2021.1.2,
103,Trial # 104,layer6-8_O10_to_T1.jpg,layer6-8/layer6-8_O10_to_T1.jpg,OT,layer6-8,0.0,103.0,103.0,103.0,,,,,,,,,679.565524779995,None,4.0,4.557820135996735,679.565524779995,None,679.565524779995,None,679.565524779995,None,1,2022_Jun_23_1319,Semantic-hierachy,2021.1.2,
104,Trial # 105,layer0-5_O6_to_T2.jpg,layer0-5/layer0-5_O6_to_T2.jpg,OT,layer0-5,0.0,104.0,104.0,104.0,,,,,,,,,686.0511283259984,None,1.0,4.299489729994093,686.0511283259984,None,686.0511283259984,None,686.0511283259984,None,1,2022_Jun_23_1319,Semantic-hierachy,2021.1.2,
105,Trial # 106,layer9-17_T11_to_T2.jpg,layer9-17/layer9-17_T11_to_T2.jpg,TT,layer9-17,0.0,105.0,105.0,105.0,,,,,,,,,690.6193588359965,None,2.0,2.154806685000949,690.6193588359965,None,690.6193588359965,None,690.6193588359965,None,1,2022_Jun_23_1319,Semantic-hierachy,2021.1.2,
106,Trial # 107,layer9-17_O12_to_O8.jpg,layer9-17/layer9-17_O12_to_O8.jpg,OO,layer9-17,0.0,106.0,106.0,106.0,,,,,,,,,692.9870425409972,None,4.0,1.9453743470003249,692.9870425409972,None,692.9870425409972,None,692.9870425409972,None,1,2022_Jun_23_1319,Semantic-hierachy,2021.1.2,
107,Trial # 108,layer0-5_T12_to_T3.jpg,layer0-5/layer0-5_T12_to_T3.jpg,TT,layer0-5,0.0,107.0,107.0,107.0,,,,,,,,,696.8211739869948,None,1.0,2.411073734001548,696.8211739869948,None,696.8211739869948,None,696.8211739869948,None,1,2022_Jun_23_1319,Semantic-hierachy,2021.1.2,
108,Trial # 109,layer0-5_T1_to_T10.jpg,layer0-5/layer0-5_T1_to_T10.jpg,TT,layer0-5,0.0,108.0,108.0,108.0,,,,,,,,,699.4390137579976,None,1.0,1.561139229001128,699.4390137579976,None,699.4390137579976,None,699.4390137579976,None,1,2022_Jun_23_1319,Semantic-hierachy,2021.1.2,
109,Trial # 110,layer6-8_O4_to_T5.jpg,layer6-8/layer6-8_O4_to_T5.jpg,OT,layer6-8,0.0,109.0,109.0,109.0,,,,,,,,,702.1892853009995,None,3.0,2.4341280949956854,702.1892853009995,None,702.1892853009995,None,702.1892853009995,None,1,2022_Jun_23_1319,Semantic-hierachy,2021.1.2,
110,Trial # 111,layer9-17_O11_to_O7.jpg,layer9-17/layer9-17_O11_to_O7.jpg,OO,layer9-17,0.0,110.0,110.0,110.0,,,,,,,,,706.3738711179976,None,2.0,3.814773632002471,706.3738711179976,None,706.3738711179976,None,706.3738711179976,None,1,2022_Jun_23_1319,Semantic-hierachy,2021.1.2,
111,Trial # 112,layer0-5_O5_to_O8.jpg,layer0-5/layer0-5_O5_to_O8.jpg,OO,layer0-5,0.0,111.0,111.0,111.0,,,,,,,,,710.4418634799949,None,1.0,2.66840883599798,710.4418634799949,None,710.4418634799949,None,710.4418634799949,None,1,2022_Jun_23_1319,Semantic-hierachy,2021.1.2,
112,Trial # 113,layer0-5_O10_to_O4.jpg,layer0-5/layer0-5_O10_to_O4.jpg,OO,layer0-5,0.0,112.0,112.0,112.0,,,,,,,,,714.3266366909957,None,1.0,2.027809026003524,714.3266366909957,None,714.3266366909957,None,714.3266366909957,None,1,2022_Jun_23_1319,Semantic-hierachy,2021.1.2,
113,Trial # 114,layer9-17_O4_to_O8.jpg,layer9-17/layer9-17_O4_to_O8.jpg,OO,layer9-17,0.0,113.0,113.0,113.0,,,,,,,,,716.5773644590008,None,4.0,3.0096174020000035,716.5773644590008,None,716.5773644590008,None,716.5773644590008,None,1,2022_Jun_23_1319,Semantic-hierachy,2021.1.2,
114,Trial # 115,layer0-5_O2_to_T8.jpg,layer0-5/layer0-5_O2_to_T8.jpg,OT,layer0-5,0.0,114.0,114.0,114.0,,,,,,,,,720.3293728509962,None,1.0,2.8384605909959646,720.3293728509962,None,720.3293728509962,None,720.3293728509962,None,1,2022_Jun_23_1319,Semantic-hierachy,2021.1.2,
115,Trial # 116,layer9-17_T2_to_T3.jpg,layer9-17/layer9-17_T2_to_T3.jpg,TT,layer9-17,0.0,115.0,115.0,115.0,,,,,,,,,725.9799992369954,None,2.0,2.4305067059976864,725.9799992369954,None,725.9799992369954,None,725.9799992369954,None,1,2022_Jun_23_1319,Semantic-hierachy,2021.1.2,
116,Trial # 117,layer6-8_O1_to_T10.jpg,layer6-8/layer6-8_O1_to_T10.jpg,OT,layer6-8,0.0,116.0,116.0,116.0,,,,,,,,,729.6143147159964,None,3.0,5.7449545950003085,729.6143147159964,None,729.6143147159964,None,729.6143147159964,None,1,2022_Jun_23_1319,Semantic-hierachy,2021.1.2,
117,Trial # 118,layer0-5_T3_to_T7.jpg,layer0-5/layer0-5_T3_to_T7.jpg,TT,layer0-5,0.0,117.0,117.0,117.0,,,,,,,,,738.5353151689997,None,1.0,5.035639128000184,738.5353151689997,None,738.5353151689997,None,738.5353151689997,None,1,2022_Jun_23_1319,Semantic-hierachy,2021.1.2,
118,Trial # 119,layer9-17_O1_to_O12.jpg,layer9-17/layer9-17_O1_to_O12.jpg,OO,layer9-17,0.0,118.0,118.0,118.0,,,,,,,,,744.469503069995,None,2.0,2.6333921650002594,744.469503069995,None,744.469503069995,None,744.469503069995,None,1,2022_Jun_23_1319,Semantic-hierachy,2021.1.2,
119,Trial # 120,layer6-8_O12_to_O2.jpg,layer6-8/layer6-8_O12_to_O2.jpg,OO,layer6-8,0.0,119.0,119.0,119.0,,,,,,,,,749.620706914,None,4.0,4.633837027002301,749.620706914,None,749.620706914,None,749.620706914,None,1,2022_Jun_23_1319,Semantic-hierachy,2021.1.2,
120,Trial # 121,layer9-17_O10_to_O9.jpg,layer9-17/layer9-17_O10_to_O9.jpg,OO,layer9-17,0.0,120.0,120.0,120.0,,,,,,,,,755.239109256996,None,2.0,2.0962078489974374,755.239109256996,None,755.239109256996,None,755.239109256996,None,1,2022_Jun_23_1319,Semantic-hierachy,2021.1.2,
121,Trial # 122,layer6-8_O4_to_T10.jpg,layer6-8/layer6-8_O4_to_T10.jpg,OT,layer6-8,0.0,121.0,121.0,121.0,,,,,,,,,758.4581538959974,None,3.0,2.276546248998784,758.4581538959974,None,758.4581538959974,None,758.4581538959974,None,1,2022_Jun_23_1319,Semantic-hierachy,2021.1.2,
122,Trial # 123,layer6-8_O2_to_T3.jpg,layer6-8/layer6-8_O2_to_T3.jpg,OT,layer6-8,0.0,122.0,122.0,122.0,,,,,,,,,763.6096891259949,None,3.0,1.747548587001802,763.6096891259949,None,763.6096891259949,None,763.6096891259949,None,1,2022_Jun_23_1319,Semantic-hierachy,2021.1.2,
123,Trial # 124,layer0-5_O1_to_O7.jpg,layer0-5/layer0-5_O1_to_O7.jpg,OO,layer0-5,0.0,123.0,123.0,123.0,,,,,,,,,765.892420076998,None,1.0,1.550263609002286,765.892420076998,None,765.892420076998,None,765.892420076998,None,1,2022_Jun_23_1319,Semantic-hierachy,2021.1.2,
124,Trial # 125,layer0-5_T8_to_T9.jpg,layer0-5/layer0-5_T8_to_T9.jpg,TT,layer0-5,0.0,124.0,124.0,124.0,,,,,,,,,768.043600776,None,1.0,3.982631032995414,768.043600776,None,768.043600776,None,768.043600776,None,1,2022_Jun_23_1319,Semantic-hierachy,2021.1.2,
125,Trial # 126,layer0-5_O12_to_T8.jpg,layer0-5/layer0-5_O12_to_T8.jpg,OT,layer0-5,0.0,125.0,125.0,125.0,,,,,,,,,772.444459391998,None,1.0,5.399453445999825,772.444459391998,None,772.444459391998,None,772.444459391998,None,1,2022_Jun_23_1319,Semantic-hierachy,2021.1.2,
126,Trial # 127,layer9-17_O4_to_O6.jpg,layer9-17/layer9-17_O4_to_O6.jpg,OO,layer9-17,0.0,126.0,126.0,126.0,,,,,,,,,778.2141738139981,None,4.0,3.1645795359945623,778.2141738139981,None,778.2141738139981,None,778.2141738139981,None,1,2022_Jun_23_1319,Semantic-hierachy,2021.1.2,
127,Trial # 128,layer6-8_O12_to_O6.jpg,layer6-8/layer6-8_O12_to_O6.jpg,OO,layer6-8,0.0,127.0,127.0,127.0,,,,,,,,,781.8137040399961,None,4.0,4.347017305000918,781.8137040399961,None,781.8137040399961,None,781.8137040399961,None,1,2022_Jun_23_1319,Semantic-hierachy,2021.1.2,
128,Trial # 129,layer0-5_T4_to_T6.jpg,layer0-5/layer0-5_T4_to_T6.jpg,TT,layer0-5,0.0,128.0,128.0,128.0,,,,,,,,,789.9831352769979,None,1.0,1.830004708004708,789.9831352769979,None,789.9831352769979,None,789.9831352769979,None,1,2022_Jun_23_1319,Semantic-hierachy,2021.1.2,
129,Trial # 130,layer9-17_O1_to_O3.jpg,layer9-17/layer9-17_O1_to_O3.jpg,OO,layer9-17,0.0,129.0,129.0,129.0,,,,,,,,,792.0339674860006,None,2.0,1.493536474998109,792.0339674860006,None,792.0339674860006,None,792.0339674860006,None,1,2022_Jun_23_1319,Semantic-hierachy,2021.1.2,
130,Trial # 131,layer9-17_O10_to_O3.jpg,layer9-17/layer9-17_O10_to_O3.jpg,OO,layer9-17,0.0,130.0,130.0,130.0,,,,,,,,,793.8355523859937,None,2.0,1.1594216790035716,793.8355523859937,None,793.8355523859937,None,793.8355523859937,None,1,2022_Jun_23_1319,Semantic-hierachy,2021.1.2,
131,Trial # 132,layer9-17_O12_to_O3.jpg,layer9-17/layer9-17_O12_to_O3.jpg,OO,layer9-17,0.0,131.0,131.0,131.0,,,,,,,,,795.2181037019982,None,2.0,1.2856112379959086,795.2181037019982,None,795.2181037019982,None,795.2181037019982,None,1,2022_Jun_23_1319,Semantic-hierachy,2021.1.2,
132,Trial # 133,layer9-17_O11_to_O4.jpg,layer9-17/layer9-17_O11_to_O4.jpg,OO,layer9-17,0.0,132.0,132.0,132.0,,,,,,,,,797.0020865439947,None,4.0,3.617387571001018,797.0020865439947,None,797.0020865439947,None,797.0020865439947,None,1,2022_Jun_23_1319,Semantic-hierachy,2021.1.2,
133,Trial # 134,layer9-17_T4_to_T7.jpg,layer9-17/layer9-17_T4_to_T7.jpg,TT,layer9-17,0.0,133.0,133.0,133.0,,,,,,,,,801.0539210700008,None,2.0,2.491661282001587,801.0539210700008,None,801.0539210700008,None,801.0539210700008,None,1,2022_Jun_23_1319,Semantic-hierachy,2021.1.2,
134,Trial # 135,layer9-17_O1_to_T1.jpg,layer9-17/layer9-17_O1_to_T1.jpg,OT,layer9-17,0.0,134.0,134.0,134.0,,,,,,,,,803.7221753049962,None,4.0,2.756421224003134,803.7221753049962,None,803.7221753049962,None,803.7221753049962,None,1,2022_Jun_23_1319,Semantic-hierachy,2021.1.2,
135,Trial # 136,layer6-8_T2_to_T5.jpg,layer6-8/layer6-8_T2_to_T5.jpg,TT,layer6-8,0.0,135.0,135.0,135.0,,,,,,,,,806.7053274719947,None,4.0,3.613379337999504,806.7053274719947,None,806.7053274719947,None,806.7053274719947,None,1,2022_Jun_23_1319,Semantic-hierachy,2021.1.2,
136,Trial # 137,layer9-17_T11_to_T7.jpg,layer9-17/layer9-17_T11_to_T7.jpg,TT,layer9-17,0.0,136.0,136.0,136.0,,,,,,,,,812.9917340869943,None,2.0,3.9482479829966906,812.9917340869943,None,812.9917340869943,None,812.9917340869943,None,1,2022_Jun_23_1319,Semantic-hierachy,2021.1.2,
137,Trial # 138,layer6-8_O3_to_O8.jpg,layer6-8/layer6-8_O3_to_O8.jpg,OO,layer6-8,0.0,137.0,137.0,137.0,,,,,,,,,818.1266578239956,None,3.0,2.766051917002187,818.1266578239956,None,818.1266578239956,None,818.1266578239956,None,1,2022_Jun_23_1319,Semantic-hierachy,2021.1.2,
138,Trial # 139,layer6-8_O1_to_T7.jpg,layer6-8/layer6-8_O1_to_T7.jpg,OT,layer6-8,0.0,138.0,138.0,138.0,,,,,,,,,823.4282196299973,None,4.0,10.083581614002467,823.4282196299973,None,823.4282196299973,None,823.4282196299973,None,1,2022_Jun_23_1319,Semantic-hierachy,2021.1.2,
139,Trial # 140,layer9-17_T1_to_T3.jpg,layer9-17/layer9-17_T1_to_T3.jpg,TT,layer9-17,0.0,139.0,139.0,139.0,,,,,,,,,835.4472507269966,None,4.0,3.57694416600134,835.4472507269966,None,835.4472507269966,None,835.4472507269966,None,1,2022_Jun_23_1319,Semantic-hierachy,2021.1.2,
140,Trial # 141,layer6-8_O10_to_O12.jpg,layer6-8/layer6-8_O10_to_O12.jpg,OO,layer6-8,0.0,140.0,140.0,140.0,,,,,,,,,839.3151952849948,None,4.0,2.479947021995031,839.3151952849948,None,839.3151952849948,None,839.3151952849948,None,1,2022_Jun_23_1319,Semantic-hierachy,2021.1.2,
141,Trial # 142,layer6-8_O12_to_T11.jpg,layer6-8/layer6-8_O12_to_T11.jpg,OT,layer6-8,0.0,141.0,141.0,141.0,,,,,,,,,843.3345481479992,None,4.0,4.384138316003373,843.3345481479992,None,843.3345481479992,None,843.3345481479992,None,1,2022_Jun_23_1319,Semantic-hierachy,2021.1.2,
142,Trial # 143,layer0-5_O11_to_O5.jpg,layer0-5/layer0-5_O11_to_O5.jpg,OO,layer0-5,0.0,142.0,142.0,142.0,,,,,,,,,849.2857524719948,None,1.0,2.194451217001188,849.2857524719948,None,849.2857524719948,None,849.2857524719948,None,1,2022_Jun_23_1319,Semantic-hierachy,2021.1.2,
143,Trial # 144,layer6-8_O1_to_O8.jpg,layer6-8/layer6-8_O1_to_O8.jpg,OO,layer6-8,0.0,143.0,143.0,143.0,,,,,,,,,851.7691790809986,None,2.0,1.980393523001112,851.7691790809986,None,851.7691790809986,None,851.7691790809986,None,1,2022_Jun_23_1319,Semantic-hierachy,2021.1.2,
144,Trial # 145,layer0-5_T2_to_T5.jpg,layer0-5/layer0-5_T2_to_T5.jpg,TT,layer0-5,0.0,144.0,144.0,144.0,,,,,,,,,854.2700156529972,None,1.0,3.3427793420050875,854.2700156529972,None,854.2700156529972,None,854.2700156529972,None,1,2022_Jun_23_1319,Semantic-hierachy,2021.1.2,
145,Trial # 146,layer9-17_O8_to_T3.jpg,layer9-17/layer9-17_O8_to_T3.jpg,OT,layer9-17,0.0,145.0,145.0,145.0,,,,,,,,,857.9379248219993,None,2.0,2.273768942999596,857.9379248219993,None,857.9379248219993,None,857.9379248219993,None,1,2022_Jun_23_1319,Semantic-hierachy,2021.1.2,
146,Trial # 147,layer9-17_O8_to_T4.jpg,layer9-17/layer9-17_O8_to_T4.jpg,OT,layer9-17,0.0,146.0,146.0,146.0,,,,,,,,,860.4050250829969,None,4.0,4.962065822001023,860.4050250829969,None,860.4050250829969,None,860.4050250829969,None,1,2022_Jun_23_1319,Semantic-hierachy,2021.1.2,
147,Trial # 148,layer9-17_O4_to_T9.jpg,layer9-17/layer9-17_O4_to_T9.jpg,OT,layer9-17,0.0,147.0,147.0,147.0,,,,,,,,,865.6231671559945,None,2.0,1.6353962180000965,865.6231671559945,None,865.6231671559945,None,865.6231671559945,None,1,2022_Jun_23_1319,Semantic-hierachy,2021.1.2,
148,Trial # 149,layer6-8_O4_to_O8.jpg,layer6-8/layer6-8_O4_to_O8.jpg,OO,layer6-8,0.0,148.0,148.0,148.0,,,,,,,,,867.825363375996,None,3.0,3.0605504430059227,867.825363375996,None,867.825363375996,None,867.825363375996,None,1,2022_Jun_23_1319,Semantic-hierachy,2021.1.2,
149,Trial # 150,layer0-5_O12_to_T7.jpg,layer0-5/layer0-5_O12_to_T7.jpg,OT,layer0-5,0.0,149.0,149.0,149.0,,,,,,,,,871.3085013199961,None,1.0,2.888177519002056,871.3085013199961,None,871.3085013199961,None,871.3085013199961,None,1,2022_Jun_23_1319,Semantic-hierachy,2021.1.2,
150,Trial # 151,layer6-8_T1_to_T3.jpg,layer6-8/layer6-8_T1_to_T3.jpg,TT,layer6-8,,,,,0.0,0.0,0.0,0.0,,,,,877.3602969559943,None,4.0,6.058286358995247,877.3602969559943,None,877.3602969559943,None,877.3602969559943,None,1,2022_Jun_23_1319,Semantic-hierachy,2021.1.2,
151,Trial # 152,layer0-5_O8_to_O9.jpg,layer0-5/layer0-5_O8_to_O9.jpg,OO,layer0-5,,,,,0.0,1.0,1.0,1.0,,,,,883.7135042359951,None,1.0,2.84722640200198,883.7135042359951,None,883.7135042359951,None,883.7135042359951,None,1,2022_Jun_23_1319,Semantic-hierachy,2021.1.2,
152,Trial # 153,layer9-17_T1_to_T5.jpg,layer9-17/layer9-17_T1_to_T5.jpg,TT,layer9-17,,,,,0.0,2.0,2.0,2.0,,,,,886.796441075996,None,2.0,1.2994245829977444,886.796441075996,None,886.796441075996,None,886.796441075996,None,1,2022_Jun_23_1319,Semantic-hierachy,2021.1.2,
153,Trial # 154,layer6-8_T7_to_T9.jpg,layer6-8/layer6-8_T7_to_T9.jpg,TT,layer6-8,,,,,0.0,3.0,3.0,3.0,,,,,888.3138512439982,None,4.0,1.963517212003353,888.3138512439982,None,888.3138512439982,None,888.3138512439982,None,1,2022_Jun_23_1319,Semantic-hierachy,2021.1.2,
154,Trial # 155,layer9-17_T12_to_T7.jpg,layer9-17/layer9-17_T12_to_T7.jpg,TT,layer9-17,,,,,0.0,4.0,4.0,4.0,,,,,890.5976550880005,None,2.0,1.9418309290049365,890.5976550880005,None,890.5976550880005,None,890.5976550880005,None,1,2022_Jun_23_1319,Semantic-hierachy,2021.1.2,
155,Trial # 156,layer0-5_O8_to_T11.jpg,layer0-5/layer0-5_O8_to_T11.jpg,OT,layer0-5,,,,,0.0,5.0,5.0,5.0,,,,,892.7661730399996,None,1.0,2.030583593004849,892.7661730399996,None,892.7661730399996,None,892.7661730399996,None,1,2022_Jun_23_1319,Semantic-hierachy,2021.1.2,
156,Trial # 157,layer0-5_O1_to_O9.jpg,layer0-5/layer0-5_O1_to_O9.jpg,OO,layer0-5,,,,,0.0,6.0,6.0,6.0,,,,,894.998955750998,None,1.0,2.367612979003752,894.998955750998,None,894.998955750998,None,894.998955750998,None,1,2022_Jun_23_1319,Semantic-hierachy,2021.1.2,
157,Trial # 158,layer0-5_O10_to_O12.jpg,layer0-5/layer0-5_O10_to_O12.jpg,OO,layer0-5,,,,,0.0,7.0,7.0,7.0,,,,,897.6010102059954,None,1.0,2.8680569470016053,897.6010102059954,None,897.6010102059954,None,897.6010102059954,None,1,2022_Jun_23_1319,Semantic-hierachy,2021.1.2,
158,Trial # 159,layer6-8_O10_to_T5.jpg,layer6-8/layer6-8_O10_to_T5.jpg,OT,layer6-8,,,,,0.0,8.0,8.0,8.0,,,,,900.6842157520005,None,4.0,3.599106991998269,900.6842157520005,None,900.6842157520005,None,900.6842157520005,None,1,2022_Jun_23_1319,Semantic-hierachy,2021.1.2,
159,Trial # 160,layer6-8_O5_to_O6.jpg,layer6-8/layer6-8_O5_to_O6.jpg,OO,layer6-8,,,,,0.0,9.0,9.0,9.0,,,,,905.3535779279993,None,4.0,3.4421077689985395,905.3535779279993,None,905.3535779279993,None,905.3535779279993,None,1,2022_Jun_23_1319,Semantic-hierachy,2021.1.2,
160,Trial # 161,layer6-8_O6_to_T11.jpg,layer6-8/layer6-8_O6_to_T11.jpg,OT,layer6-8,,,,,0.0,10.0,10.0,10.0,,,,,908.9545985259974,None,2.0,2.032980958996632,908.9545985259974,None,908.9545985259974,None,908.9545985259974,None,1,2022_Jun_23_1319,Semantic-hierachy,2021.1.2,
161,Trial # 162,layer9-17_O12_to_O9.jpg,layer9-17/layer9-17_O12_to_O9.jpg,OO,layer9-17,,,,,0.0,11.0,11.0,11.0,,,,,911.2871093930008,None,2.0,1.9996941279969176,911.2871093930008,None,911.2871093930008,None,911.2871093930008,None,1,2022_Jun_23_1319,Semantic-hierachy,2021.1.2,
162,Trial # 163,layer6-8_O12_to_T6.jpg,layer6-8/layer6-8_O12_to_T6.jpg,OT,layer6-8,,,,,0.0,12.0,12.0,12.0,,,,,913.5892825569972,None,4.0,1.8144465660006968,913.5892825569972,None,913.5892825569972,None,913.5892825569972,None,1,2022_Jun_23_1319,Semantic-hierachy,2021.1.2,
163,Trial # 164,layer0-5_T11_to_T7.jpg,layer0-5/layer0-5_T11_to_T7.jpg,TT,layer0-5,,,,,0.0,13.0,13.0,13.0,,,,,915.8057801649992,None,1.0,5.06944396700419,915.8057801649992,None,915.8057801649992,None,915.8057801649992,None,1,2022_Jun_23_1319,Semantic-hierachy,2021.1.2,
164,Trial # 165,layer9-17_O10_to_T5.jpg,layer9-17/layer9-17_O10_to_T5.jpg,OT,layer9-17,,,,,0.0,14.0,14.0,14.0,,,,,923.1423365570008,None,4.0,4.314297340999474,923.1423365570008,None,923.1423365570008,None,923.1423365570008,None,1,2022_Jun_23_1319,Semantic-hierachy,2021.1.2,
165,Trial # 166,layer9-17_T1_to_T6.jpg,layer9-17/layer9-17_T1_to_T6.jpg,TT,layer9-17,,,,,0.0,15.0,15.0,15.0,,,,,928.3107652269972,None,2.0,1.7035540470023989,928.3107652269972,None,928.3107652269972,None,928.3107652269972,None,1,2022_Jun_23_1319,Semantic-hierachy,2021.1.2,
166,Trial # 167,layer0-5_T1_to_T3.jpg,layer0-5/layer0-5_T1_to_T3.jpg,TT,layer0-5,,,,,0.0,16.0,16.0,16.0,,,,,930.5098267369976,None,1.0,2.47460796499945,930.5098267369976,None,930.5098267369976,None,930.5098267369976,None,1,2022_Jun_23_1319,Semantic-hierachy,2021.1.2,
167,Trial # 168,layer0-5_O2_to_O9.jpg,layer0-5/layer0-5_O2_to_O9.jpg,OO,layer0-5,,,,,0.0,17.0,17.0,17.0,,,,,934.2458119239964,None,1.0,2.301903058003518,934.2458119239964,None,934.2458119239964,None,934.2458119239964,None,1,2022_Jun_23_1319,Semantic-hierachy,2021.1.2,
168,Trial # 169,layer9-17_O3_to_T4.jpg,layer9-17/layer9-17_O3_to_T4.jpg,OT,layer9-17,,,,,0.0,18.0,18.0,18.0,,,,,936.9788483059964,None,2.0,1.4467723739944631,936.9788483059964,None,936.9788483059964,None,936.9788483059964,None,1,2022_Jun_23_1319,Semantic-hierachy,2021.1.2,
169,Trial # 170,layer6-8_O11_to_O9.jpg,layer6-8/layer6-8_O11_to_O9.jpg,OO,layer6-8,,,,,0.0,19.0,19.0,19.0,,,,,938.6971966329947,None,2.0,1.9234472809985164,938.6971966329947,None,938.6971966329947,None,938.6971966329947,None,1,2022_Jun_23_1319,Semantic-hierachy,2021.1.2,
170,Trial # 171,layer9-17_O1_to_O7.jpg,layer9-17/layer9-17_O1_to_O7.jpg,OO,layer9-17,,,,,0.0,20.0,20.0,20.0,,,,,945.5148312899984,None,4.0,4.478996568002913,945.5148312899984,None,945.5148312899984,None,945.5148312899984,None,1,2022_Jun_23_1319,Semantic-hierachy,2021.1.2,
171,Trial # 172,layer0-5_T12_to_T4.jpg,layer0-5/layer0-5_T12_to_T4.jpg,TT,layer0-5,,,,,0.0,21.0,21.0,21.0,,,,,957.7027903589988,None,1.0,3.430020391999278,957.7027903589988,None,957.7027903589988,None,957.7027903589988,None,1,2022_Jun_23_1319,Semantic-hierachy,2021.1.2,
172,Trial # 173,layer0-5_O4_to_T4.jpg,layer0-5/layer0-5_O4_to_T4.jpg,OT,layer0-5,,,,,0.0,22.0,22.0,22.0,,,,,961.6198872210008,None,4.0,4.9492706269957125,961.6198872210008,None,961.6198872210008,None,961.6198872210008,None,1,2022_Jun_23_1319,Semantic-hierachy,2021.1.2,
173,Trial # 174,layer6-8_T12_to_T5.jpg,layer6-8/layer6-8_T12_to_T5.jpg,TT,layer6-8,,,,,0.0,23.0,23.0,23.0,,,,,966.904065676994,None,4.0,3.803738037997391,966.904065676994,None,966.904065676994,None,966.904065676994,None,1,2022_Jun_23_1319,Semantic-hierachy,2021.1.2,
174,Trial # 175,layer6-8_O11_to_T1.jpg,layer6-8/layer6-8_O11_to_T1.jpg,OT,layer6-8,,,,,0.0,24.0,24.0,24.0,,,,,971.0726058459986,None,4.0,3.013029855996137,971.0726058459986,None,971.0726058459986,None,971.0726058459986,None,1,2022_Jun_23_1319,Semantic-hierachy,2021.1.2,
175,Trial # 176,layer0-5_O7_to_T8.jpg,layer0-5/layer0-5_O7_to_T8.jpg,OT,layer0-5,,,,,0.0,25.0,25.0,25.0,,,,,975.5578658209996,None,1.0,1.9955273100058548,975.5578658209996,None,975.5578658209996,None,975.5578658209996,None,1,2022_Jun_23_1319,Semantic-hierachy,2021.1.2,
176,Trial # 177,layer0-5_O11_to_T5.jpg,layer0-5/layer0-5_O11_to_T5.jpg,OT,layer0-5,,,,,0.0,26.0,26.0,26.0,,,,,977.8419147469976,None,1.0,1.614357652993931,977.8419147469976,None,977.8419147469976,None,977.8419147469976,None,1,2022_Jun_23_1319,Semantic-hierachy,2021.1.2,
177,Trial # 178,layer9-17_O2_to_T2.jpg,layer9-17/layer9-17_O2_to_T2.jpg,OT,layer9-17,,,,,0.0,27.0,27.0,27.0,,,,,979.7254855329955,None,4.0,7.407491118996404,979.7254855329955,None,979.7254855329955,None,979.7254855329955,None,1,2022_Jun_23_1319,Semantic-hierachy,2021.1.2,
178,Trial # 179,layer0-5_O4_to_T9.jpg,layer0-5/layer0-5_O4_to_T9.jpg,OT,layer0-5,,,,,0.0,28.0,28.0,28.0,,,,,987.5103376179976,None,1.0,2.130722173998948,987.5103376179976,None,987.5103376179976,None,987.5103376179976,None,1,2022_Jun_23_1319,Semantic-hierachy,2021.1.2,
179,Trial # 180,layer9-17_T6_to_T8.jpg,layer9-17/layer9-17_T6_to_T8.jpg,TT,layer9-17,,,,,0.0,29.0,29.0,29.0,,,,,990.1119353089962,None,2.0,1.5925021910006762,990.1119353089962,None,990.1119353089962,None,990.1119353089962,None,1,2022_Jun_23_1319,Semantic-hierachy,2021.1.2,
180,Trial # 181,layer9-17_O12_to_O5.jpg,layer9-17/layer9-17_O12_to_O5.jpg,OO,layer9-17,,,,,0.0,30.0,30.0,30.0,,,,,991.87895097,None,2.0,1.868150203998084,991.87895097,None,991.87895097,None,991.87895097,None,1,2022_Jun_23_1319,Semantic-hierachy,2021.1.2,
181,Trial # 182,layer6-8_O1_to_O7.jpg,layer6-8/layer6-8_O1_to_O7.jpg,OO,layer6-8,,,,,0.0,31.0,31.0,31.0,,,,,993.9974876329944,None,4.0,2.5270263589991373,993.9974876329944,None,993.9974876329944,None,993.9974876329944,None,1,2022_Jun_23_1319,Semantic-hierachy,2021.1.2,
182,Trial # 183,layer6-8_O3_to_T10.jpg,layer6-8/layer6-8_O3_to_T10.jpg,OT,layer6-8,,,,,0.0,32.0,32.0,32.0,,,,,996.9300481949977,None,3.0,1.583536706995801,996.9300481949977,None,996.9300481949977,None,996.9300481949977,None,1,2022_Jun_23_1319,Semantic-hierachy,2021.1.2,
183,Trial # 184,layer0-5_O1_to_T11.jpg,layer0-5/layer0-5_O1_to_T11.jpg,OT,layer0-5,,,,,0.0,33.0,33.0,33.0,,,,,1001.4653321609948,None,1.0,2.217351309998776,1001.4653321609948,None,1001.4653321609948,None,1001.4653321609948,None,1,2022_Jun_23_1319,Semantic-hierachy,2021.1.2,
184,Trial # 185,layer6-8_O8_to_O9.jpg,layer6-8/layer6-8_O8_to_O9.jpg,OO,layer6-8,,,,,0.0,34.0,34.0,34.0,,,,,1003.949664531996,None,3.0,1.829710457001056,1003.949664531996,None,1003.949664531996,None,1003.949664531996,None,1,2022_Jun_23_1319,Semantic-hierachy,2021.1.2,
185,Trial # 186,layer9-17_O4_to_O9.jpg,layer9-17/layer9-17_O4_to_O9.jpg,OO,layer9-17,,,,,0.0,35.0,35.0,35.0,,,,,1007.585060862999,None,4.0,4.063048071999219,1007.585060862999,None,1007.585060862999,None,1007.585060862999,None,1,2022_Jun_23_1319,Semantic-hierachy,2021.1.2,
186,Trial # 187,layer0-5_O12_to_O5.jpg,layer0-5/layer0-5_O12_to_O5.jpg,OO,layer0-5,,,,,0.0,36.0,36.0,36.0,,,,,1011.9349982450004,None,1.0,1.7454683410032883,1011.9349982450004,None,1011.9349982450004,None,1011.9349982450004,None,1,2022_Jun_23_1319,Semantic-hierachy,2021.1.2,
187,Trial # 188,layer6-8_T12_to_T4.jpg,layer6-8/layer6-8_T12_to_T4.jpg,TT,layer6-8,,,,,0.0,37.0,37.0,37.0,,,,,1013.90354698,None,4.0,3.6622851919964887,1013.90354698,None,1013.90354698,None,1013.90354698,None,1,2022_Jun_23_1319,Semantic-hierachy,2021.1.2,
188,Trial # 189,layer0-5_T6_to_T8.jpg,layer0-5/layer0-5_T6_to_T8.jpg,TT,layer0-5,,,,,0.0,38.0,38.0,38.0,,,,,1018.7376145159942,None,1.0,2.0073162030021194,1018.7376145159942,None,1018.7376145159942,None,1018.7376145159942,None,1,2022_Jun_23_1319,Semantic-hierachy,2021.1.2,
189,Trial # 190,layer6-8_O11_to_T2.jpg,layer6-8/layer6-8_O11_to_T2.jpg,OT,layer6-8,,,,,0.0,39.0,39.0,39.0,,,,,1021.0546816459972,None,4.0,3.7087818360014353,1021.0546816459972,None,1021.0546816459972,None,1021.0546816459972,None,1,2022_Jun_23_1319,Semantic-hierachy,2021.1.2,
190,Trial # 191,layer6-8_O1_to_O3.jpg,layer6-8/layer6-8_O1_to_O3.jpg,OO,layer6-8,,,,,0.0,40.0,40.0,40.0,,,,,1025.1394690889938,None,4.0,8.747780995006906,1025.1394690889938,None,1025.1394690889938,None,1025.1394690889938,None,1,2022_Jun_23_1319,Semantic-hierachy,2021.1.2,
191,Trial # 192,layer0-5_O7_to_T1.jpg,layer0-5/layer0-5_O7_to_T1.jpg,OT,layer0-5,,,,,0.0,41.0,41.0,41.0,,,,,1034.092098672998,None,1.0,1.333566373999929,1034.092098672998,None,1034.092098672998,None,1034.092098672998,None,1,2022_Jun_23_1319,Semantic-hierachy,2021.1.2,
192,Trial # 193,layer6-8_O3_to_T7.jpg,layer6-8/layer6-8_O3_to_T7.jpg,OT,layer6-8,,,,,0.0,42.0,42.0,42.0,,,,,1035.6594523069944,None,3.0,5.476653163001174,1035.6594523069944,None,1035.6594523069944,None,1035.6594523069944,None,1,2022_Jun_23_1319,Semantic-hierachy,2021.1.2,
193,Trial # 194,layer9-17_T10_to_T6.jpg,layer9-17/layer9-17_T10_to_T6.jpg,TT,layer9-17,,,,,0.0,43.0,43.0,43.0,,,,,1041.3109264230006,None,2.0,2.318448970996542,1041.3109264230006,None,1041.3109264230006,None,1041.3109264230006,None,1,2022_Jun_23_1319,Semantic-hierachy,2021.1.2,
194,Trial # 195,layer6-8_T2_to_T9.jpg,layer6-8/layer6-8_T2_to_T9.jpg,TT,layer6-8,,,,,0.0,44.0,44.0,44.0,,,,,1043.846336552,None,4.0,9.450530832000368,1043.846336552,None,1043.846336552,None,1043.846336552,None,1,2022_Jun_23_1319,Semantic-hierachy,2021.1.2,
195,Trial # 196,layer0-5_O3_to_T3.jpg,layer0-5/layer0-5_O3_to_T3.jpg,OT,layer0-5,,,,,0.0,45.0,45.0,45.0,,,,,1053.465693562997,None,1.0,4.546269749000203,1053.465693562997,None,1053.465693562997,None,1053.465693562997,None,1,2022_Jun_23_1319,Semantic-hierachy,2021.1.2,
196,Trial # 197,layer9-17_O1_to_O2.jpg,layer9-17/layer9-17_O1_to_O2.jpg,OO,layer9-17,,,,,0.0,46.0,46.0,46.0,,,,,1058.1839948229972,None,4.0,3.5632083869932103,1058.1839948229972,None,1058.1839948229972,None,1058.1839948229972,None,1,2022_Jun_23_1319,Semantic-hierachy,2021.1.2,
197,Trial # 198,layer9-17_T2_to_T9.jpg,layer9-17/layer9-17_T2_to_T9.jpg,TT,layer9-17,,,,,0.0,47.0,47.0,47.0,,,,,1062.3673639240003,None,2.0,1.6160306800011313,1062.3673639240003,None,1062.3673639240003,None,1062.3673639240003,None,1,2022_Jun_23_1319,Semantic-hierachy,2021.1.2,
198,Trial # 199,layer9-17_O6_to_T10.jpg,layer9-17/layer9-17_O6_to_T10.jpg,OT,layer9-17,,,,,0.0,48.0,48.0,48.0,,,,,1064.185871390997,None,2.0,2.693869094000547,1064.185871390997,None,1064.185871390997,None,1064.185871390997,None,1,2022_Jun_23_1319,Semantic-hierachy,2021.1.2,
199,Trial # 200,layer0-5_T12_to_T5.jpg,layer0-5/layer0-5_T12_to_T5.jpg,TT,layer0-5,,,,,0.0,49.0,49.0,49.0,,,,,1067.1355012789936,None,1.0,1.412396626001282,1067.1355012789936,None,1067.1355012789936,None,1067.1355012789936,None,1,2022_Jun_23_1319,Semantic-hierachy,2021.1.2,
200,Trial # 201,layer0-5_O10_to_T10.jpg,layer0-5/layer0-5_O10_to_T10.jpg,OT,layer0-5,,,,,0.0,50.0,50.0,50.0,,,,,1068.7037884460003,None,1.0,2.2251440010004444,1068.7037884460003,None,1068.7037884460003,None,1068.7037884460003,None,1,2022_Jun_23_1319,Semantic-hierachy,2021.1.2,
201,Trial # 202,layer9-17_T11_to_T12.jpg,layer9-17/layer9-17_T11_to_T12.jpg,TT,layer9-17,,,,,0.0,51.0,51.0,51.0,,,,,1071.8369664499987,None,2.0,1.521493020998605,1071.8369664499987,None,1071.8369664499987,None,1071.8369664499987,None,1,2022_Jun_23_1319,Semantic-hierachy,2021.1.2,
202,Trial # 203,layer6-8_T3_to_T5.jpg,layer6-8/layer6-8_T3_to_T5.jpg,TT,layer6-8,,,,,0.0,52.0,52.0,52.0,,,,,1073.5712568119998,None,4.0,2.3976526879996527,1073.5712568119998,None,1073.5712568119998,None,1073.5712568119998,None,1,2022_Jun_23_1319,Semantic-hierachy,2021.1.2,
203,Trial # 204,layer0-5_O5_to_T10.jpg,layer0-5/layer0-5_O5_to_T10.jpg,OT,layer0-5,,,,,0.0,53.0,53.0,53.0,,,,,1077.2887605219948,None,4.0,13.663365202002751,1077.2887605219948,None,1077.2887605219948,None,1077.2887605219948,None,1,2022_Jun_23_1319,Semantic-hierachy,2021.1.2,
204,Trial # 205,layer0-5_O10_to_O5.jpg,layer0-5/layer0-5_O10_to_O5.jpg,OO,layer0-5,,,,,0.0,54.0,54.0,54.0,,,,,1092.3267909379938,None,1.0,13.788872069002537,1092.3267909379938,None,1092.3267909379938,None,1092.3267909379938,None,1,2022_Jun_23_1319,Semantic-hierachy,2021.1.2,
205,Trial # 206,layer0-5_O5_to_O7.jpg,layer0-5/layer0-5_O5_to_O7.jpg,OO,layer0-5,,,,,0.0,55.0,55.0,55.0,,,,,1106.3810289819958,None,1.0,1.2701295709994156,1106.3810289819958,None,1106.3810289819958,None,1106.3810289819958,None,1,2022_Jun_23_1319,Semantic-hierachy,2021.1.2,
206,Trial # 207,layer0-5_O3_to_T10.jpg,layer0-5/layer0-5_O3_to_T10.jpg,OT,layer0-5,,,,,0.0,56.0,56.0,56.0,,,,,1107.9652703559989,None,1.0,2.25992411000334,1107.9652703559989,None,1107.9652703559989,None,1107.9652703559989,None,1,2022_Jun_23_1319,Semantic-hierachy,2021.1.2,
207,Trial # 208,layer0-5_O4_to_O5.jpg,layer0-5/layer0-5_O4_to_O5.jpg,OO,layer0-5,,,,,0.0,57.0,57.0,57.0,,,,,1110.382876798998,None,1.0,1.6287463920016307,1110.382876798998,None,1110.382876798998,None,1110.382876798998,None,1,2022_Jun_23_1319,Semantic-hierachy,2021.1.2,
208,Trial # 209,layer6-8_T12_to_T3.jpg,layer6-8/layer6-8_T12_to_T3.jpg,TT,layer6-8,,,,,0.0,58.0,58.0,58.0,,,,,1112.3165223779945,None,4.0,1.6208469179982783,1112.3165223779945,None,1112.3165223779945,None,1112.3165223779945,None,1,2022_Jun_23_1319,Semantic-hierachy,2021.1.2,
209,Trial # 210,layer6-8_O7_to_T9.jpg,layer6-8/layer6-8_O7_to_T9.jpg,OT,layer6-8,,,,,0.0,59.0,59.0,59.0,,,,,1114.8838397779982,None,3.0,2.509971638006391,1114.8838397779982,None,1114.8838397779982,None,1114.8838397779982,None,1,2022_Jun_23_1319,Semantic-hierachy,2021.1.2,
210,Trial # 211,layer6-8_O1_to_O11.jpg,layer6-8/layer6-8_O1_to_O11.jpg,OO,layer6-8,,,,,0.0,60.0,60.0,60.0,,,,,1118.1691146189987,None,2.0,2.5098448880016804,1118.1691146189987,None,1118.1691146189987,None,1118.1691146189987,None,1,2022_Jun_23_1319,Semantic-hierachy,2021.1.2,
211,Trial # 212,layer6-8_T2_to_T6.jpg,layer6-8/layer6-8_T2_to_T6.jpg,TT,layer6-8,,,,,0.0,61.0,61.0,61.0,,,,,1120.8695013920003,None,4.0,4.395438405997993,1120.8695013920003,None,1120.8695013920003,None,1120.8695013920003,None,1,2022_Jun_23_1319,Semantic-hierachy,2021.1.2,
212,Trial # 213,layer6-8_O10_to_O6.jpg,layer6-8/layer6-8_O10_to_O6.jpg,OO,layer6-8,,,,,0.0,62.0,62.0,62.0,,,,,1125.4869415479989,None,2.0,5.717012663997593,1125.4869415479989,None,1125.4869415479989,None,1125.4869415479989,None,1,2022_Jun_23_1319,Semantic-hierachy,2021.1.2,
213,Trial # 214,layer9-17_T5_to_T8.jpg,layer9-17/layer9-17_T5_to_T8.jpg,TT,layer9-17,,,,,0.0,63.0,63.0,63.0,,,,,1131.4555514489984,None,2.0,1.1087945440012843,1131.4555514489984,None,1131.4555514489984,None,1131.4555514489984,None,1,2022_Jun_23_1319,Semantic-hierachy,2021.1.2,
214,Trial # 215,layer9-17_O3_to_T10.jpg,layer9-17/layer9-17_O3_to_T10.jpg,OT,layer9-17,,,,,0.0,64.0,64.0,64.0,,,,,1132.8395982609943,None,2.0,1.1655903090068025,1132.8395982609943,None,1132.8395982609943,None,1132.8395982609943,None,1,2022_Jun_23_1319,Semantic-hierachy,2021.1.2,
215,Trial # 216,layer6-8_O12_to_O3.jpg,layer6-8/layer6-8_O12_to_O3.jpg,OO,layer6-8,,,,,0.0,65.0,65.0,65.0,,,,,1134.1908599739982,None,3.0,1.9213600389994097,1134.1908599739982,None,1134.1908599739982,None,1134.1908599739982,None,1,2022_Jun_23_1319,Semantic-hierachy,2021.1.2,
216,Trial # 217,layer0-5_T10_to_T2.jpg,layer0-5/layer0-5_T10_to_T2.jpg,TT,layer0-5,,,,,0.0,66.0,66.0,66.0,,,,,1136.3074214089938,None,1.0,2.6853168349989573,1136.3074214089938,None,1136.3074214089938,None,1136.3074214089938,None,1,2022_Jun_23_1319,Semantic-hierachy,2021.1.2,
217,Trial # 218,layer9-17_O10_to_O6.jpg,layer9-17/layer9-17_O10_to_O6.jpg,OO,layer9-17,,,,,0.0,67.0,67.0,67.0,,,,,1139.3257468429947,None,4.0,6.392963776001125,1139.3257468429947,None,1139.3257468429947,None,1139.3257468429947,None,1,2022_Jun_23_1319,Semantic-hierachy,2021.1.2,
218,Trial # 219,layer6-8_O6_to_O9.jpg,layer6-8/layer6-8_O6_to_O9.jpg,OO,layer6-8,,,,,0.0,68.0,68.0,68.0,,,,,1146.0765866359943,None,3.0,8.441527900002257,1146.0765866359943,None,1146.0765866359943,None,1146.0765866359943,None,1,2022_Jun_23_1319,Semantic-hierachy,2021.1.2,
219,Trial # 220,layer0-5_O7_to_T2.jpg,layer0-5/layer0-5_O7_to_T2.jpg,OT,layer0-5,,,,,0.0,69.0,69.0,69.0,,,,,1154.7459461909966,None,1.0,1.7108034989942098,1154.7459461909966,None,1154.7459461909966,None,1154.7459461909966,None,1,2022_Jun_23_1319,Semantic-hierachy,2021.1.2,
220,Trial # 221,layer9-17_T12_to_T2.jpg,layer9-17/layer9-17_T12_to_T2.jpg,TT,layer9-17,,,,,0.0,70.0,70.0,70.0,,,,,1156.6631543199985,None,2.0,10.115226326000991,1156.6631543199985,None,1156.6631543199985,None,1156.6631543199985,None,1,2022_Jun_23_1319,Semantic-hierachy,2021.1.2,
221,Trial # 222,layer9-17_O8_to_T11.jpg,layer9-17/layer9-17_O8_to_T11.jpg,OT,layer9-17,,,,,0.0,71.0,71.0,71.0,,,,,1167.1164749159943,None,4.0,2.7269867140057613,1167.1164749159943,None,1167.1164749159943,None,1167.1164749159943,None,1,2022_Jun_23_1319,Semantic-hierachy,2021.1.2,
222,Trial # 223,layer6-8_O3_to_T9.jpg,layer6-8/layer6-8_O3_to_T9.jpg,OT,layer6-8,,,,,0.0,72.0,72.0,72.0,,,,,1170.1838938039946,None,3.0,2.280804674002866,1170.1838938039946,None,1170.1838938039946,None,1170.1838938039946,None,1,2022_Jun_23_1319,Semantic-hierachy,2021.1.2,
223,Trial # 224,layer0-5_O6_to_O9.jpg,layer0-5/layer0-5_O6_to_O9.jpg,OO,layer0-5,,,,,0.0,73.0,73.0,73.0,,,,,1173.5196391969948,None,1.0,1.5129377400007795,1173.5196391969948,None,1173.5196391969948,None,1173.5196391969948,None,1,2022_Jun_23_1319,Semantic-hierachy,2021.1.2,
224,Trial # 225,layer0-5_O12_to_T1.jpg,layer0-5/layer0-5_O12_to_T1.jpg,OT,layer0-5,,,,,0.0,74.0,74.0,74.0,,,,,1175.2855383989954,None,1.0,2.204101579001872,1175.2855383989954,None,1175.2855383989954,None,1175.2855383989954,None,1,2022_Jun_23_1319,Semantic-hierachy,2021.1.2,
225,Trial # 226,layer9-17_O2_to_T8.jpg,layer9-17/layer9-17_O2_to_T8.jpg,OT,layer9-17,,,,,0.0,75.0,75.0,75.0,,,,,1177.7544836989982,None,2.0,2.4696455160010373,1177.7544836989982,None,1177.7544836989982,None,1177.7544836989982,None,1,2022_Jun_23_1319,Semantic-hierachy,2021.1.2,
226,Trial # 227,layer0-5_T4_to_T8.jpg,layer0-5/layer0-5_T4_to_T8.jpg,TT,layer0-5,,,,,0.0,76.0,76.0,76.0,,,,,1180.4205535349977,None,1.0,1.5922945369966328,1180.4205535349977,None,1180.4205535349977,None,1180.4205535349977,None,1,2022_Jun_23_1319,Semantic-hierachy,2021.1.2,
227,Trial # 228,layer9-17_O2_to_T1.jpg,layer9-17/layer9-17_O2_to_T1.jpg,OT,layer9-17,,,,,0.0,77.0,77.0,77.0,,,,,1182.5373449629988,None,4.0,13.718486336998469,1182.5373449629988,None,1182.5373449629988,None,1182.5373449629988,None,1,2022_Jun_23_1319,Semantic-hierachy,2021.1.2,
228,Trial # 229,layer0-5_O11_to_O7.jpg,layer0-5/layer0-5_O11_to_O7.jpg,OO,layer0-5,,,,,0.0,78.0,78.0,78.0,,,,,1197.0926083489976,None,1.0,2.2120850469946163,1197.0926083489976,None,1197.0926083489976,None,1197.0926083489976,None,1,2022_Jun_23_1319,Semantic-hierachy,2021.1.2,
229,Trial # 230,layer6-8_T2_to_T8.jpg,layer6-8/layer6-8_T2_to_T8.jpg,TT,layer6-8,,,,,0.0,79.0,79.0,79.0,,,,,1199.4610437459996,None,4.0,2.826898332001292,1199.4610437459996,None,1199.4610437459996,None,1199.4610437459996,None,1,2022_Jun_23_1319,Semantic-hierachy,2021.1.2,
230,Trial # 231,layer9-17_T4_to_T8.jpg,layer9-17/layer9-17_T4_to_T8.jpg,TT,layer9-17,,,,,0.0,80.0,80.0,80.0,,,,,1202.5279032379983,None,2.0,2.0623321180028142,1202.5279032379983,None,1202.5279032379983,None,1202.5279032379983,None,1,2022_Jun_23_1319,Semantic-hierachy,2021.1.2,
231,Trial # 232,layer9-17_T11_to_T3.jpg,layer9-17/layer9-17_T11_to_T3.jpg,TT,layer9-17,,,,,0.0,81.0,81.0,81.0,,,,,1204.8283907500008,None,2.0,1.431719296000665,1204.8283907500008,None,1204.8283907500008,None,1204.8283907500008,None,1,2022_Jun_23_1319,Semantic-hierachy,2021.1.2,
232,Trial # 233,layer0-5_O3_to_T9.jpg,layer0-5/layer0-5_O3_to_T9.jpg,OT,layer0-5,,,,,0.0,82.0,82.0,82.0,,,,,1206.5619914749986,None,1.0,1.7806144610003685,1206.5619914749986,None,1206.5619914749986,None,1206.5619914749986,None,1,2022_Jun_23_1319,Semantic-hierachy,2021.1.2,
233,Trial # 234,layer9-17_T7_to_T8.jpg,layer9-17/layer9-17_T7_to_T8.jpg,TT,layer9-17,,,,,0.0,83.0,83.0,83.0,,,,,1208.4965552259964,None,4.0,2.38070720199903,1208.4965552259964,None,1208.4965552259964,None,1208.4965552259964,None,1,2022_Jun_23_1319,Semantic-hierachy,2021.1.2,
234,Trial # 235,layer9-17_O3_to_O4.jpg,layer9-17/layer9-17_O3_to_O4.jpg,OO,layer9-17,,,,,0.0,84.0,84.0,84.0,,,,,1211.1298505749946,None,2.0,1.524972692997835,1211.1298505749946,None,1211.1298505749946,None,1211.1298505749946,None,1,2022_Jun_23_1319,Semantic-hierachy,2021.1.2,
235,Trial # 236,layer6-8_O8_to_T6.jpg,layer6-8/layer6-8_O8_to_T6.jpg,OT,layer6-8,,,,,0.0,85.0,85.0,85.0,,,,,1212.8654731209972,None,4.0,1.608664145001967,1212.8654731209972,None,1212.8654731209972,None,1212.8654731209972,None,1,2022_Jun_23_1319,Semantic-hierachy,2021.1.2,
236,Trial # 237,layer9-17_T6_to_T7.jpg,layer9-17/layer9-17_T6_to_T7.jpg,TT,layer9-17,,,,,0.0,86.0,86.0,86.0,,,,,1214.631395737997,None,2.0,1.2472988950030413,1214.631395737997,None,1214.631395737997,None,1214.631395737997,None,1,2022_Jun_23_1319,Semantic-hierachy,2021.1.2,
237,Trial # 238,layer0-5_T2_to_T9.jpg,layer0-5/layer0-5_T2_to_T9.jpg,TT,layer0-5,,,,,0.0,87.0,87.0,87.0,,,,,1216.0821042559985,None,1.0,1.4472340909997,1216.0821042559985,None,1216.0821042559985,None,1216.0821042559985,None,1,2022_Jun_23_1319,Semantic-hierachy,2021.1.2,
238,Trial # 239,layer0-5_O2_to_O5.jpg,layer0-5/layer0-5_O2_to_O5.jpg,OO,layer0-5,,,,,0.0,88.0,88.0,88.0,,,,,1217.6836934759997,None,1.0,1.546292204002384,1217.6836934759997,None,1217.6836934759997,None,1217.6836934759997,None,1,2022_Jun_23_1319,Semantic-hierachy,2021.1.2,
239,Trial # 240,layer6-8_O1_to_O5.jpg,layer6-8/layer6-8_O1_to_O5.jpg,OO,layer6-8,,,,,0.0,89.0,89.0,89.0,,,,,1219.399273981995,None,4.0,1.9819871569998213,1219.399273981995,None,1219.399273981995,None,1219.399273981995,None,1,2022_Jun_23_1319,Semantic-hierachy,2021.1.2,
240,Trial # 241,layer9-17_O3_to_O7.jpg,layer9-17/layer9-17_O3_to_O7.jpg,OO,layer9-17,,,,,0.0,90.0,90.0,90.0,,,,,1222.3166411299972,None,2.0,1.5327943520023837,1222.3166411299972,None,1222.3166411299972,None,1222.3166411299972,None,1,2022_Jun_23_1319,Semantic-hierachy,2021.1.2,
241,Trial # 242,layer6-8_O11_to_O8.jpg,layer6-8/layer6-8_O11_to_O8.jpg,OO,layer6-8,,,,,0.0,91.0,91.0,91.0,,,,,1224.002028636998,None,4.0,4.038639977996354,1224.002028636998,None,1224.002028636998,None,1224.002028636998,None,1,2022_Jun_23_1319,Semantic-hierachy,2021.1.2,
242,Trial # 243,layer9-17_T1_to_T12.jpg,layer9-17/layer9-17_T1_to_T12.jpg,TT,layer9-17,,,,,0.0,92.0,92.0,92.0,,,,,1228.2528895699943,None,2.0,3.981573401004425,1228.2528895699943,None,1228.2528895699943,None,1228.2528895699943,None,1,2022_Jun_23_1319,Semantic-hierachy,2021.1.2,
243,Trial # 244,layer9-17_O6_to_O8.jpg,layer9-17/layer9-17_O6_to_O8.jpg,OO,layer9-17,,,,,0.0,93.0,93.0,93.0,,,,,1232.7212417939954,None,4.0,5.459779270000581,1232.7212417939954,None,1232.7212417939954,None,1232.7212417939954,None,1,2022_Jun_23_1319,Semantic-hierachy,2021.1.2,
244,Trial # 245,layer6-8_O4_to_T11.jpg,layer6-8/layer6-8_O4_to_T11.jpg,OT,layer6-8,,,,,0.0,94.0,94.0,94.0,,,,,1238.3399321939942,None,3.0,2.1984345149976434,1238.3399321939942,None,1238.3399321939942,None,1238.3399321939942,None,1,2022_Jun_23_1319,Semantic-hierachy,2021.1.2,
245,Trial # 246,layer9-17_T10_to_T3.jpg,layer9-17/layer9-17_T10_to_T3.jpg,TT,layer9-17,,,,,0.0,95.0,95.0,95.0,,,,,1240.8726981250002,None,2.0,1.735285312999622,1240.8726981250002,None,1240.8726981250002,None,1240.8726981250002,None,1,2022_Jun_23_1319,Semantic-hierachy,2021.1.2,
246,Trial # 247,layer0-5_O10_to_O8.jpg,layer0-5/layer0-5_O10_to_O8.jpg,OO,layer0-5,,,,,0.0,96.0,96.0,96.0,,,,,1243.2904038639972,None,1.0,2.747299804002978,1243.2904038639972,None,1243.2904038639972,None,1243.2904038639972,None,1,2022_Jun_23_1319,Semantic-hierachy,2021.1.2,
247,Trial # 248,layer6-8_O3_to_T12.jpg,layer6-8/layer6-8_O3_to_T12.jpg,OT,layer6-8,,,,,0.0,97.0,97.0,97.0,,,,,1246.2408801489946,None,3.0,2.949684729996079,1246.2408801489946,None,1246.2408801489946,None,1246.2408801489946,None,1,2022_Jun_23_1319,Semantic-hierachy,2021.1.2,
248,Trial # 249,layer0-5_O12_to_T9.jpg,layer0-5/layer0-5_O12_to_T9.jpg,OT,layer0-5,,,,,0.0,98.0,98.0,98.0,,,,,1250.5756742890007,None,1.0,1.61289780199877,1250.5756742890007,None,1250.5756742890007,None,1250.5756742890007,None,1,2022_Jun_23_1319,Semantic-hierachy,2021.1.2,
249,Trial # 250,layer9-17_T1_to_T9.jpg,layer9-17/layer9-17_T1_to_T9.jpg,TT,layer9-17,,,,,0.0,99.0,99.0,99.0,,,,,1252.8942029239988,None,1.0,1.39798771700589,1252.8942029239988,None,1252.8942029239988,None,1252.8942029239988,None,1,2022_Jun_23_1319,Semantic-hierachy,2021.1.2,
250,Trial # 251,layer9-17_T11_to_T8.jpg,layer9-17/layer9-17_T11_to_T8.jpg,TT,layer9-17,,,,,0.0,100.0,100.0,100.0,,,,,1254.5602201989968,None,2.0,1.67921263500466,1254.5602201989968,None,1254.5602201989968,None,1254.5602201989968,None,1,2022_Jun_23_1319,Semantic-hierachy,2021.1.2,
251,Trial # 252,layer9-17_T11_to_T5.jpg,layer9-17/layer9-17_T11_to_T5.jpg,TT,layer9-17,,,,,0.0,101.0,101.0,101.0,,,,,1256.444091432997,None,4.0,2.101326248004625,1256.444091432997,None,1256.444091432997,None,1256.444091432997,None,1,2022_Jun_23_1319,Semantic-hierachy,2021.1.2,
252,Trial # 253,layer6-8_T10_to_T12.jpg,layer6-8/layer6-8_T10_to_T12.jpg,TT,layer6-8,,,,,0.0,102.0,102.0,102.0,,,,,1259.895181505999,None,4.0,3.9281455900054425,1259.895181505999,None,1259.895181505999,None,1259.895181505999,None,1,2022_Jun_23_1319,Semantic-hierachy,2021.1.2,
253,Trial # 254,layer9-17_O5_to_T1.jpg,layer9-17/layer9-17_O5_to_T1.jpg,OT,layer9-17,,,,,0.0,103.0,103.0,103.0,,,,,1264.1976813199944,None,2.0,2.02618845699908,1264.1976813199944,None,1264.1976813199944,None,1264.1976813199944,None,1,2022_Jun_23_1319,Semantic-hierachy,2021.1.2,
254,Trial # 255,layer6-8_T2_to_T3.jpg,layer6-8/layer6-8_T2_to_T3.jpg,TT,layer6-8,,,,,0.0,104.0,104.0,104.0,,,,,1266.413827378994,None,4.0,2.0290887630035286,1266.413827378994,None,1266.413827378994,None,1266.413827378994,None,1,2022_Jun_23_1319,Semantic-hierachy,2021.1.2,
255,Trial # 256,layer6-8_O2_to_T6.jpg,layer6-8/layer6-8_O2_to_T6.jpg,OT,layer6-8,,,,,0.0,105.0,105.0,105.0,,,,,1272.3166309980006,None,4.0,1.9542816699977263,1272.3166309980006,None,1272.3166309980006,None,1272.3166309980006,None,1,2022_Jun_23_1319,Semantic-hierachy,2021.1.2,
256,Trial # 257,layer6-8_T11_to_T9.jpg,layer6-8/layer6-8_T11_to_T9.jpg,TT,layer6-8,,,,,0.0,106.0,106.0,106.0,,,,,1274.3995951999968,None,4.0,7.683666577999247,1274.3995951999968,None,1274.3995951999968,None,1274.3995951999968,None,1,2022_Jun_23_1319,Semantic-hierachy,2021.1.2,
257,Trial # 258,layer6-8_O5_to_T9.jpg,layer6-8/layer6-8_O5_to_T9.jpg,OT,layer6-8,,,,,0.0,107.0,107.0,107.0,,,,,1282.3190621979957,None,3.0,1.7997590619997936,1282.3190621979957,None,1282.3190621979957,None,1282.3190621979957,None,1,2022_Jun_23_1319,Semantic-hierachy,2021.1.2,
258,Trial # 259,layer6-8_O9_to_T8.jpg,layer6-8/layer6-8_O9_to_T8.jpg,OT,layer6-8,,,,,0.0,108.0,108.0,108.0,,,,,1284.3041611730005,None,3.0,1.8678008999995648,1284.3041611730005,None,1284.3041611730005,None,1284.3041611730005,None,1,2022_Jun_23_1319,Semantic-hierachy,2021.1.2,
259,Trial # 260,layer6-8_T1_to_T5.jpg,layer6-8/layer6-8_T1_to_T5.jpg,TT,layer6-8,,,,,0.0,109.0,109.0,109.0,,,,,1286.3535737040002,None,3.0,3.6413261589987087,1286.3535737040002,None,1286.3535737040002,None,1286.3535737040002,None,1,2022_Jun_23_1319,Semantic-hierachy,2021.1.2,
260,Trial # 261,layer0-5_O11_to_T2.jpg,layer0-5/layer0-5_O11_to_T2.jpg,OT,layer0-5,,,,,0.0,110.0,110.0,110.0,,,,,1291.2048132359996,None,1.0,6.114776271002484,1291.2048132359996,None,1291.2048132359996,None,1291.2048132359996,None,1,2022_Jun_23_1319,Semantic-hierachy,2021.1.2,
261,Trial # 262,layer0-5_O7_to_T4.jpg,layer0-5/layer0-5_O7_to_T4.jpg,OT,layer0-5,,,,,0.0,111.0,111.0,111.0,,,,,1298.1247291699983,None,1.0,1.5546809990046313,1298.1247291699983,None,1298.1247291699983,None,1298.1247291699983,None,1,2022_Jun_23_1319,Semantic-hierachy,2021.1.2,
262,Trial # 263,layer6-8_T12_to_T8.jpg,layer6-8/layer6-8_T12_to_T8.jpg,TT,layer6-8,,,,,0.0,112.0,112.0,112.0,,,,,1299.8576324780006,None,2.0,3.425856814996223,1299.8576324780006,None,1299.8576324780006,None,1299.8576324780006,None,1,2022_Jun_23_1319,Semantic-hierachy,2021.1.2,
263,Trial # 264,layer6-8_O4_to_O9.jpg,layer6-8/layer6-8_O4_to_O9.jpg,OO,layer6-8,,,,,0.0,113.0,113.0,113.0,,,,,1303.459822263998,None,4.0,2.5646448050029,1303.459822263998,None,1303.459822263998,None,1303.459822263998,None,1,2022_Jun_23_1319,Semantic-hierachy,2021.1.2,
264,Trial # 265,layer0-5_T1_to_T5.jpg,layer0-5/layer0-5_T1_to_T5.jpg,TT,layer0-5,,,,,0.0,114.0,114.0,114.0,,,,,1306.2431749139942,None,1.0,2.229491017998953,1306.2431749139942,None,1306.2431749139942,None,1306.2431749139942,None,1,2022_Jun_23_1319,Semantic-hierachy,2021.1.2,
265,Trial # 266,layer0-5_O12_to_O7.jpg,layer0-5/layer0-5_O12_to_O7.jpg,OO,layer0-5,,,,,0.0,115.0,115.0,115.0,,,,,1308.7782158659977,None,1.0,3.2825953510036925,1308.7782158659977,None,1308.7782158659977,None,1308.7782158659977,None,1,2022_Jun_23_1319,Semantic-hierachy,2021.1.2,
266,Trial # 267,layer6-8_T8_to_T9.jpg,layer6-8/layer6-8_T8_to_T9.jpg,TT,layer6-8,,,,,0.0,116.0,116.0,116.0,,,,,1312.2781342529995,None,4.0,4.442109151001205,1312.2781342529995,None,1312.2781342529995,None,1312.2781342529995,None,1,2022_Jun_23_1319,Semantic-hierachy,2021.1.2,
267,Trial # 268,layer9-17_O11_to_T10.jpg,layer9-17/layer9-17_O11_to_T10.jpg,OT,layer9-17,,,,,0.0,117.0,117.0,117.0,,,,,1317.0296671239994,None,2.0,3.898346020003373,1317.0296671239994,None,1317.0296671239994,None,1317.0296671239994,None,1,2022_Jun_23_1319,Semantic-hierachy,2021.1.2,
268,Trial # 269,layer0-5_O8_to_T9.jpg,layer0-5/layer0-5_O8_to_T9.jpg,OT,layer0-5,,,,,0.0,118.0,118.0,118.0,,,,,1321.6477695959984,None,1.0,2.480692901001021,1321.6477695959984,None,1321.6477695959984,None,1321.6477695959984,None,1,2022_Jun_23_1319,Semantic-hierachy,2021.1.2,
269,Trial # 270,layer9-17_O10_to_O11.jpg,layer9-17/layer9-17_O10_to_O11.jpg,OO,layer9-17,,,,,0.0,119.0,119.0,119.0,,,,,1324.5817860909956,None,4.0,4.352590763002809,1324.5817860909956,None,1324.5817860909956,None,1324.5817860909956,None,1,2022_Jun_23_1319,Semantic-hierachy,2021.1.2,
270,Trial # 271,layer0-5_T1_to_T9.jpg,layer0-5/layer0-5_T1_to_T9.jpg,TT,layer0-5,,,,,0.0,120.0,120.0,120.0,,,,,1329.4673083550006,None,1.0,1.4814099240029464,1329.4673083550006,None,1329.4673083550006,None,1329.4673083550006,None,1,2022_Jun_23_1319,Semantic-hierachy,2021.1.2,
271,Trial # 272,layer6-8_T11_to_T8.jpg,layer6-8/layer6-8_T11_to_T8.jpg,TT,layer6-8,,,,,0.0,121.0,121.0,121.0,,,,,1331.7677717709958,None,4.0,3.175916244996188,1331.7677717709958,None,1331.7677717709958,None,1331.7677717709958,None,1,2022_Jun_23_1319,Semantic-hierachy,2021.1.2,
272,Trial # 273,layer9-17_O10_to_O12.jpg,layer9-17/layer9-17_O10_to_O12.jpg,OO,layer9-17,,,,,0.0,122.0,122.0,122.0,,,,,1335.7518833349968,None,4.0,7.3439690219966,1335.7518833349968,None,1335.7518833349968,None,1335.7518833349968,None,1,2022_Jun_23_1319,Semantic-hierachy,2021.1.2,
273,Trial # 274,layer0-5_T12_to_T6.jpg,layer0-5/layer0-5_T12_to_T6.jpg,TT,layer0-5,,,,,0.0,123.0,123.0,123.0,,,,,1346.221948775994,None,1.0,2.8832084620007663,1346.221948775994,None,1346.221948775994,None,1346.221948775994,None,1,2022_Jun_23_1319,Semantic-hierachy,2021.1.2,
274,Trial # 275,layer9-17_O11_to_O5.jpg,layer9-17/layer9-17_O11_to_O5.jpg,OO,layer9-17,,,,,0.0,124.0,124.0,124.0,,,,,1349.3406124119938,None,4.0,7.083037759002764,1349.3406124119938,None,1349.3406124119938,None,1349.3406124119938,None,1,2022_Jun_23_1319,Semantic-hierachy,2021.1.2,
275,Trial # 276,layer9-17_O1_to_O4.jpg,layer9-17/layer9-17_O1_to_O4.jpg,OO,layer9-17,,,,,0.0,125.0,125.0,125.0,,,,,1356.7590099949955,None,4.0,5.160602344003564,1356.7590099949955,None,1356.7590099949955,None,1356.7590099949955,None,1,2022_Jun_23_1319,Semantic-hierachy,2021.1.2,
276,Trial # 277,layer6-8_O11_to_O3.jpg,layer6-8/layer6-8_O11_to_O3.jpg,OO,layer6-8,,,,,0.0,126.0,126.0,126.0,,,,,1362.4261494149978,None,3.0,4.600799695006572,1362.4261494149978,None,1362.4261494149978,None,1362.4261494149978,None,1,2022_Jun_23_1319,Semantic-hierachy,2021.1.2,
277,Trial # 278,layer6-8_T10_to_T11.jpg,layer6-8/layer6-8_T10_to_T11.jpg,TT,layer6-8,,,,,0.0,127.0,127.0,127.0,,,,,1367.244862597996,None,3.0,2.833051219997288,1367.244862597996,None,1367.244862597996,None,1367.244862597996,None,1,2022_Jun_23_1319,Semantic-hierachy,2021.1.2,
278,Trial # 279,layer0-5_O7_to_T3.jpg,layer0-5/layer0-5_O7_to_T3.jpg,OT,layer0-5,,,,,0.0,128.0,128.0,128.0,,,,,1370.4966978899974,None,1.0,1.4660989500043795,1370.4966978899974,None,1370.4966978899974,None,1370.4966978899974,None,1,2022_Jun_23_1319,Semantic-hierachy,2021.1.2,
279,Trial # 280,layer9-17_T1_to_T10.jpg,layer9-17/layer9-17_T1_to_T10.jpg,TT,layer9-17,,,,,0.0,129.0,129.0,129.0,,,,,1372.7144189249957,None,2.0,2.143562187993666,1372.7144189249957,None,1372.7144189249957,None,1372.7144189249957,None,1,2022_Jun_23_1319,Semantic-hierachy,2021.1.2,
280,Trial # 281,layer9-17_O6_to_T7.jpg,layer9-17/layer9-17_O6_to_T7.jpg,OT,layer9-17,,,,,0.0,130.0,130.0,130.0,,,,,1377.2313509319938,None,2.0,1.519444208002824,1377.2313509319938,None,1377.2313509319938,None,1377.2313509319938,None,1,2022_Jun_23_1319,Semantic-hierachy,2021.1.2,
281,Trial # 282,layer0-5_O10_to_O7.jpg,layer0-5/layer0-5_O10_to_O7.jpg,OO,layer0-5,,,,,0.0,131.0,131.0,131.0,,,,,1378.933080996998,None,1.0,1.449846380004601,1378.933080996998,None,1378.933080996998,None,1378.933080996998,None,1,2022_Jun_23_1319,Semantic-hierachy,2021.1.2,
282,Trial # 283,layer0-5_O1_to_O11.jpg,layer0-5/layer0-5_O1_to_O11.jpg,OO,layer0-5,,,,,0.0,132.0,132.0,132.0,,,,,1382.4830169419947,None,1.0,1.4627408189990092,1382.4830169419947,None,1382.4830169419947,None,1382.4830169419947,None,1,2022_Jun_23_1319,Semantic-hierachy,2021.1.2,
283,Trial # 284,layer6-8_O7_to_O8.jpg,layer6-8/layer6-8_O7_to_O8.jpg,OO,layer6-8,,,,,0.0,133.0,133.0,133.0,,,,,1384.1513819589964,None,2.0,2.140421201002028,1384.1513819589964,None,1384.1513819589964,None,1384.1513819589964,None,1,2022_Jun_23_1319,Semantic-hierachy,2021.1.2,
284,Trial # 285,layer0-5_T7_to_T8.jpg,layer0-5/layer0-5_T7_to_T8.jpg,TT,layer0-5,,,,,0.0,134.0,134.0,134.0,,,,,1386.4342092849984,None,1.0,2.2496291319985176,1386.4342092849984,None,1386.4342092849984,None,1386.4342092849984,None,1,2022_Jun_23_1319,Semantic-hierachy,2021.1.2,
285,Trial # 286,layer9-17_T11_to_T6.jpg,layer9-17/layer9-17_T11_to_T6.jpg,TT,layer9-17,,,,,0.0,135.0,135.0,135.0,,,,,1389.4354911150003,None,4.0,3.697298162995139,1389.4354911150003,None,1389.4354911150003,None,1389.4354911150003,None,1,2022_Jun_23_1319,Semantic-hierachy,2021.1.2,
286,Trial # 287,layer0-5_T2_to_T7.jpg,layer0-5/layer0-5_T2_to_T7.jpg,TT,layer0-5,,,,,0.0,136.0,136.0,136.0,,,,,1394.520448408999,None,1.0,1.898360295999737,1394.520448408999,None,1394.520448408999,None,1394.520448408999,None,1,2022_Jun_23_1319,Semantic-hierachy,2021.1.2,
287,Trial # 288,layer9-17_O10_to_O2.jpg,layer9-17/layer9-17_O10_to_O2.jpg,OO,layer9-17,,,,,0.0,137.0,137.0,137.0,,,,,1396.8208997929978,None,2.0,1.5795925060010632,1396.8208997929978,None,1396.8208997929978,None,1396.8208997929978,None,1,2022_Jun_23_1319,Semantic-hierachy,2021.1.2,
288,Trial # 289,layer0-5_T10_to_T9.jpg,layer0-5/layer0-5_T10_to_T9.jpg,TT,layer0-5,,,,,0.0,138.0,138.0,138.0,,,,,1398.9060687279998,None,1.0,2.8348354720001225,1398.9060687279998,None,1398.9060687279998,None,1398.9060687279998,None,1,2022_Jun_23_1319,Semantic-hierachy,2021.1.2,
289,Trial # 290,layer6-8_O11_to_O5.jpg,layer6-8/layer6-8_O11_to_O5.jpg,OO,layer6-8,,,,,0.0,139.0,139.0,139.0,,,,,1402.2393080679976,None,2.0,2.1506335720041534,1402.2393080679976,None,1402.2393080679976,None,1402.2393080679976,None,1,2022_Jun_23_1319,Semantic-hierachy,2021.1.2,
290,Trial # 291,layer6-8_O3_to_O7.jpg,layer6-8/layer6-8_O3_to_O7.jpg,OO,layer6-8,,,,,0.0,140.0,140.0,140.0,,,,,1406.407271856995,None,3.0,2.0283225680032047,1406.407271856995,None,1406.407271856995,None,1406.407271856995,None,1,2022_Jun_23_1319,Semantic-hierachy,2021.1.2,
291,Trial # 292,layer9-17_O12_to_T11.jpg,layer9-17/layer9-17_O12_to_T11.jpg,OT,layer9-17,,,,,0.0,141.0,141.0,141.0,,,,,1411.758847469995,None,2.0,5.09039786500216,1411.758847469995,None,1411.758847469995,None,1411.758847469995,None,1,2022_Jun_23_1319,Semantic-hierachy,2021.1.2,
292,Trial # 293,layer9-17_O2_to_O4.jpg,layer9-17/layer9-17_O2_to_O4.jpg,OO,layer9-17,,,,,0.0,142.0,142.0,142.0,,,,,1420.128334559995,None,4.0,4.3954458349981,1420.128334559995,None,1420.128334559995,None,1420.128334559995,None,1,2022_Jun_23_1319,Semantic-hierachy,2021.1.2,
293,Trial # 294,layer6-8_O1_to_T12.jpg,layer6-8/layer6-8_O1_to_T12.jpg,OT,layer6-8,,,,,0.0,143.0,143.0,143.0,,,,,1424.7298751479975,None,3.0,2.147970666002948,1424.7298751479975,None,1424.7298751479975,None,1424.7298751479975,None,1,2022_Jun_23_1319,Semantic-hierachy,2021.1.2,
294,Trial # 295,layer9-17_O11_to_T5.jpg,layer9-17/layer9-17_O11_to_T5.jpg,OT,layer9-17,,,,,0.0,144.0,144.0,144.0,,,,,1427.3299340789963,None,4.0,2.3487682869963464,1427.3299340789963,None,1427.3299340789963,None,1427.3299340789963,None,1,2022_Jun_23_1319,Semantic-hierachy,2021.1.2,
295,Trial # 296,layer0-5_O10_to_O9.jpg,layer0-5/layer0-5_O10_to_O9.jpg,OO,layer0-5,,,,,0.0,145.0,145.0,145.0,,,,,1429.830945896996,None,1.0,1.783513087000756,1429.830945896996,None,1429.830945896996,None,1429.830945896996,None,1,2022_Jun_23_1319,Semantic-hierachy,2021.1.2,
296,Trial # 297,layer6-8_O12_to_T10.jpg,layer6-8/layer6-8_O12_to_T10.jpg,OT,layer6-8,,,,,0.0,146.0,146.0,146.0,,,,,1431.8482787579997,None,4.0,7.784287520000362,1431.8482787579997,None,1431.8482787579997,None,1431.8482787579997,None,1,2022_Jun_23_1319,Semantic-hierachy,2021.1.2,
297,Trial # 298,layer6-8_O3_to_T2.jpg,layer6-8/layer6-8_O3_to_T2.jpg,OT,layer6-8,,,,,0.0,147.0,147.0,147.0,,,,,1439.934916182996,None,2.0,2.0840651059988886,1439.934916182996,None,1439.934916182996,None,1439.934916182996,None,1,2022_Jun_23_1319,Semantic-hierachy,2021.1.2,
298,Trial # 299,layer9-17_O2_to_T5.jpg,layer9-17/layer9-17_O2_to_T5.jpg,OT,layer9-17,,,,,0.0,148.0,148.0,148.0,,,,,1443.1864739869998,None,4.0,2.27932482399774,1443.1864739869998,None,1443.1864739869998,None,1443.1864739869998,None,1,2022_Jun_23_1319,Semantic-hierachy,2021.1.2,
299,Trial # 300,layer0-5_O3_to_T7.jpg,layer0-5/layer0-5_O3_to_T7.jpg,OT,layer0-5,,,,,0.0,149.0,149.0,149.0,,,,,1445.8194034889966,None,1.0,1.276948643004289,1445.8194034889966,None,1445.8194034889966,None,1445.8194034889966,None,1,2022_Jun_23_1319,Semantic-hierachy,2021.1.2,
300,Trial # 301,layer9-17_O11_to_O6.jpg,layer9-17/layer9-17_O11_to_O6.jpg,OO,layer9-17,,,,,,,,,0.0,0.0,0.0,0.0,1449.720609306998,None,4.0,9.514145460998408,1449.720609306998,None,1449.720609306998,None,1449.720609306998,None,1,2022_Jun_23_1319,Semantic-hierachy,2021.1.2,
301,Trial # 302,layer0-5_O3_to_O7.jpg,layer0-5/layer0-5_O3_to_O7.jpg,OO,layer0-5,,,,,,,,,0.0,1.0,1.0,1.0,1459.8079263289983,None,1.0,1.709666331000335,1459.8079263289983,None,1459.8079263289983,None,1459.8079263289983,None,1,2022_Jun_23_1319,Semantic-hierachy,2021.1.2,
302,Trial # 303,layer6-8_O11_to_T3.jpg,layer6-8/layer6-8_O11_to_T3.jpg,OT,layer6-8,,,,,,,,,0.0,2.0,2.0,2.0,1461.6741483299993,None,3.0,3.128878290001012,1461.6741483299993,None,1461.6741483299993,None,1461.6741483299993,None,1,2022_Jun_23_1319,Semantic-hierachy,2021.1.2,
303,Trial # 304,layer6-8_O2_to_T7.jpg,layer6-8/layer6-8_O2_to_T7.jpg,OT,layer6-8,,,,,,,,,0.0,3.0,3.0,3.0,1465.008475867995,None,3.0,2.0836941009984,1465.008475867995,None,1465.008475867995,None,1465.008475867995,None,1,2022_Jun_23_1319,Semantic-hierachy,2021.1.2,
304,Trial # 305,layer0-5_T1_to_T7.jpg,layer0-5/layer0-5_T1_to_T7.jpg,TT,layer0-5,,,,,,,,,0.0,4.0,4.0,4.0,1467.359051307998,None,1.0,1.6971496679980191,1467.359051307998,None,1467.359051307998,None,1467.359051307998,None,1,2022_Jun_23_1319,Semantic-hierachy,2021.1.2,
305,Trial # 306,layer6-8_O7_to_T11.jpg,layer6-8/layer6-8_O7_to_T11.jpg,OT,layer6-8,,,,,,,,,0.0,5.0,5.0,5.0,1469.2608358699945,None,1.0,1.2074021200023708,1469.2608358699945,None,1469.2608358699945,None,1469.2608358699945,None,1,2022_Jun_23_1319,Semantic-hierachy,2021.1.2,
306,Trial # 307,layer9-17_O5_to_T5.jpg,layer9-17/layer9-17_O5_to_T5.jpg,OT,layer9-17,,,,,,,,,0.0,6.0,6.0,6.0,1470.6270945549986,None,2.0,1.910644861003675,1470.6270945549986,None,1470.6270945549986,None,1470.6270945549986,None,1,2022_Jun_23_1319,Semantic-hierachy,2021.1.2,
307,Trial # 308,layer9-17_T12_to_T5.jpg,layer9-17/layer9-17_T12_to_T5.jpg,TT,layer9-17,,,,,,,,,0.0,7.0,7.0,7.0,1472.9778517239974,None,2.0,1.701434354996309,1472.9778517239974,None,1472.9778517239974,None,1472.9778517239974,None,1,2022_Jun_23_1319,Semantic-hierachy,2021.1.2,
308,Trial # 309,layer6-8_O11_to_O2.jpg,layer6-8/layer6-8_O11_to_O2.jpg,OO,layer6-8,,,,,,,,,0.0,8.0,8.0,8.0,1474.8615749460005,None,2.0,3.130381658993429,1474.8615749460005,None,1474.8615749460005,None,1474.8615749460005,None,1,2022_Jun_23_1319,Semantic-hierachy,2021.1.2,
309,Trial # 310,layer6-8_O10_to_O7.jpg,layer6-8/layer6-8_O10_to_O7.jpg,OO,layer6-8,,,,,,,,,0.0,9.0,9.0,9.0,1478.3139828939966,None,2.0,4.952503799999249,1478.3139828939966,None,1478.3139828939966,None,1478.3139828939966,None,1,2022_Jun_23_1319,Semantic-hierachy,2021.1.2,
310,Trial # 311,layer9-17_O10_to_T11.jpg,layer9-17/layer9-17_O10_to_T11.jpg,OT,layer9-17,,,,,,,,,0.0,10.0,10.0,10.0,1483.4487913659975,None,4.0,1.589735421999649,1483.4487913659975,None,1483.4487913659975,None,1483.4487913659975,None,1,2022_Jun_23_1319,Semantic-hierachy,2021.1.2,
311,Trial # 312,layer6-8_O11_to_O12.jpg,layer6-8/layer6-8_O11_to_O12.jpg,OO,layer6-8,,,,,,,,,0.0,11.0,11.0,11.0,1485.198003516998,None,4.0,6.01868796099734,1485.198003516998,None,1485.198003516998,None,1485.198003516998,None,1,2022_Jun_23_1319,Semantic-hierachy,2021.1.2,
312,Trial # 313,layer9-17_O9_to_T8.jpg,layer9-17/layer9-17_O9_to_T8.jpg,OT,layer9-17,,,,,,,,,0.0,12.0,12.0,12.0,1491.6667171309964,None,4.0,1.909082270998624,1491.6667171309964,None,1491.6667171309964,None,1491.6667171309964,None,1,2022_Jun_23_1319,Semantic-hierachy,2021.1.2,
313,Trial # 314,layer0-5_O3_to_T2.jpg,layer0-5/layer0-5_O3_to_T2.jpg,OT,layer0-5,,,,,,,,,0.0,13.0,13.0,13.0,1493.9352730609971,None,1.0,1.6442537320035626,1493.9352730609971,None,1493.9352730609971,None,1493.9352730609971,None,1,2022_Jun_23_1319,Semantic-hierachy,2021.1.2,
314,Trial # 315,layer9-17_T1_to_T11.jpg,layer9-17/layer9-17_T1_to_T11.jpg,TT,layer9-17,,,,,,,,,0.0,14.0,14.0,14.0,1495.7348334919952,None,2.0,1.6659964909995324,1495.7348334919952,None,1495.7348334919952,None,1495.7348334919952,None,1,2022_Jun_23_1319,Semantic-hierachy,2021.1.2,
315,Trial # 316,layer6-8_T10_to_T7.jpg,layer6-8/layer6-8_T10_to_T7.jpg,TT,layer6-8,,,,,,,,,0.0,15.0,15.0,15.0,1497.5686794259964,None,4.0,3.1156266670004698,1497.5686794259964,None,1497.5686794259964,None,1497.5686794259964,None,1,2022_Jun_23_1319,Semantic-hierachy,2021.1.2,
316,Trial # 317,layer0-5_T6_to_T7.jpg,layer0-5/layer0-5_T6_to_T7.jpg,TT,layer0-5,,,,,,,,,0.0,16.0,16.0,16.0,1502.0032602889987,None,1.0,1.817421915999148,1502.0032602889987,None,1502.0032602889987,None,1502.0032602889987,None,1,2022_Jun_23_1319,Semantic-hierachy,2021.1.2,
317,Trial # 318,layer9-17_O1_to_T3.jpg,layer9-17/layer9-17_O1_to_T3.jpg,OT,layer9-17,,,,,,,,,0.0,17.0,17.0,17.0,1504.0542449579953,None,2.0,2.308012791996589,1504.0542449579953,None,1504.0542449579953,None,1504.0542449579953,None,1,2022_Jun_23_1319,Semantic-hierachy,2021.1.2,
318,Trial # 319,layer0-5_O2_to_T5.jpg,layer0-5/layer0-5_O2_to_T5.jpg,OT,layer0-5,,,,,,,,,0.0,18.0,18.0,18.0,1506.5557251859937,None,1.0,1.4687048889973084,1506.5557251859937,None,1506.5557251859937,None,1506.5557251859937,None,1,2022_Jun_23_1319,Semantic-hierachy,2021.1.2,
319,Trial # 320,layer6-8_O7_to_T10.jpg,layer6-8/layer6-8_O7_to_T10.jpg,OT,layer6-8,,,,,,,,,0.0,19.0,19.0,19.0,1508.1727111750006,None,3.0,2.345141085002979,1508.1727111750006,None,1508.1727111750006,None,1508.1727111750006,None,1,2022_Jun_23_1319,Semantic-hierachy,2021.1.2,
320,Trial # 321,layer0-5_O5_to_O6.jpg,layer0-5/layer0-5_O5_to_O6.jpg,OO,layer0-5,,,,,,,,,0.0,20.0,20.0,20.0,1510.7226237669963,None,1.0,1.6134709820034914,1510.7226237669963,None,1510.7226237669963,None,1510.7226237669963,None,1,2022_Jun_23_1319,Semantic-hierachy,2021.1.2,
321,Trial # 322,layer9-17_O5_to_T4.jpg,layer9-17/layer9-17_O5_to_T4.jpg,OT,layer9-17,,,,,,,,,0.0,21.0,21.0,21.0,1513.1746415149971,None,2.0,2.1760008319979534,1513.1746415149971,None,1513.1746415149971,None,1513.1746415149971,None,1,2022_Jun_23_1319,Semantic-hierachy,2021.1.2,
322,Trial # 323,layer0-5_T12_to_T2.jpg,layer0-5/layer0-5_T12_to_T2.jpg,TT,layer0-5,,,,,,,,,0.0,22.0,22.0,22.0,1515.691438377995,None,4.0,1.666788082999119,1515.691438377995,None,1515.691438377995,None,1515.691438377995,None,1,2022_Jun_23_1319,Semantic-hierachy,2021.1.2,
323,Trial # 324,layer0-5_O2_to_O4.jpg,layer0-5/layer0-5_O2_to_O4.jpg,OO,layer0-5,,,,,,,,,0.0,23.0,23.0,23.0,1517.7095465849998,None,1.0,2.1442755309981294,1517.7095465849998,None,1517.7095465849998,None,1517.7095465849998,None,1,2022_Jun_23_1319,Semantic-hierachy,2021.1.2,
324,Trial # 325,layer6-8_O1_to_O9.jpg,layer6-8/layer6-8_O1_to_O9.jpg,OO,layer6-8,,,,,,,,,0.0,24.0,24.0,24.0,1520.0255176339997,None,4.0,3.550627516000532,1520.0255176339997,None,1520.0255176339997,None,1520.0255176339997,None,1,2022_Jun_23_1319,Semantic-hierachy,2021.1.2,
325,Trial # 326,layer0-5_T3_to_T5.jpg,layer0-5/layer0-5_T3_to_T5.jpg,TT,layer0-5,,,,,,,,,0.0,25.0,25.0,25.0,1524.0940275879984,None,1.0,1.7301066479994915,1524.0940275879984,None,1524.0940275879984,None,1524.0940275879984,None,1,2022_Jun_23_1319,Semantic-hierachy,2021.1.2,
326,Trial # 327,layer6-8_O8_to_T12.jpg,layer6-8/layer6-8_O8_to_T12.jpg,OT,layer6-8,,,,,,,,,0.0,26.0,26.0,26.0,1525.9940213999944,None,3.0,2.1167140019970248,1525.9940213999944,None,1525.9940213999944,None,1525.9940213999944,None,1,2022_Jun_23_1319,Semantic-hierachy,2021.1.2,
327,Trial # 328,layer9-17_T11_to_T4.jpg,layer9-17/layer9-17_T11_to_T4.jpg,TT,layer9-17,,,,,,,,,0.0,27.0,27.0,27.0,1528.7126571269982,None,2.0,2.066746308999427,1528.7126571269982,None,1528.7126571269982,None,1528.7126571269982,None,1,2022_Jun_23_1319,Semantic-hierachy,2021.1.2,
328,Trial # 329,layer9-17_O6_to_T2.jpg,layer9-17/layer9-17_O6_to_T2.jpg,OT,layer9-17,,,,,,,,,0.0,28.0,28.0,28.0,1530.9288445999991,None,2.0,2.696100060995377,1530.9288445999991,None,1530.9288445999991,None,1530.9288445999991,None,1,2022_Jun_23_1319,Semantic-hierachy,2021.1.2,
329,Trial # 330,layer9-17_T10_to_T9.jpg,layer9-17/layer9-17_T10_to_T9.jpg,TT,layer9-17,,,,,,,,,0.0,29.0,29.0,29.0,1533.7811702939944,None,2.0,1.9433794479991773,1533.7811702939944,None,1533.7811702939944,None,1533.7811702939944,None,1,2022_Jun_23_1319,Semantic-hierachy,2021.1.2,
330,Trial # 331,layer0-5_O2_to_O3.jpg,layer0-5/layer0-5_O2_to_O3.jpg,OO,layer0-5,,,,,,,,,0.0,30.0,30.0,30.0,1536.0306637959948,None,1.0,1.811053097997501,1536.0306637959948,None,1536.0306637959948,None,1536.0306637959948,None,1,2022_Jun_23_1319,Semantic-hierachy,2021.1.2,
331,Trial # 332,layer6-8_O1_to_O12.jpg,layer6-8/layer6-8_O1_to_O12.jpg,OO,layer6-8,,,,,,,,,0.0,31.0,31.0,31.0,1538.0979703729972,None,3.0,6.0676007400034,1538.0979703729972,None,1538.0979703729972,None,1538.0979703729972,None,1,2022_Jun_23_1319,Semantic-hierachy,2021.1.2,
332,Trial # 333,layer0-5_O5_to_T12.jpg,layer0-5/layer0-5_O5_to_T12.jpg,OT,layer0-5,,,,,,,,,0.0,32.0,32.0,32.0,1544.334138924998,None,1.0,2.0960879790000035,1544.334138924998,None,1544.334138924998,None,1544.334138924998,None,1,2022_Jun_23_1319,Semantic-hierachy,2021.1.2,
333,Trial # 334,layer9-17_O11_to_T6.jpg,layer9-17/layer9-17_O11_to_T6.jpg,OT,layer9-17,,,,,,,,,0.0,33.0,33.0,33.0,1546.6671967779985,None,4.0,2.2645773789990926,1546.6671967779985,None,1546.6671967779985,None,1546.6671967779985,None,1,2022_Jun_23_1319,Semantic-hierachy,2021.1.2,
334,Trial # 335,layer0-5_O4_to_T1.jpg,layer0-5/layer0-5_O4_to_T1.jpg,OT,layer0-5,,,,,,,,,0.0,34.0,34.0,34.0,1549.118988450995,None,1.0,3.163720423995983,1549.118988450995,None,1549.118988450995,None,1549.118988450995,None,1,2022_Jun_23_1319,Semantic-hierachy,2021.1.2,
335,Trial # 336,layer6-8_T1_to_T6.jpg,layer6-8/layer6-8_T1_to_T6.jpg,TT,layer6-8,,,,,,,,,0.0,35.0,35.0,35.0,1552.4859023069948,None,4.0,1.7822020389940008,1552.4859023069948,None,1552.4859023069948,None,1552.4859023069948,None,1,2022_Jun_23_1319,Semantic-hierachy,2021.1.2,
336,Trial # 337,layer0-5_O12_to_O6.jpg,layer0-5/layer0-5_O12_to_O6.jpg,OO,layer0-5,,,,,,,,,0.0,36.0,36.0,36.0,1554.5198225959975,None,1.0,1.5556329070022912,1554.5198225959975,None,1554.5198225959975,None,1554.5198225959975,None,1,2022_Jun_23_1319,Semantic-hierachy,2021.1.2,
337,Trial # 338,layer0-5_O1_to_O10.jpg,layer0-5/layer0-5_O1_to_O10.jpg,OO,layer0-5,,,,,,,,,0.0,37.0,37.0,37.0,1556.270152954996,None,1.0,1.9596297739990405,1556.270152954996,None,1556.270152954996,None,1556.270152954996,None,1,2022_Jun_23_1319,Semantic-hierachy,2021.1.2,
338,Trial # 339,layer0-5_O9_to_T9.jpg,layer0-5/layer0-5_O9_to_T9.jpg,OT,layer0-5,,,,,,,,,0.0,38.0,38.0,38.0,1558.5555045369983,None,1.0,2.8237360380007885,1558.5555045369983,None,1558.5555045369983,None,1558.5555045369983,None,1,2022_Jun_23_1319,Semantic-hierachy,2021.1.2,
339,Trial # 340,layer6-8_O6_to_T10.jpg,layer6-8/layer6-8_O6_to_T10.jpg,OT,layer6-8,,,,,,,,,0.0,39.0,39.0,39.0,1561.5716934019947,None,3.0,3.846711824000522,1561.5716934019947,None,1561.5716934019947,None,1561.5716934019947,None,1,2022_Jun_23_1319,Semantic-hierachy,2021.1.2,
340,Trial # 341,layer9-17_O3_to_T3.jpg,layer9-17/layer9-17_O3_to_T3.jpg,OT,layer9-17,,,,,,,,,0.0,40.0,40.0,40.0,1565.8230197089945,None,2.0,3.835049030996743,1565.8230197089945,None,1565.8230197089945,None,1565.8230197089945,None,1,2022_Jun_23_1319,Semantic-hierachy,2021.1.2,
341,Trial # 342,layer0-5_O8_to_T8.jpg,layer0-5/layer0-5_O8_to_T8.jpg,OT,layer0-5,,,,,,,,,0.0,41.0,41.0,41.0,1570.3243859639988,None,1.0,6.016415933001554,1570.3243859639988,None,1570.3243859639988,None,1570.3243859639988,None,1,2022_Jun_23_1319,Semantic-hierachy,2021.1.2,
342,Trial # 343,layer9-17_O11_to_O3.jpg,layer9-17/layer9-17_O11_to_O3.jpg,OO,layer9-17,,,,,,,,,0.0,42.0,42.0,42.0,1580.0440787099942,None,2.0,1.7468786999961594,1580.0440787099942,None,1580.0440787099942,None,1580.0440787099942,None,1,2022_Jun_23_1319,Semantic-hierachy,2021.1.2,
343,Trial # 344,layer9-17_O10_to_T12.jpg,layer9-17/layer9-17_O10_to_T12.jpg,OT,layer9-17,,,,,,,,,0.0,43.0,43.0,43.0,1582.0113473969975,None,2.0,1.7681506709996029,1582.0113473969975,None,1582.0113473969975,None,1582.0113473969975,None,1,2022_Jun_23_1319,Semantic-hierachy,2021.1.2,
344,Trial # 345,layer6-8_T3_to_T6.jpg,layer6-8/layer6-8_T3_to_T6.jpg,TT,layer6-8,,,,,,,,,0.0,44.0,44.0,44.0,1584.5121497849975,None,4.0,2.481983384997875,1584.5121497849975,None,1584.5121497849975,None,1584.5121497849975,None,1,2022_Jun_23_1319,Semantic-hierachy,2021.1.2,
345,Trial # 346,layer6-8_O1_to_O4.jpg,layer6-8/layer6-8_O1_to_O4.jpg,OO,layer6-8,,,,,,,,,0.0,45.0,45.0,45.0,1587.3793286619984,None,4.0,6.214917471006629,1587.3793286619984,None,1587.3793286619984,None,1587.3793286619984,None,1,2022_Jun_23_1319,Semantic-hierachy,2021.1.2,
346,Trial # 347,layer0-5_O8_to_T3.jpg,layer0-5/layer0-5_O8_to_T3.jpg,OT,layer0-5,,,,,,,,,0.0,46.0,46.0,46.0,1594.7322423799997,None,1.0,2.0644560029977583,1594.7322423799997,None,1594.7322423799997,None,1594.7322423799997,None,1,2022_Jun_23_1319,Semantic-hierachy,2021.1.2,
347,Trial # 348,layer9-17_T2_to_T7.jpg,layer9-17/layer9-17_T2_to_T7.jpg,TT,layer9-17,,,,,,,,,0.0,47.0,47.0,47.0,1597.3155728889978,None,2.0,3.867143957002554,1597.3155728889978,None,1597.3155728889978,None,1597.3155728889978,None,1,2022_Jun_23_1319,Semantic-hierachy,2021.1.2,
348,Trial # 349,layer0-5_O9_to_T4.jpg,layer0-5/layer0-5_O9_to_T4.jpg,OT,layer0-5,,,,,,,,,0.0,48.0,48.0,48.0,1601.8679433979996,None,1.0,2.012990372000786,1601.8679433979996,None,1601.8679433979996,None,1601.8679433979996,None,1,2022_Jun_23_1319,Semantic-hierachy,2021.1.2,
349,Trial # 350,layer9-17_T12_to_T9.jpg,layer9-17/layer9-17_T12_to_T9.jpg,TT,layer9-17,,,,,,,,,0.0,49.0,49.0,49.0,1604.2528155990003,None,2.0,1.4156916540014208,1604.2528155990003,None,1604.2528155990003,None,1604.2528155990003,None,1,2022_Jun_23_1319,Semantic-hierachy,2021.1.2,
350,Trial # 351,layer6-8_O11_to_O6.jpg,layer6-8/layer6-8_O11_to_O6.jpg,OO,layer6-8,,,,,,,,,0.0,50.0,50.0,50.0,1606.0683818199975,None,2.0,4.432795626002189,1606.0683818199975,None,1606.0683818199975,None,1606.0683818199975,None,1,2022_Jun_23_1319,Semantic-hierachy,2021.1.2,
351,Trial # 352,layer0-5_O10_to_O11.jpg,layer0-5/layer0-5_O10_to_O11.jpg,OO,layer0-5,,,,,,,,,0.0,51.0,51.0,51.0,1610.7873440839976,None,1.0,2.194508874003077,1610.7873440839976,None,1610.7873440839976,None,1610.7873440839976,None,1,2022_Jun_23_1319,Semantic-hierachy,2021.1.2,
352,Trial # 353,layer9-17_O4_to_T7.jpg,layer9-17/layer9-17_O4_to_T7.jpg,OT,layer9-17,,,,,,,,,0.0,52.0,52.0,52.0,1613.2222071599972,None,2.0,4.780517906998284,1613.2222071599972,None,1613.2222071599972,None,1613.2222071599972,None,1,2022_Jun_23_1319,Semantic-hierachy,2021.1.2,
353,Trial # 354,layer0-5_O2_to_T11.jpg,layer0-5/layer0-5_O2_to_T11.jpg,OT,layer0-5,,,,,,,,,0.0,53.0,53.0,53.0,1618.3073066340005,None,1.0,1.8495144859989523,1618.3073066340005,None,1618.3073066340005,None,1618.3073066340005,None,1,2022_Jun_23_1319,Semantic-hierachy,2021.1.2,
354,Trial # 355,layer9-17_O5_to_O6.jpg,layer9-17/layer9-17_O5_to_O6.jpg,OO,layer9-17,,,,,,,,,0.0,54.0,54.0,54.0,1620.289945097997,None,2.0,1.569544556994515,1620.289945097997,None,1620.289945097997,None,1620.289945097997,None,1,2022_Jun_23_1319,Semantic-hierachy,2021.1.2,
355,Trial # 356,layer6-8_O5_to_T10.jpg,layer6-8/layer6-8_O5_to_T10.jpg,OT,layer6-8,,,,,,,,,0.0,55.0,55.0,55.0,1623.1085692139968,None,3.0,3.0112408960048924,1623.1085692139968,None,1623.1085692139968,None,1623.1085692139968,None,1,2022_Jun_23_1319,Semantic-hierachy,2021.1.2,
356,Trial # 357,layer6-8_T3_to_T4.jpg,layer6-8/layer6-8_T3_to_T4.jpg,TT,layer6-8,,,,,,,,,0.0,56.0,56.0,56.0,1626.3584398149978,None,4.0,3.482171543000732,1626.3584398149978,None,1626.3584398149978,None,1626.3584398149978,None,1,2022_Jun_23_1319,Semantic-hierachy,2021.1.2,
357,Trial # 358,layer6-8_T4_to_T8.jpg,layer6-8/layer6-8_T4_to_T8.jpg,TT,layer6-8,,,,,,,,,0.0,57.0,57.0,57.0,1630.1269940519996,None,4.0,1.5426226980052888,1630.1269940519996,None,1630.1269940519996,None,1630.1269940519996,None,1,2022_Jun_23_1319,Semantic-hierachy,2021.1.2,
358,Trial # 359,layer0-5_O2_to_T4.jpg,layer0-5/layer0-5_O2_to_T4.jpg,OT,layer0-5,,,,,,,,,0.0,58.0,58.0,58.0,1632.1101606509983,None,1.0,2.660057823995885,1632.1101606509983,None,1632.1101606509983,None,1632.1101606509983,None,1,2022_Jun_23_1319,Semantic-hierachy,2021.1.2,
359,Trial # 360,layer0-5_O4_to_O7.jpg,layer0-5/layer0-5_O4_to_O7.jpg,OO,layer0-5,,,,,,,,,0.0,59.0,59.0,59.0,1634.961220790996,None,1.0,2.2999220109995804,1634.961220790996,None,1634.961220790996,None,1634.961220790996,None,1,2022_Jun_23_1319,Semantic-hierachy,2021.1.2,
360,Trial # 361,layer9-17_O12_to_T7.jpg,layer9-17/layer9-17_O12_to_T7.jpg,OT,layer9-17,,,,,,,,,0.0,60.0,60.0,60.0,1637.5623932509989,None,2.0,3.1993281499962904,1637.5623932509989,None,1637.5623932509989,None,1637.5623932509989,None,1,2022_Jun_23_1319,Semantic-hierachy,2021.1.2,
361,Trial # 362,layer6-8_O11_to_T8.jpg,layer6-8/layer6-8_O11_to_T8.jpg,OT,layer6-8,,,,,,,,,0.0,61.0,61.0,61.0,1641.112880224995,None,3.0,2.0140348479981185,1641.112880224995,None,1641.112880224995,None,1641.112880224995,None,1,2022_Jun_23_1319,Semantic-hierachy,2021.1.2,
362,Trial # 363,layer9-17_O10_to_T6.jpg,layer9-17/layer9-17_O10_to_T6.jpg,OT,layer9-17,,,,,,,,,0.0,62.0,62.0,62.0,1643.9139368359974,None,4.0,9.293161829999008,1643.9139368359974,None,1643.9139368359974,None,1643.9139368359974,None,1,2022_Jun_23_1319,Semantic-hierachy,2021.1.2,
363,Trial # 364,layer0-5_O5_to_T7.jpg,layer0-5/layer0-5_O5_to_T7.jpg,OT,layer0-5,,,,,,,,,0.0,63.0,63.0,63.0,1653.3680076469973,None,1.0,1.9640998169998056,1653.3680076469973,None,1653.3680076469973,None,1653.3680076469973,None,1,2022_Jun_23_1319,Semantic-hierachy,2021.1.2,
