,Trial_num,image_name,image_path,pair_type,layers,block1.thisRepN,block1.thisTrialN,block1.thisN,block1.thisIndex,block2.thisRepN,block2.thisTrialN,block2.thisN,block2.thisIndex,block3.thisRepN,block3.thisTrialN,block3.thisN,block3.thisIndex,image_8.started,image_8.stopped,selected_semantic.response,selected_semantic.rt,selected_semantic.started,selected_semantic.stopped,Instruction.started,Instruction.stopped,Trial_number.started,Trial_number.stopped,session,date,expName,psychopyVersion,Unnamed: 33
0,Trial # 1,layer0-5_O2_to_T1.jpg,layer0-5/layer0-5_O2_to_T1.jpg,OT,layer0-5,0.0,0.0,0.0,0.0,,,,,,,,,84.79836255218834,None,1.0,62.17467565834522,84.79836255218834,None,84.79836255218834,None,84.79836255218834,None,1,2022_May_04_1839,Semantic-hierachy,2021.1.2,
1,Trial # 2,layer0-5_O11_to_T7.jpg,layer0-5/layer0-5_O11_to_T7.jpg,OT,layer0-5,0.0,1.0,1.0,1.0,,,,,,,,,149.53535464731976,None,1.0,30.70510480320081,149.53535464731976,None,149.53535464731976,None,149.53535464731976,None,1,2022_May_04_1839,Semantic-hierachy,2021.1.2,
2,Trial # 3,layer6-8_O3_to_O5.jpg,layer6-8/layer6-8_O3_to_O5.jpg,OO,layer6-8,0.0,2.0,2.0,2.0,,,,,,,,,182.0275748251006,None,4.0,12.77963186101988,182.0275748251006,None,182.0275748251006,None,182.0275748251006,None,1,2022_May_04_1839,Semantic-hierachy,2021.1.2,
3,Trial # 4,layer6-8_O11_to_O4.jpg,layer6-8/layer6-8_O11_to_O4.jpg,OO,layer6-8,0.0,3.0,3.0,3.0,,,,,,,,,195.9163707862608,None,4.0,14.554306495003402,195.9163707862608,None,195.9163707862608,None,195.9163707862608,None,1,2022_May_04_1839,Semantic-hierachy,2021.1.2,
4,Trial # 5,layer6-8_O8_to_T8.jpg,layer6-8/layer6-8_O8_to_T8.jpg,OT,layer6-8,0.0,4.0,4.0,4.0,,,,,,,,,210.9876443739049,None,4.0,13.5866194749251,210.9876443739049,None,210.9876443739049,None,210.9876443739049,None,1,2022_May_04_1839,Semantic-hierachy,2021.1.2,
5,Trial # 6,layer0-5_O11_to_O8.jpg,layer0-5/layer0-5_O11_to_O8.jpg,OO,layer0-5,0.0,5.0,5.0,5.0,,,,,,,,,224.8910808241926,None,1.0,7.552378242835402,224.8910808241926,None,224.8910808241926,None,224.8910808241926,None,1,2022_May_04_1839,Semantic-hierachy,2021.1.2,
6,Trial # 7,layer0-5_T10_to_T11.jpg,layer0-5/layer0-5_T10_to_T11.jpg,TT,layer0-5,0.0,6.0,6.0,6.0,,,,,,,,,232.87662141490728,None,1.0,2.809496147092432,232.87662141490728,None,232.87662141490728,None,232.87662141490728,None,1,2022_May_04_1839,Semantic-hierachy,2021.1.2,
7,Trial # 8,layer9-17_O6_to_O9.jpg,layer9-17/layer9-17_O6_to_O9.jpg,OO,layer9-17,0.0,7.0,7.0,7.0,,,,,,,,,237.2113818251528,None,2.0,3.126049707643688,237.2113818251528,None,237.2113818251528,None,237.2113818251528,None,1,2022_May_04_1839,Semantic-hierachy,2021.1.2,
8,Trial # 9,layer6-8_O12_to_O9.jpg,layer6-8/layer6-8_O12_to_O9.jpg,OO,layer6-8,0.0,8.0,8.0,8.0,,,,,,,,,242.0968044991605,None,3.0,8.237151713110507,242.0968044991605,None,242.0968044991605,None,242.0968044991605,None,1,2022_May_04_1839,Semantic-hierachy,2021.1.2,
9,Trial # 10,layer0-5_O10_to_T2.jpg,layer0-5/layer0-5_O10_to_T2.jpg,OT,layer0-5,0.0,9.0,9.0,9.0,,,,,,,,,251.15011213626715,None,1.0,31.76227787090465,251.15011213626715,None,251.15011213626715,None,251.15011213626715,None,1,2022_May_04_1839,Semantic-hierachy,2021.1.2,
10,Trial # 11,layer9-17_T10_to_T2.jpg,layer9-17/layer9-17_T10_to_T2.jpg,TT,layer9-17,0.0,10.0,10.0,10.0,,,,,,,,,283.3083980130032,None,1.0,37.16213532304391,283.3083980130032,None,283.3083980130032,None,283.3083980130032,None,1,2022_May_04_1839,Semantic-hierachy,2021.1.2,
11,Trial # 12,layer6-8_T6_to_T7.jpg,layer6-8/layer6-8_T6_to_T7.jpg,TT,layer6-8,0.0,11.0,11.0,11.0,,,,,,,,,321.1886963439174,None,3.0,11.812591538764536,321.1886963439174,None,321.1886963439174,None,321.1886963439174,None,1,2022_May_04_1839,Semantic-hierachy,2021.1.2,
12,Trial # 13,layer9-17_O10_to_T2.jpg,layer9-17/layer9-17_O10_to_T2.jpg,OT,layer9-17,0.0,12.0,12.0,12.0,,,,,,,,,333.4249154692516,None,2.0,2.793817361816764,333.4249154692516,None,333.4249154692516,None,333.4249154692516,None,1,2022_May_04_1839,Semantic-hierachy,2021.1.2,
13,Trial # 14,layer6-8_T4_to_T7.jpg,layer6-8/layer6-8_T4_to_T7.jpg,TT,layer6-8,0.0,13.0,13.0,13.0,,,,,,,,,337.05912651726976,None,4.0,13.775231244973838,337.05912651726976,None,337.05912651726976,None,337.05912651726976,None,1,2022_May_04_1839,Semantic-hierachy,2021.1.2,
14,Trial # 15,layer9-17_O8_to_T2.jpg,layer9-17/layer9-17_O8_to_T2.jpg,OT,layer9-17,0.0,14.0,14.0,14.0,,,,,,,,,351.398028888274,None,2.0,3.241800731047988,351.398028888274,None,351.398028888274,None,351.398028888274,None,1,2022_May_04_1839,Semantic-hierachy,2021.1.2,
15,Trial # 16,layer0-5_T6_to_T9.jpg,layer0-5/layer0-5_T6_to_T9.jpg,TT,layer0-5,0.0,15.0,15.0,15.0,,,,,,,,,355.01547729596496,None,1.0,3.040483274962753,355.01547729596496,None,355.01547729596496,None,355.01547729596496,None,1,2022_May_04_1839,Semantic-hierachy,2021.1.2,
16,Trial # 17,layer0-5_O11_to_O12.jpg,layer0-5/layer0-5_O11_to_O12.jpg,OO,layer0-5,0.0,16.0,16.0,16.0,,,,,,,,,358.3820208981633,None,1.0,2.987967548891902,358.3820208981633,None,358.3820208981633,None,358.3820208981633,None,1,2022_May_04_1839,Semantic-hierachy,2021.1.2,
17,Trial # 18,layer0-5_T11_to_T5.jpg,layer0-5/layer0-5_T11_to_T5.jpg,TT,layer0-5,0.0,17.0,17.0,17.0,,,,,,,,,362.0836365050636,None,1.0,6.709255860187113,362.0836365050636,None,362.0836365050636,None,362.0836365050636,None,1,2022_May_04_1839,Semantic-hierachy,2021.1.2,
18,Trial # 19,layer0-5_O6_to_T12.jpg,layer0-5/layer0-5_O6_to_T12.jpg,OT,layer0-5,0.0,18.0,18.0,18.0,,,,,,,,,369.1188369262964,None,1.0,2.6650349530391395,369.1188369262964,None,369.1188369262964,None,369.1188369262964,None,1,2022_May_04_1839,Semantic-hierachy,2021.1.2,
19,Trial # 20,layer6-8_T6_to_T8.jpg,layer6-8/layer6-8_T6_to_T8.jpg,TT,layer6-8,0.0,19.0,19.0,19.0,,,,,,,,,372.1865371600725,None,4.0,4.306733973324299,372.1865371600725,None,372.1865371600725,None,372.1865371600725,None,1,2022_May_04_1839,Semantic-hierachy,2021.1.2,
20,Trial # 21,layer9-17_T2_to_T5.jpg,layer9-17/layer9-17_T2_to_T5.jpg,TT,layer9-17,0.0,20.0,20.0,20.0,,,,,,,,,377.3212377829477,None,2.0,2.4340161052532494,377.3212377829477,None,377.3212377829477,None,377.3212377829477,None,1,2022_May_04_1839,Semantic-hierachy,2021.1.2,
21,Trial # 22,layer6-8_O2_to_O6.jpg,layer6-8/layer6-8_O2_to_O6.jpg,OO,layer6-8,0.0,21.0,21.0,21.0,,,,,,,,,380.2565550450236,None,4.0,10.577060509007424,380.2565550450236,None,380.2565550450236,None,380.2565550450236,None,1,2022_May_04_1839,Semantic-hierachy,2021.1.2,
22,Trial # 23,layer9-17_O3_to_T12.jpg,layer9-17/layer9-17_O3_to_T12.jpg,OT,layer9-17,0.0,22.0,22.0,22.0,,,,,,,,,391.2257174109109,None,2.0,2.453798247966916,391.2257174109109,None,391.2257174109109,None,391.2257174109109,None,1,2022_May_04_1839,Semantic-hierachy,2021.1.2,
23,Trial # 24,layer0-5_O11_to_O3.jpg,layer0-5/layer0-5_O11_to_O3.jpg,OO,layer0-5,0.0,23.0,23.0,23.0,,,,,,,,,394.1601203191094,None,1.0,3.802261202130466,394.1601203191094,None,394.1601203191094,None,394.1601203191094,None,1,2022_May_04_1839,Semantic-hierachy,2021.1.2,
24,Trial # 25,layer6-8_O2_to_O9.jpg,layer6-8/layer6-8_O2_to_O9.jpg,OO,layer6-8,0.0,24.0,24.0,24.0,,,,,,,,,398.74445021897554,None,4.0,13.694090499076992,398.74445021897554,None,398.74445021897554,None,398.74445021897554,None,1,2022_May_04_1839,Semantic-hierachy,2021.1.2,
25,Trial # 26,layer9-17_O10_to_O8.jpg,layer9-17/layer9-17_O10_to_O8.jpg,OO,layer9-17,0.0,25.0,25.0,25.0,,,,,,,,,412.7823969689198,None,1.0,12.5945555572398,412.7823969689198,None,412.7823969689198,None,412.7823969689198,None,1,2022_May_04_1839,Semantic-hierachy,2021.1.2,
26,Trial # 27,layer9-17_T4_to_T6.jpg,layer9-17/layer9-17_T4_to_T6.jpg,TT,layer9-17,0.0,26.0,26.0,26.0,,,,,,,,,425.7872477020137,None,2.0,3.568086692132056,425.7872477020137,None,425.7872477020137,None,425.7872477020137,None,1,2022_May_04_1839,Semantic-hierachy,2021.1.2,
27,Trial # 28,layer6-8_O7_to_T8.jpg,layer6-8/layer6-8_O7_to_T8.jpg,OT,layer6-8,0.0,27.0,27.0,27.0,,,,,,,,,430.05559226311743,None,2.0,8.785934408660978,430.05559226311743,None,430.05559226311743,None,430.05559226311743,None,1,2022_May_04_1839,Semantic-hierachy,2021.1.2,
28,Trial # 29,layer6-8_T4_to_T5.jpg,layer6-8/layer6-8_T4_to_T5.jpg,TT,layer6-8,0.0,28.0,28.0,28.0,,,,,,,,,439.1567926169373,None,4.0,8.509563719853759,439.1567926169373,None,439.1567926169373,None,439.1567926169373,None,1,2022_May_04_1839,Semantic-hierachy,2021.1.2,
29,Trial # 30,layer6-8_T10_to_T9.jpg,layer6-8/layer6-8_T10_to_T9.jpg,TT,layer6-8,0.0,29.0,29.0,29.0,,,,,,,,,447.87630428094417,None,4.0,25.143123623915017,447.87630428094417,None,447.87630428094417,None,447.87630428094417,None,1,2022_May_04_1839,Semantic-hierachy,2021.1.2,
30,Trial # 31,layer9-17_O1_to_O8.jpg,layer9-17/layer9-17_O1_to_O8.jpg,OO,layer9-17,0.0,30.0,30.0,30.0,,,,,,,,,474.4510638182983,None,2.0,2.476988909766078,474.4510638182983,None,474.4510638182983,None,474.4510638182983,None,1,2022_May_04_1839,Semantic-hierachy,2021.1.2,
31,Trial # 32,layer9-17_O12_to_O7.jpg,layer9-17/layer9-17_O12_to_O7.jpg,OO,layer9-17,0.0,31.0,31.0,31.0,,,,,,,,,477.2353732199408,None,2.0,3.985792133957148,477.2353732199408,None,477.2353732199408,None,477.2353732199408,None,1,2022_May_04_1839,Semantic-hierachy,2021.1.2,
32,Trial # 33,layer9-17_T10_to_T12.jpg,layer9-17/layer9-17_T10_to_T12.jpg,TT,layer9-17,0.0,32.0,32.0,32.0,,,,,,,,,482.0050577712245,None,4.0,9.55491710593924,482.0050577712245,None,482.0050577712245,None,482.0050577712245,None,1,2022_May_04_1839,Semantic-hierachy,2021.1.2,
33,Trial # 34,layer0-5_T2_to_T6.jpg,layer0-5/layer0-5_T2_to_T6.jpg,TT,layer0-5,0.0,33.0,33.0,33.0,,,,,,,,,491.92423597117886,None,1.0,4.137566379271448,491.92423597117886,None,491.92423597117886,None,491.92423597117886,None,1,2022_May_04_1839,Semantic-hierachy,2021.1.2,
34,Trial # 35,layer6-8_T11_to_T2.jpg,layer6-8/layer6-8_T11_to_T2.jpg,TT,layer6-8,0.0,34.0,34.0,34.0,,,,,,,,,500.54398372909054,None,4.0,17.544512691907585,500.54398372909054,None,500.54398372909054,None,500.54398372909054,None,1,2022_May_04_1839,Semantic-hierachy,2021.1.2,
35,Trial # 36,layer6-8_O4_to_T3.jpg,layer6-8/layer6-8_O4_to_T3.jpg,OT,layer6-8,0.0,35.0,35.0,35.0,,,,,,,,,518.4645150410943,None,3.0,4.02120810514316,518.4645150410943,None,518.4645150410943,None,518.4645150410943,None,1,2022_May_04_1839,Semantic-hierachy,2021.1.2,
36,Trial # 37,layer6-8_O3_to_T11.jpg,layer6-8/layer6-8_O3_to_T11.jpg,OT,layer6-8,0.0,36.0,36.0,36.0,,,,,,,,,523.4997925781645,None,2.0,2.792446024250239,523.4997925781645,None,523.4997925781645,None,523.4997925781645,None,1,2022_May_04_1839,Semantic-hierachy,2021.1.2,
37,Trial # 38,layer6-8_T1_to_T2.jpg,layer6-8/layer6-8_T1_to_T2.jpg,TT,layer6-8,0.0,37.0,37.0,37.0,,,,,,,,,526.5842963159084,None,1.0,2.693083235062659,526.5842963159084,None,526.5842963159084,None,526.5842963159084,None,1,2022_May_04_1839,Semantic-hierachy,2021.1.2,
38,Trial # 39,layer9-17_O2_to_O6.jpg,layer9-17/layer9-17_O2_to_O6.jpg,OO,layer9-17,0.0,38.0,38.0,38.0,,,,,,,,,551.0082351858728,None,4.0,3.1013839980587363,551.0082351858728,None,551.0082351858728,None,551.0082351858728,None,1,2022_May_04_1839,Semantic-hierachy,2021.1.2,
39,Trial # 40,layer9-17_O4_to_T2.jpg,layer9-17/layer9-17_O4_to_T2.jpg,OT,layer9-17,0.0,39.0,39.0,39.0,,,,,,,,,554.5098093040287,None,2.0,2.420578404329717,554.5098093040287,None,554.5098093040287,None,554.5098093040287,None,1,2022_May_04_1839,Semantic-hierachy,2021.1.2,
40,Trial # 41,layer6-8_O5_to_T3.jpg,layer6-8/layer6-8_O5_to_T3.jpg,OT,layer6-8,0.0,40.0,40.0,40.0,,,,,,,,,557.243782967329,None,3.0,4.738920812960714,557.243782967329,None,557.243782967329,None,557.243782967329,None,1,2022_May_04_1839,Semantic-hierachy,2021.1.2,
41,Trial # 42,layer6-8_O2_to_O3.jpg,layer6-8/layer6-8_O2_to_O3.jpg,OO,layer6-8,0.0,41.0,41.0,41.0,,,,,,,,,562.5287955389358,None,4.0,3.178284348919988,562.5287955389358,None,562.5287955389358,None,562.5287955389358,None,1,2022_May_04_1839,Semantic-hierachy,2021.1.2,
42,Trial # 43,layer6-8_O1_to_T6.jpg,layer6-8/layer6-8_O1_to_T6.jpg,OT,layer6-8,0.0,42.0,42.0,42.0,,,,,,,,,566.0799716641195,None,3.0,2.892058955971152,566.0799716641195,None,566.0799716641195,None,566.0799716641195,None,1,2022_May_04_1839,Semantic-hierachy,2021.1.2,
43,Trial # 44,layer6-8_O2_to_T12.jpg,layer6-8/layer6-8_O2_to_T12.jpg,OT,layer6-8,0.0,43.0,43.0,43.0,,,,,,,,,569.7644834229723,None,3.0,3.1442643622867763,569.7644834229723,None,569.7644834229723,None,569.7644834229723,None,1,2022_May_04_1839,Semantic-hierachy,2021.1.2,
44,Trial # 45,layer9-17_O2_to_O8.jpg,layer9-17/layer9-17_O2_to_O8.jpg,OO,layer9-17,0.0,44.0,44.0,44.0,,,,,,,,,573.2825714852661,None,4.0,3.841847202274949,573.2825714852661,None,573.2825714852661,None,573.2825714852661,None,1,2022_May_04_1839,Semantic-hierachy,2021.1.2,
45,Trial # 46,layer9-17_O10_to_O4.jpg,layer9-17/layer9-17_O10_to_O4.jpg,OO,layer9-17,0.0,45.0,45.0,45.0,,,,,,,,,577.4165856898762,None,2.0,15.173681749030948,577.4165856898762,None,577.4165856898762,None,577.4165856898762,None,1,2022_May_04_1839,Semantic-hierachy,2021.1.2,
46,Trial # 47,layer0-5_O1_to_O4.jpg,layer0-5/layer0-5_O1_to_O4.jpg,OO,layer0-5,0.0,46.0,46.0,46.0,,,,,,,,,593.7052750932053,None,1.0,1.882670103572309,593.7052750932053,None,593.7052750932053,None,593.7052750932053,None,1,2022_May_04_1839,Semantic-hierachy,2021.1.2,
47,Trial # 48,layer0-5_T4_to_T5.jpg,layer0-5/layer0-5_T4_to_T5.jpg,TT,layer0-5,0.0,47.0,47.0,47.0,,,,,,,,,595.9896621191874,None,1.0,2.287567590828985,595.9896621191874,None,595.9896621191874,None,595.9896621191874,None,1,2022_May_04_1839,Semantic-hierachy,2021.1.2,
48,Trial # 49,layer9-17_T12_to_T8.jpg,layer9-17/layer9-17_T12_to_T8.jpg,TT,layer9-17,0.0,48.0,48.0,48.0,,,,,,,,,598.5560624590144,None,2.0,1.8091102759353817,598.5560624590144,None,598.5560624590144,None,598.5560624590144,None,1,2022_May_04_1839,Semantic-hierachy,2021.1.2,
49,Trial # 50,layer0-5_T10_to_T5.jpg,layer0-5/layer0-5_T10_to_T5.jpg,TT,layer0-5,0.0,49.0,49.0,49.0,,,,,,,,,600.825278583914,None,1.0,2.658820764627308,600.825278583914,None,600.825278583914,None,600.825278583914,None,1,2022_May_04_1839,Semantic-hierachy,2021.1.2,
50,Trial # 51,layer6-8_O10_to_O8.jpg,layer6-8/layer6-8_O10_to_O8.jpg,OO,layer6-8,0.0,50.0,50.0,50.0,,,,,,,,,603.7747994931415,None,3.0,17.274026120081544,603.7747994931415,None,603.7747994931415,None,603.7747994931415,None,1,2022_May_04_1839,Semantic-hierachy,2021.1.2,
51,Trial # 52,layer9-17_O3_to_O5.jpg,layer9-17/layer9-17_O3_to_O5.jpg,OO,layer9-17,0.0,51.0,51.0,51.0,,,,,,,,,621.2646141741425,None,2.0,1.5383333605714142,621.2646141741425,None,621.2646141741425,None,621.2646141741425,None,1,2022_May_04_1839,Semantic-hierachy,2021.1.2,
52,Trial # 53,layer6-8_T1_to_T12.jpg,layer6-8/layer6-8_T1_to_T12.jpg,TT,layer6-8,0.0,52.0,52.0,52.0,,,,,,,,,623.0143243232742,None,3.0,11.311773493885994,623.0143243232742,None,623.0143243232742,None,623.0143243232742,None,1,2022_May_04_1839,Semantic-hierachy,2021.1.2,
53,Trial # 54,layer0-5_O4_to_O9.jpg,layer0-5/layer0-5_O4_to_O9.jpg,OO,layer0-5,0.0,53.0,53.0,53.0,,,,,,,,,634.8190407552756,None,1.0,2.6175888013094664,634.8190407552756,None,634.8190407552756,None,634.8190407552756,None,1,2022_May_04_1839,Semantic-hierachy,2021.1.2,
54,Trial # 55,layer0-5_O5_to_O9.jpg,layer0-5/layer0-5_O5_to_O9.jpg,OO,layer0-5,0.0,54.0,54.0,54.0,,,,,,,,,637.8187675722875,None,1.0,2.341565647162497,637.8187675722875,None,637.8187675722875,None,637.8187675722875,None,1,2022_May_04_1839,Semantic-hierachy,2021.1.2,
55,Trial # 56,layer0-5_O1_to_O2.jpg,layer0-5/layer0-5_O1_to_O2.jpg,OO,layer0-5,0.0,55.0,55.0,55.0,,,,,,,,,640.6698045632802,None,1.0,3.11980680283159,640.6698045632802,None,640.6698045632802,None,640.6698045632802,None,1,2022_May_04_1839,Semantic-hierachy,2021.1.2,
56,Trial # 57,layer9-17_T12_to_T3.jpg,layer9-17/layer9-17_T12_to_T3.jpg,TT,layer9-17,0.0,56.0,56.0,56.0,,,,,,,,,644.0375227979384,None,2.0,3.058937403839081,644.0375227979384,None,644.0375227979384,None,644.0375227979384,None,1,2022_May_04_1839,Semantic-hierachy,2021.1.2,
57,Trial # 58,layer0-5_O7_to_O9.jpg,layer0-5/layer0-5_O7_to_O9.jpg,OO,layer0-5,0.0,57.0,57.0,57.0,,,,,,,,,647.7723081270233,None,1.0,2.693196304142475,647.7723081270233,None,647.7723081270233,None,647.7723081270233,None,1,2022_May_04_1839,Semantic-hierachy,2021.1.2,
58,Trial # 59,layer0-5_T5_to_T9.jpg,layer0-5/layer0-5_T5_to_T9.jpg,TT,layer0-5,0.0,58.0,58.0,58.0,,,,,,,,,650.9238515361212,None,1.0,2.909507090225816,650.9238515361212,None,650.9238515361212,None,650.9238515361212,None,1,2022_May_04_1839,Semantic-hierachy,2021.1.2,
59,Trial # 60,layer9-17_O1_to_O9.jpg,layer9-17/layer9-17_O1_to_O9.jpg,OO,layer9-17,0.0,59.0,59.0,59.0,,,,,,,,,654.1235947213136,None,4.0,6.891002077609301,654.1235947213136,None,654.1235947213136,None,654.1235947213136,None,1,2022_May_04_1839,Semantic-hierachy,2021.1.2,
60,Trial # 61,layer0-5_O6_to_O7.jpg,layer0-5/layer0-5_O6_to_O7.jpg,OO,layer0-5,0.0,60.0,60.0,60.0,,,,,,,,,661.3925931421109,None,1.0,6.07113726483658,661.3925931421109,None,661.3925931421109,None,661.3925931421109,None,1,2022_May_04_1839,Semantic-hierachy,2021.1.2,
61,Trial # 62,layer9-17_T5_to_T6.jpg,layer9-17/layer9-17_T5_to_T6.jpg,TT,layer9-17,0.0,61.0,61.0,61.0,,,,,,,,,668.1785128400661,None,2.0,5.815739017445594,668.1785128400661,None,668.1785128400661,None,668.1785128400661,None,1,2022_May_04_1839,Semantic-hierachy,2021.1.2,
62,Trial # 63,layer9-17_T4_to_T9.jpg,layer9-17/layer9-17_T4_to_T9.jpg,TT,layer9-17,0.0,62.0,62.0,62.0,,,,,,,,,674.263312027324,None,2.0,2.022063727024942,674.263312027324,None,674.263312027324,None,674.263312027324,None,1,2022_May_04_1839,Semantic-hierachy,2021.1.2,
63,Trial # 64,layer0-5_O11_to_T1.jpg,layer0-5/layer0-5_O11_to_T1.jpg,OT,layer0-5,0.0,63.0,63.0,63.0,,,,,,,,,676.4975227080286,None,1.0,2.038361171260476,676.4975227080286,None,676.4975227080286,None,676.4975227080286,None,1,2022_May_04_1839,Semantic-hierachy,2021.1.2,
64,Trial # 65,layer6-8_T5_to_T9.jpg,layer6-8/layer6-8_T5_to_T9.jpg,TT,layer6-8,0.0,64.0,64.0,64.0,,,,,,,,,678.8975888523273,None,4.0,5.29594207694754,678.8975888523273,None,678.8975888523273,None,678.8975888523273,None,1,2022_May_04_1839,Semantic-hierachy,2021.1.2,
65,Trial # 66,layer0-5_T4_to_T7.jpg,layer0-5/layer0-5_T4_to_T7.jpg,TT,layer0-5,0.0,65.0,65.0,65.0,,,,,,,,,684.5993658863008,None,1.0,2.542349336203188,684.5993658863008,None,684.5993658863008,None,684.5993658863008,None,1,2022_May_04_1839,Semantic-hierachy,2021.1.2,
66,Trial # 67,layer0-5_O2_to_O6.jpg,layer0-5/layer0-5_O2_to_O6.jpg,OO,layer0-5,0.0,66.0,66.0,66.0,,,,,,,,,687.7341011879034,None,1.0,1.6255367486737669,687.7341011879034,None,687.7341011879034,None,687.7341011879034,None,1,2022_May_04_1839,Semantic-hierachy,2021.1.2,
67,Trial # 68,layer9-17_O12_to_T3.jpg,layer9-17/layer9-17_O12_to_T3.jpg,OT,layer9-17,0.0,67.0,67.0,67.0,,,,,,,,,689.7182967131957,None,2.0,1.6903751567006111,689.7182967131957,None,689.7182967131957,None,689.7182967131957,None,1,2022_May_04_1839,Semantic-hierachy,2021.1.2,
68,Trial # 69,layer9-17_O7_to_O9.jpg,layer9-17/layer9-17_O7_to_O9.jpg,OO,layer9-17,0.0,68.0,68.0,68.0,,,,,,,,,691.80271426728,None,4.0,5.159517186228186,691.80271426728,None,691.80271426728,None,691.80271426728,None,1,2022_May_04_1839,Semantic-hierachy,2021.1.2,
69,Trial # 70,layer9-17_T1_to_T8.jpg,layer9-17/layer9-17_T1_to_T8.jpg,TT,layer9-17,0.0,69.0,69.0,69.0,,,,,,,,,699.7554743760265,None,4.0,6.794416766148061,699.7554743760265,None,699.7554743760265,None,699.7554743760265,None,1,2022_May_04_1839,Semantic-hierachy,2021.1.2,
70,Trial # 71,layer0-5_O3_to_T8.jpg,layer0-5/layer0-5_O3_to_T8.jpg,OT,layer0-5,0.0,70.0,70.0,70.0,,,,,,,,,706.8399270949885,None,1.0,2.2872538920491934,706.8399270949885,None,706.8399270949885,None,706.8399270949885,None,1,2022_May_04_1839,Semantic-hierachy,2021.1.2,
71,Trial # 72,layer9-17_O9_to_T2.jpg,layer9-17/layer9-17_O9_to_T2.jpg,OT,layer9-17,0.0,71.0,71.0,71.0,,,,,,,,,709.4077031048946,None,3.0,3.120543537661433,709.4077031048946,None,709.4077031048946,None,709.4077031048946,None,1,2022_May_04_1839,Semantic-hierachy,2021.1.2,
72,Trial # 73,layer9-17_O5_to_O7.jpg,layer9-17/layer9-17_O5_to_O7.jpg,OO,layer9-17,0.0,72.0,72.0,72.0,,,,,,,,,716.8271737331524,None,2.0,5.0800099996849895,716.8271737331524,None,716.8271737331524,None,716.8271737331524,None,1,2022_May_04_1839,Semantic-hierachy,2021.1.2,
73,Trial # 74,layer0-5_T11_to_T9.jpg,layer0-5/layer0-5_T11_to_T9.jpg,TT,layer0-5,0.0,73.0,73.0,73.0,,,,,,,,,722.1280304091051,None,1.0,2.2783051589503884,722.1280304091051,None,722.1280304091051,None,722.1280304091051,None,1,2022_May_04_1839,Semantic-hierachy,2021.1.2,
74,Trial # 75,layer0-5_O11_to_T12.jpg,layer0-5/layer0-5_O11_to_T12.jpg,OT,layer0-5,0.0,74.0,74.0,74.0,,,,,,,,,724.7292478312738,None,1.0,2.9022381990216672,724.7292478312738,None,724.7292478312738,None,724.7292478312738,None,1,2022_May_04_1839,Semantic-hierachy,2021.1.2,
75,Trial # 76,layer9-17_T7_to_T9.jpg,layer9-17/layer9-17_T7_to_T9.jpg,TT,layer9-17,0.0,75.0,75.0,75.0,,,,,,,,,727.9468981670216,None,4.0,3.589401429053396,727.9468981670216,None,727.9468981670216,None,727.9468981670216,None,1,2022_May_04_1839,Semantic-hierachy,2021.1.2,
76,Trial # 77,layer6-8_O6_to_T2.jpg,layer6-8/layer6-8_O6_to_T2.jpg,OT,layer6-8,0.0,76.0,76.0,76.0,,,,,,,,,732.4977501663379,None,4.0,11.857930287718771,732.4977501663379,None,732.4977501663379,None,732.4977501663379,None,1,2022_May_04_1839,Semantic-hierachy,2021.1.2,
77,Trial # 78,layer9-17_T4_to_T5.jpg,layer9-17/layer9-17_T4_to_T5.jpg,TT,layer9-17,0.0,77.0,77.0,77.0,,,,,,,,,744.7854465139098,None,2.0,2.157395487651229,744.7854465139098,None,744.7854465139098,None,744.7854465139098,None,1,2022_May_04_1839,Semantic-hierachy,2021.1.2,
78,Trial # 79,layer0-5_T2_to_T4.jpg,layer0-5/layer0-5_T2_to_T4.jpg,TT,layer0-5,0.0,78.0,78.0,78.0,,,,,,,,,747.5864257272333,None,1.0,2.4085950180888176,747.5864257272333,None,747.5864257272333,None,747.5864257272333,None,1,2022_May_04_1839,Semantic-hierachy,2021.1.2,
79,Trial # 80,layer0-5_T2_to_T8.jpg,layer0-5/layer0-5_T2_to_T8.jpg,TT,layer0-5,0.0,79.0,79.0,79.0,,,,,,,,,750.5039624520577,None,1.0,3.357132228091359,750.5039624520577,None,750.5039624520577,None,750.5039624520577,None,1,2022_May_04_1839,Semantic-hierachy,2021.1.2,
80,Trial # 81,layer9-17_T3_to_T9.jpg,layer9-17/layer9-17_T3_to_T9.jpg,TT,layer9-17,0.0,80.0,80.0,80.0,,,,,,,,,754.2046393030323,None,2.0,2.4406960951164365,754.2046393030323,None,754.2046393030323,None,754.2046393030323,None,1,2022_May_04_1839,Semantic-hierachy,2021.1.2,
81,Trial # 82,layer9-17_O2_to_O5.jpg,layer9-17/layer9-17_O2_to_O5.jpg,OO,layer9-17,0.0,81.0,81.0,81.0,,,,,,,,,756.9894117531367,None,2.0,2.40901848487556,756.9894117531367,None,756.9894117531367,None,756.9894117531367,None,1,2022_May_04_1839,Semantic-hierachy,2021.1.2,
82,Trial # 83,layer6-8_O6_to_O7.jpg,layer6-8/layer6-8_O6_to_O7.jpg,OO,layer6-8,0.0,82.0,82.0,82.0,,,,,,,,,759.7074921540916,None,4.0,5.427855887915939,759.7074921540916,None,759.7074921540916,None,759.7074921540916,None,1,2022_May_04_1839,Semantic-hierachy,2021.1.2,
83,Trial # 84,layer9-17_O11_to_T1.jpg,layer9-17/layer9-17_O11_to_T1.jpg,OT,layer9-17,0.0,83.0,83.0,83.0,,,,,,,,,765.4085841681808,None,2.0,1.689520631916821,765.4085841681808,None,765.4085841681808,None,765.4085841681808,None,1,2022_May_04_1839,Semantic-hierachy,2021.1.2,
84,Trial # 85,layer6-8_O5_to_T12.jpg,layer6-8/layer6-8_O5_to_T12.jpg,OT,layer6-8,0.0,84.0,84.0,84.0,,,,,,,,,767.4597430140711,None,3.0,2.854786502197385,767.4597430140711,None,767.4597430140711,None,767.4597430140711,None,1,2022_May_04_1839,Semantic-hierachy,2021.1.2,
85,Trial # 86,layer6-8_O4_to_O7.jpg,layer6-8/layer6-8_O4_to_O7.jpg,OO,layer6-8,0.0,85.0,85.0,85.0,,,,,,,,,771.1444934019819,None,3.0,6.894703818950802,771.1444934019819,None,771.1444934019819,None,771.1444934019819,None,1,2022_May_04_1839,Semantic-hierachy,2021.1.2,
86,Trial # 87,layer6-8_T10_to_T8.jpg,layer6-8/layer6-8_T10_to_T8.jpg,TT,layer6-8,0.0,86.0,86.0,86.0,,,,,,,,,778.4122047172859,None,2.0,1.9403562061488628,778.4122047172859,None,778.4122047172859,None,778.4122047172859,None,1,2022_May_04_1839,Semantic-hierachy,2021.1.2,
87,Trial # 88,layer6-8_O10_to_T3.jpg,layer6-8/layer6-8_O10_to_T3.jpg,OT,layer6-8,0.0,87.0,87.0,87.0,,,,,,,,,781.1634012791328,None,3.0,2.434570634271949,781.1634012791328,None,781.1634012791328,None,781.1634012791328,None,1,2022_May_04_1839,Semantic-hierachy,2021.1.2,
88,Trial # 89,layer6-8_O5_to_O9.jpg,layer6-8/layer6-8_O5_to_O9.jpg,OO,layer6-8,0.0,88.0,88.0,88.0,,,,,,,,,784.197062979918,None,4.0,4.954694093205035,784.197062979918,None,784.197062979918,None,784.197062979918,None,1,2022_May_04_1839,Semantic-hierachy,2021.1.2,
89,Trial # 90,layer6-8_O10_to_O11.jpg,layer6-8/layer6-8_O10_to_O11.jpg,OO,layer6-8,0.0,89.0,89.0,89.0,,,,,,,,,789.4654805059545,None,3.0,7.541883351281285,789.4654805059545,None,789.4654805059545,None,789.4654805059545,None,1,2022_May_04_1839,Semantic-hierachy,2021.1.2,
90,Trial # 91,layer0-5_O4_to_T5.jpg,layer0-5/layer0-5_O4_to_T5.jpg,OT,layer0-5,0.0,90.0,90.0,90.0,,,,,,,,,797.284560806118,None,1.0,2.171522546093911,797.284560806118,None,797.284560806118,None,797.284560806118,None,1,2022_May_04_1839,Semantic-hierachy,2021.1.2,
91,Trial # 92,layer0-5_T11_to_T12.jpg,layer0-5/layer0-5_T11_to_T12.jpg,TT,layer0-5,0.0,91.0,91.0,91.0,,,,,,,,,799.8858580309898,None,1.0,5.223388502839953,799.8858580309898,None,799.8858580309898,None,799.8858580309898,None,1,2022_May_04_1839,Semantic-hierachy,2021.1.2,
92,Trial # 93,layer0-5_T10_to_T3.jpg,layer0-5/layer0-5_T10_to_T3.jpg,TT,layer0-5,0.0,92.0,92.0,92.0,,,,,,,,,805.4716909271665,None,1.0,2.5265977438539267,805.4716909271665,None,805.4716909271665,None,805.4716909271665,None,1,2022_May_04_1839,Semantic-hierachy,2021.1.2,
93,Trial # 94,layer0-5_O2_to_O8.jpg,layer0-5/layer0-5_O2_to_O8.jpg,OO,layer0-5,0.0,93.0,93.0,93.0,,,,,,,,,808.3713753190823,None,1.0,2.726782348006964,808.3713753190823,None,808.3713753190823,None,808.3713753190823,None,1,2022_May_04_1839,Semantic-hierachy,2021.1.2,
94,Trial # 95,layer0-5_T3_to_T8.jpg,layer0-5/layer0-5_T3_to_T8.jpg,TT,layer0-5,0.0,94.0,94.0,94.0,,,,,,,,,811.472836474888,None,1.0,2.524364695884288,811.472836474888,None,811.472836474888,None,811.472836474888,None,1,2022_May_04_1839,Semantic-hierachy,2021.1.2,
95,Trial # 96,layer0-5_O7_to_O8.jpg,layer0-5/layer0-5_O7_to_O8.jpg,OO,layer0-5,0.0,95.0,95.0,95.0,,,,,,,,,814.8244186178781,None,1.0,10.230465221684426,814.8244186178781,None,814.8244186178781,None,814.8244186178781,None,1,2022_May_04_1839,Semantic-hierachy,2021.1.2,
96,Trial # 97,layer6-8_T10_to_T6.jpg,layer6-8/layer6-8_T10_to_T6.jpg,TT,layer6-8,0.0,96.0,96.0,96.0,,,,,,,,,826.4283864973113,None,2.0,4.304314552806318,826.4283864973113,None,826.4283864973113,None,826.4283864973113,None,1,2022_May_04_1839,Semantic-hierachy,2021.1.2,
97,Trial # 98,layer0-5_O1_to_O5.jpg,layer0-5/layer0-5_O1_to_O5.jpg,OO,layer0-5,0.0,97.0,97.0,97.0,,,,,,,,,831.3121029180475,None,1.0,2.6938661118038,831.3121029180475,None,831.3121029180475,None,831.3121029180475,None,1,2022_May_04_1839,Semantic-hierachy,2021.1.2,
98,Trial # 99,layer6-8_O1_to_O6.jpg,layer6-8/layer6-8_O1_to_O6.jpg,OO,layer6-8,0.0,98.0,98.0,98.0,,,,,,,,,834.4293654761277,None,2.0,16.13192538311705,834.4293654761277,None,834.4293654761277,None,834.4293654761277,None,1,2022_May_04_1839,Semantic-hierachy,2021.1.2,
99,Trial # 100,layer6-8_O3_to_T1.jpg,layer6-8/layer6-8_O3_to_T1.jpg,OT,layer6-8,0.0,99.0,99.0,99.0,,,,,,,,,850.9188729939051,None,3.0,2.0194193171337247,850.9188729939051,None,850.9188729939051,None,850.9188729939051,None,1,2022_May_04_1839,Semantic-hierachy,2021.1.2,
100,Trial # 101,layer6-8_T1_to_T9.jpg,layer6-8/layer6-8_T1_to_T9.jpg,TT,layer6-8,0.0,100.0,100.0,100.0,,,,,,,,,853.3521383441985,None,4.0,8.173829112201929,853.3521383441985,None,853.3521383441985,None,853.3521383441985,None,1,2022_May_04_1839,Semantic-hierachy,2021.1.2,
101,Trial # 102,layer9-17_O12_to_O6.jpg,layer9-17/layer9-17_O12_to_O6.jpg,OO,layer9-17,0.0,101.0,101.0,101.0,,,,,,,,,861.9885333529674,None,2.0,2.564943010918796,861.9885333529674,None,861.9885333529674,None,861.9885333529674,None,1,2022_May_04_1839,Semantic-hierachy,2021.1.2,
102,Trial # 103,layer0-5_T4_to_T9.jpg,layer0-5/layer0-5_T4_to_T9.jpg,TT,layer0-5,0.0,102.0,102.0,102.0,,,,,,,,,865.3740164749324,None,1.0,3.274719998240471,865.3740164749324,None,865.3740164749324,None,865.3740164749324,None,1,2022_May_04_1839,Semantic-hierachy,2021.1.2,
103,Trial # 104,layer6-8_O10_to_T1.jpg,layer6-8/layer6-8_O10_to_T1.jpg,OT,layer6-8,0.0,103.0,103.0,103.0,,,,,,,,,869.0903522772714,None,3.0,4.786251300945878,869.0903522772714,None,869.0903522772714,None,869.0903522772714,None,1,2022_May_04_1839,Semantic-hierachy,2021.1.2,
104,Trial # 105,layer0-5_O6_to_T2.jpg,layer0-5/layer0-5_O6_to_T2.jpg,OT,layer0-5,0.0,104.0,104.0,104.0,,,,,,,,,874.2257834291086,None,1.0,3.12421637121588,874.2257834291086,None,874.2257834291086,None,874.2257834291086,None,1,2022_May_04_1839,Semantic-hierachy,2021.1.2,
105,Trial # 106,layer9-17_T11_to_T2.jpg,layer9-17/layer9-17_T11_to_T2.jpg,TT,layer9-17,0.0,105.0,105.0,105.0,,,,,,,,,879.1267354390584,None,2.0,1.826135106850416,879.1267354390584,None,879.1267354390584,None,879.1267354390584,None,1,2022_May_04_1839,Semantic-hierachy,2021.1.2,
106,Trial # 107,layer9-17_O12_to_O8.jpg,layer9-17/layer9-17_O12_to_O8.jpg,OO,layer9-17,0.0,106.0,106.0,106.0,,,,,,,,,881.2621104782447,None,2.0,4.039168641902506,881.2621104782447,None,881.2621104782447,None,881.2621104782447,None,1,2022_May_04_1839,Semantic-hierachy,2021.1.2,
107,Trial # 108,layer0-5_T12_to_T3.jpg,layer0-5/layer0-5_T12_to_T3.jpg,TT,layer0-5,0.0,107.0,107.0,107.0,,,,,,,,,888.179478246253,None,1.0,9.307849287986755,888.179478246253,None,888.179478246253,None,888.179478246253,None,1,2022_May_04_1839,Semantic-hierachy,2021.1.2,
108,Trial # 109,layer0-5_T1_to_T10.jpg,layer0-5/layer0-5_T1_to_T10.jpg,TT,layer0-5,0.0,108.0,108.0,108.0,,,,,,,,,899.3827393171377,None,1.0,1.8350862441584468,899.3827393171377,None,899.3827393171377,None,899.3827393171377,None,1,2022_May_04_1839,Semantic-hierachy,2021.1.2,
109,Trial # 110,layer6-8_O4_to_T5.jpg,layer6-8/layer6-8_O4_to_T5.jpg,OT,layer6-8,0.0,109.0,109.0,109.0,,,,,,,,,901.6010763971136,None,3.0,3.1846685288473964,901.6010763971136,None,901.6010763971136,None,901.6010763971136,None,1,2022_May_04_1839,Semantic-hierachy,2021.1.2,
110,Trial # 111,layer9-17_O11_to_O7.jpg,layer9-17/layer9-17_O11_to_O7.jpg,OO,layer9-17,0.0,110.0,110.0,110.0,,,,,,,,,905.3355255271308,None,2.0,4.741188683081418,905.3355255271308,None,905.3355255271308,None,905.3355255271308,None,1,2022_May_04_1839,Semantic-hierachy,2021.1.2,
111,Trial # 112,layer0-5_O5_to_O8.jpg,layer0-5/layer0-5_O5_to_O8.jpg,OO,layer0-5,0.0,111.0,111.0,111.0,,,,,,,,,910.4699470619672,None,1.0,3.675446751061827,910.4699470619672,None,910.4699470619672,None,910.4699470619672,None,1,2022_May_04_1839,Semantic-hierachy,2021.1.2,
112,Trial # 113,layer0-5_O10_to_O4.jpg,layer0-5/layer0-5_O10_to_O4.jpg,OO,layer0-5,0.0,112.0,112.0,112.0,,,,,,,,,914.4210871080868,None,1.0,5.154274999629706,914.4210871080868,None,914.4210871080868,None,914.4210871080868,None,1,2022_May_04_1839,Semantic-hierachy,2021.1.2,
113,Trial # 114,layer9-17_O4_to_O8.jpg,layer9-17/layer9-17_O4_to_O8.jpg,OO,layer9-17,0.0,113.0,113.0,113.0,,,,,,,,,919.9407836529426,None,3.0,4.40653135208413,919.9407836529426,None,919.9407836529426,None,919.9407836529426,None,1,2022_May_04_1839,Semantic-hierachy,2021.1.2,
114,Trial # 115,layer0-5_O2_to_T8.jpg,layer0-5/layer0-5_O2_to_T8.jpg,OT,layer0-5,0.0,114.0,114.0,114.0,,,,,,,,,924.7247699359432,None,1.0,3.570406911894679,924.7247699359432,None,924.7247699359432,None,924.7247699359432,None,1,2022_May_04_1839,Semantic-hierachy,2021.1.2,
115,Trial # 116,layer9-17_T2_to_T3.jpg,layer9-17/layer9-17_T2_to_T3.jpg,TT,layer9-17,0.0,115.0,115.0,115.0,,,,,,,,,928.7923077191226,None,2.0,1.6675793612375855,928.7923077191226,None,928.7923077191226,None,928.7923077191226,None,1,2022_May_04_1839,Semantic-hierachy,2021.1.2,
116,Trial # 117,layer6-8_O1_to_T10.jpg,layer6-8/layer6-8_O1_to_T10.jpg,OT,layer6-8,0.0,116.0,116.0,116.0,,,,,,,,,931.1104243239388,None,3.0,2.571019269991666,931.1104243239388,None,931.1104243239388,None,931.1104243239388,None,1,2022_May_04_1839,Semantic-hierachy,2021.1.2,
117,Trial # 118,layer0-5_T3_to_T7.jpg,layer0-5/layer0-5_T3_to_T7.jpg,TT,layer0-5,0.0,117.0,117.0,117.0,,,,,,,,,934.109822546132,None,1.0,2.1801226530224085,934.109822546132,None,934.109822546132,None,934.109822546132,None,1,2022_May_04_1839,Semantic-hierachy,2021.1.2,
118,Trial # 119,layer9-17_O1_to_O12.jpg,layer9-17/layer9-17_O1_to_O12.jpg,OO,layer9-17,0.0,118.0,118.0,118.0,,,,,,,,,936.6615679240786,None,2.0,2.7576763331890106,936.6615679240786,None,936.6615679240786,None,936.6615679240786,None,1,2022_May_04_1839,Semantic-hierachy,2021.1.2,
119,Trial # 120,layer6-8_O12_to_O2.jpg,layer6-8/layer6-8_O12_to_O2.jpg,OO,layer6-8,0.0,119.0,119.0,119.0,,,,,,,,,940.5791509388946,None,3.0,5.995546157006174,940.5791509388946,None,940.5791509388946,None,940.5791509388946,None,1,2022_May_04_1839,Semantic-hierachy,2021.1.2,
120,Trial # 121,layer9-17_O10_to_O9.jpg,layer9-17/layer9-17_O10_to_O9.jpg,OO,layer9-17,0.0,120.0,120.0,120.0,,,,,,,,,946.864413060248,None,2.0,1.8197139650583267,946.864413060248,None,946.864413060248,None,946.864413060248,None,1,2022_May_04_1839,Semantic-hierachy,2021.1.2,
121,Trial # 122,layer6-8_O4_to_T10.jpg,layer6-8/layer6-8_O4_to_T10.jpg,OT,layer6-8,0.0,121.0,121.0,121.0,,,,,,,,,949.0314742992632,None,3.0,6.604611887130886,949.0314742992632,None,949.0314742992632,None,949.0314742992632,None,1,2022_May_04_1839,Semantic-hierachy,2021.1.2,
122,Trial # 123,layer6-8_O2_to_T3.jpg,layer6-8/layer6-8_O2_to_T3.jpg,OT,layer6-8,0.0,122.0,122.0,122.0,,,,,,,,,956.0512702031992,None,3.0,4.158283753786236,956.0512702031992,None,956.0512702031992,None,956.0512702031992,None,1,2022_May_04_1839,Semantic-hierachy,2021.1.2,
123,Trial # 124,layer0-5_O1_to_O7.jpg,layer0-5/layer0-5_O1_to_O7.jpg,OO,layer0-5,0.0,123.0,123.0,123.0,,,,,,,,,961.152047758922,None,1.0,1.751063672825694,961.152047758922,None,961.152047758922,None,961.152047758922,None,1,2022_May_04_1839,Semantic-hierachy,2021.1.2,
124,Trial # 125,layer0-5_T8_to_T9.jpg,layer0-5/layer0-5_T8_to_T9.jpg,TT,layer0-5,0.0,124.0,124.0,124.0,,,,,,,,,963.4363850769588,None,1.0,11.757860663812608,963.4363850769588,None,963.4363850769588,None,963.4363850769588,None,1,2022_May_04_1839,Semantic-hierachy,2021.1.2,
125,Trial # 126,layer0-5_O12_to_T8.jpg,layer0-5/layer0-5_O12_to_T8.jpg,OT,layer0-5,0.0,125.0,125.0,125.0,,,,,,,,,975.5078710131348,None,1.0,1.5749713988043368,975.5078710131348,None,975.5078710131348,None,975.5078710131348,None,1,2022_May_04_1839,Semantic-hierachy,2021.1.2,
126,Trial # 127,layer9-17_O4_to_O6.jpg,layer9-17/layer9-17_O4_to_O6.jpg,OO,layer9-17,0.0,126.0,126.0,126.0,,,,,,,,,977.7572888052092,None,3.0,3.157552261836827,977.7572888052092,None,977.7572888052092,None,977.7572888052092,None,1,2022_May_04_1839,Semantic-hierachy,2021.1.2,
127,Trial # 128,layer6-8_O12_to_O6.jpg,layer6-8/layer6-8_O12_to_O6.jpg,OO,layer6-8,0.0,127.0,127.0,127.0,,,,,,,,,981.659416268114,None,3.0,2.7373463148251176,981.659416268114,None,981.659416268114,None,981.659416268114,None,1,2022_May_04_1839,Semantic-hierachy,2021.1.2,
128,Trial # 129,layer0-5_T4_to_T6.jpg,layer0-5/layer0-5_T4_to_T6.jpg,TT,layer0-5,0.0,128.0,128.0,128.0,,,,,,,,,984.8101835921408,None,1.0,2.0905412640422583,984.8101835921408,None,984.8101835921408,None,984.8101835921408,None,1,2022_May_04_1839,Semantic-hierachy,2021.1.2,
129,Trial # 130,layer9-17_O1_to_O3.jpg,layer9-17/layer9-17_O1_to_O3.jpg,OO,layer9-17,0.0,129.0,129.0,129.0,,,,,,,,,987.2934938073158,None,2.0,1.647385384887457,987.2934938073158,None,987.2934938073158,None,987.2934938073158,None,1,2022_May_04_1839,Semantic-hierachy,2021.1.2,
130,Trial # 131,layer9-17_O10_to_O3.jpg,layer9-17/layer9-17_O10_to_O3.jpg,OO,layer9-17,0.0,130.0,130.0,130.0,,,,,,,,,989.5940702292136,None,2.0,1.9718992840498688,989.5940702292136,None,989.5940702292136,None,989.5940702292136,None,1,2022_May_04_1839,Semantic-hierachy,2021.1.2,
131,Trial # 132,layer9-17_O12_to_O3.jpg,layer9-17/layer9-17_O12_to_O3.jpg,OO,layer9-17,0.0,131.0,131.0,131.0,,,,,,,,,991.9116845810786,None,2.0,1.7887416249141097,991.9116845810786,None,991.9116845810786,None,991.9116845810786,None,1,2022_May_04_1839,Semantic-hierachy,2021.1.2,
132,Trial # 133,layer9-17_O11_to_O4.jpg,layer9-17/layer9-17_O11_to_O4.jpg,OO,layer9-17,0.0,132.0,132.0,132.0,,,,,,,,,996.4972005342132,None,4.0,4.746050923597068,996.4972005342132,None,996.4972005342132,None,996.4972005342132,None,1,2022_May_04_1839,Semantic-hierachy,2021.1.2,
133,Trial # 134,layer9-17_T4_to_T7.jpg,layer9-17/layer9-17_T4_to_T7.jpg,TT,layer9-17,0.0,133.0,133.0,133.0,,,,,,,,,1002.2312273462304,None,2.0,2.977419179864228,1002.2312273462304,None,1002.2312273462304,None,1002.2312273462304,None,1,2022_May_04_1839,Semantic-hierachy,2021.1.2,
134,Trial # 135,layer9-17_O1_to_T1.jpg,layer9-17/layer9-17_O1_to_T1.jpg,OT,layer9-17,0.0,134.0,134.0,134.0,,,,,,,,,1005.666825115215,None,2.0,2.701066832058132,1005.666825115215,None,1005.666825115215,None,1005.666825115215,None,1,2022_May_04_1839,Semantic-hierachy,2021.1.2,
135,Trial # 136,layer6-8_T2_to_T5.jpg,layer6-8/layer6-8_T2_to_T5.jpg,TT,layer6-8,0.0,135.0,135.0,135.0,,,,,,,,,1008.7169757420196,None,3.0,10.77928563999012,1008.7169757420196,None,1008.7169757420196,None,1008.7169757420196,None,1,2022_May_04_1839,Semantic-hierachy,2021.1.2,
136,Trial # 137,layer9-17_T11_to_T7.jpg,layer9-17/layer9-17_T11_to_T7.jpg,TT,layer9-17,0.0,136.0,136.0,136.0,,,,,,,,,1020.154169068206,None,2.0,1.8628903632052245,1020.154169068206,None,1020.154169068206,None,1020.154169068206,None,1,2022_May_04_1839,Semantic-hierachy,2021.1.2,
137,Trial # 138,layer6-8_O3_to_O8.jpg,layer6-8/layer6-8_O3_to_O8.jpg,OO,layer6-8,0.0,137.0,137.0,137.0,,,,,,,,,1023.2709483271464,None,3.0,22.52646518824622,1023.2709483271464,None,1023.2709483271464,None,1023.2709483271464,None,1,2022_May_04_1839,Semantic-hierachy,2021.1.2,
138,Trial # 139,layer6-8_O1_to_T7.jpg,layer6-8/layer6-8_O1_to_T7.jpg,OT,layer6-8,0.0,138.0,138.0,138.0,,,,,,,,,1047.562204441987,None,3.0,2.235355590004474,1047.562204441987,None,1047.562204441987,None,1047.562204441987,None,1,2022_May_04_1839,Semantic-hierachy,2021.1.2,
139,Trial # 140,layer9-17_T1_to_T3.jpg,layer9-17/layer9-17_T1_to_T3.jpg,TT,layer9-17,0.0,139.0,139.0,139.0,,,,,,,,,1050.180581631139,None,4.0,3.519791818689555,1050.180581631139,None,1050.180581631139,None,1050.180581631139,None,1,2022_May_04_1839,Semantic-hierachy,2021.1.2,
140,Trial # 141,layer6-8_O10_to_O12.jpg,layer6-8/layer6-8_O10_to_O12.jpg,OO,layer6-8,0.0,140.0,140.0,140.0,,,,,,,,,1054.5974651849829,None,4.0,4.7769610420800745,1054.5974651849829,None,1054.5974651849829,None,1054.5974651849829,None,1,2022_May_04_1839,Semantic-hierachy,2021.1.2,
141,Trial # 142,layer6-8_O12_to_T11.jpg,layer6-8/layer6-8_O12_to_T11.jpg,OT,layer6-8,0.0,141.0,141.0,141.0,,,,,,,,,1060.366494556889,None,4.0,17.666651979088783,1060.366494556889,None,1060.366494556889,None,1060.366494556889,None,1,2022_May_04_1839,Semantic-hierachy,2021.1.2,
142,Trial # 143,layer0-5_O11_to_O5.jpg,layer0-5/layer0-5_O11_to_O5.jpg,OO,layer0-5,0.0,142.0,142.0,142.0,,,,,,,,,1078.3716883081945,None,1.0,2.805580383166671,1078.3716883081945,None,1078.3716883081945,None,1078.3716883081945,None,1,2022_May_04_1839,Semantic-hierachy,2021.1.2,
143,Trial # 144,layer6-8_O1_to_O8.jpg,layer6-8/layer6-8_O1_to_O8.jpg,OO,layer6-8,0.0,143.0,143.0,143.0,,,,,,,,,1081.5571318971924,None,2.0,1.8254479779861867,1081.5571318971924,None,1081.5571318971924,None,1081.5571318971924,None,1,2022_May_04_1839,Semantic-hierachy,2021.1.2,
144,Trial # 145,layer0-5_T2_to_T5.jpg,layer0-5/layer0-5_T2_to_T5.jpg,TT,layer0-5,0.0,144.0,144.0,144.0,,,,,,,,,1085.3252688231878,None,1.0,2.205647353082896,1085.3252688231878,None,1085.3252688231878,None,1085.3252688231878,None,1,2022_May_04_1839,Semantic-hierachy,2021.1.2,
145,Trial # 146,layer9-17_O8_to_T3.jpg,layer9-17/layer9-17_O8_to_T3.jpg,OT,layer9-17,0.0,145.0,145.0,145.0,,,,,,,,,1087.891963666305,None,2.0,2.842616634909064,1087.891963666305,None,1087.891963666305,None,1087.891963666305,None,1,2022_May_04_1839,Semantic-hierachy,2021.1.2,
146,Trial # 147,layer9-17_O8_to_T4.jpg,layer9-17/layer9-17_O8_to_T4.jpg,OT,layer9-17,0.0,146.0,146.0,146.0,,,,,,,,,1091.0600117272695,None,4.0,3.1609263718128204,1091.0600117272695,None,1091.0600117272695,None,1091.0600117272695,None,1,2022_May_04_1839,Semantic-hierachy,2021.1.2,
147,Trial # 148,layer9-17_O4_to_T9.jpg,layer9-17/layer9-17_O4_to_T9.jpg,OT,layer9-17,0.0,147.0,147.0,147.0,,,,,,,,,1099.3779705599882,None,2.0,1.777202830184251,1099.3779705599882,None,1099.3779705599882,None,1099.3779705599882,None,1,2022_May_04_1839,Semantic-hierachy,2021.1.2,
148,Trial # 149,layer6-8_O4_to_O8.jpg,layer6-8/layer6-8_O4_to_O8.jpg,OO,layer6-8,0.0,148.0,148.0,148.0,,,,,,,,,1101.428639613092,None,3.0,3.3916110252030194,1101.428639613092,None,1101.428639613092,None,1101.428639613092,None,1,2022_May_04_1839,Semantic-hierachy,2021.1.2,
149,Trial # 150,layer0-5_O12_to_T7.jpg,layer0-5/layer0-5_O12_to_T7.jpg,OT,layer0-5,0.0,149.0,149.0,149.0,,,,,,,,,1107.814812333323,None,1.0,2.1934011559933424,1107.814812333323,None,1107.814812333323,None,1107.814812333323,None,1,2022_May_04_1839,Semantic-hierachy,2021.1.2,
150,Trial # 151,layer6-8_T1_to_T3.jpg,layer6-8/layer6-8_T1_to_T3.jpg,TT,layer6-8,,,,,0.0,0.0,0.0,0.0,,,,,1112.9656674070284,None,4.0,25.594861092045903,1112.9656674070284,None,1112.9656674070284,None,1112.9656674070284,None,1,2022_May_04_1839,Semantic-hierachy,2021.1.2,
151,Trial # 152,layer0-5_O8_to_O9.jpg,layer0-5/layer0-5_O8_to_O9.jpg,OO,layer0-5,,,,,0.0,1.0,1.0,1.0,,,,,1138.924112642184,None,1.0,2.3002524729818106,1138.924112642184,None,1138.924112642184,None,1138.924112642184,None,1,2022_May_04_1839,Semantic-hierachy,2021.1.2,
152,Trial # 153,layer9-17_T1_to_T5.jpg,layer9-17/layer9-17_T1_to_T5.jpg,TT,layer9-17,,,,,0.0,2.0,2.0,2.0,,,,,1144.25861402601,None,2.0,1.964796752203256,1144.25861402601,None,1144.25861402601,None,1144.25861402601,None,1,2022_May_04_1839,Semantic-hierachy,2021.1.2,
153,Trial # 154,layer6-8_T7_to_T9.jpg,layer6-8/layer6-8_T7_to_T9.jpg,TT,layer6-8,,,,,0.0,3.0,3.0,3.0,,,,,1146.5094931130295,None,2.0,10.493360008113086,1146.5094931130295,None,1146.5094931130295,None,1146.5094931130295,None,1,2022_May_04_1839,Semantic-hierachy,2021.1.2,
154,Trial # 155,layer9-17_T12_to_T7.jpg,layer9-17/layer9-17_T12_to_T7.jpg,TT,layer9-17,,,,,0.0,4.0,4.0,4.0,,,,,1157.4128073230386,None,2.0,1.911976593080908,1157.4128073230386,None,1157.4128073230386,None,1157.4128073230386,None,1,2022_May_04_1839,Semantic-hierachy,2021.1.2,
155,Trial # 156,layer0-5_O8_to_T11.jpg,layer0-5/layer0-5_O8_to_T11.jpg,OT,layer0-5,,,,,0.0,5.0,5.0,5.0,,,,,1159.546878694091,None,1.0,1.8199424361810088,1159.546878694091,None,1159.546878694091,None,1159.546878694091,None,1,2022_May_04_1839,Semantic-hierachy,2021.1.2,
156,Trial # 157,layer0-5_O1_to_O9.jpg,layer0-5/layer0-5_O1_to_O9.jpg,OO,layer0-5,,,,,0.0,6.0,6.0,6.0,,,,,1161.7973312241957,None,1.0,1.5203028228133917,1161.7973312241957,None,1161.7973312241957,None,1161.7973312241957,None,1,2022_May_04_1839,Semantic-hierachy,2021.1.2,
157,Trial # 158,layer0-5_O10_to_O12.jpg,layer0-5/layer0-5_O10_to_O12.jpg,OO,layer0-5,,,,,0.0,7.0,7.0,7.0,,,,,1163.6311315870844,None,1.0,1.7115211910568178,1163.6311315870844,None,1163.6311315870844,None,1163.6311315870844,None,1,2022_May_04_1839,Semantic-hierachy,2021.1.2,
158,Trial # 159,layer6-8_O10_to_T5.jpg,layer6-8/layer6-8_O10_to_T5.jpg,OT,layer6-8,,,,,0.0,8.0,8.0,8.0,,,,,1165.6830204832368,None,4.0,3.960836414713413,1165.6830204832368,None,1165.6830204832368,None,1165.6830204832368,None,1,2022_May_04_1839,Semantic-hierachy,2021.1.2,
159,Trial # 160,layer6-8_O5_to_O6.jpg,layer6-8/layer6-8_O5_to_O6.jpg,OO,layer6-8,,,,,0.0,9.0,9.0,9.0,,,,,1169.8337432392873,None,2.0,2.438039081171155,1169.8337432392873,None,1169.8337432392873,None,1169.8337432392873,None,1,2022_May_04_1839,Semantic-hierachy,2021.1.2,
160,Trial # 161,layer6-8_O6_to_T11.jpg,layer6-8/layer6-8_O6_to_T11.jpg,OT,layer6-8,,,,,0.0,10.0,10.0,10.0,,,,,1174.5675884583034,None,2.0,2.102927993051708,1174.5675884583034,None,1174.5675884583034,None,1174.5675884583034,None,1,2022_May_04_1839,Semantic-hierachy,2021.1.2,
161,Trial # 162,layer9-17_O12_to_O9.jpg,layer9-17/layer9-17_O12_to_O9.jpg,OO,layer9-17,,,,,0.0,11.0,11.0,11.0,,,,,1178.4522380293347,None,2.0,9.451110993977636,1178.4522380293347,None,1178.4522380293347,None,1178.4522380293347,None,1,2022_May_04_1839,Semantic-hierachy,2021.1.2,
162,Trial # 163,layer6-8_O12_to_T6.jpg,layer6-8/layer6-8_O12_to_T6.jpg,OT,layer6-8,,,,,0.0,12.0,12.0,12.0,,,,,1188.205227571074,None,4.0,5.195753380190581,1188.205227571074,None,1188.205227571074,None,1188.205227571074,None,1,2022_May_04_1839,Semantic-hierachy,2021.1.2,
163,Trial # 164,layer0-5_T11_to_T7.jpg,layer0-5/layer0-5_T11_to_T7.jpg,TT,layer0-5,,,,,0.0,13.0,13.0,13.0,,,,,1193.7401839313095,None,1.0,2.280728109646589,1193.7401839313095,None,1193.7401839313095,None,1193.7401839313095,None,1,2022_May_04_1839,Semantic-hierachy,2021.1.2,
164,Trial # 165,layer9-17_O10_to_T5.jpg,layer9-17/layer9-17_O10_to_T5.jpg,OT,layer9-17,,,,,0.0,14.0,14.0,14.0,,,,,1196.8086019488985,None,4.0,3.7580015808343887,1196.8086019488985,None,1196.8086019488985,None,1196.8086019488985,None,1,2022_May_04_1839,Semantic-hierachy,2021.1.2,
165,Trial # 166,layer9-17_T1_to_T6.jpg,layer9-17/layer9-17_T1_to_T6.jpg,TT,layer9-17,,,,,0.0,15.0,15.0,15.0,,,,,1200.7770760552958,None,2.0,2.031436467077583,1200.7770760552958,None,1200.7770760552958,None,1200.7770760552958,None,1,2022_May_04_1839,Semantic-hierachy,2021.1.2,
166,Trial # 167,layer0-5_T1_to_T3.jpg,layer0-5/layer0-5_T1_to_T3.jpg,TT,layer0-5,,,,,0.0,16.0,16.0,16.0,,,,,1204.510917102918,None,1.0,2.1117416392080486,1204.510917102918,None,1204.510917102918,None,1204.510917102918,None,1,2022_May_04_1839,Semantic-hierachy,2021.1.2,
167,Trial # 168,layer0-5_O2_to_O9.jpg,layer0-5/layer0-5_O2_to_O9.jpg,OO,layer0-5,,,,,0.0,17.0,17.0,17.0,,,,,1206.944700469263,None,1.0,1.5784461060538888,1206.944700469263,None,1206.944700469263,None,1206.944700469263,None,1,2022_May_04_1839,Semantic-hierachy,2021.1.2,
168,Trial # 169,layer9-17_O3_to_T4.jpg,layer9-17/layer9-17_O3_to_T4.jpg,OT,layer9-17,,,,,0.0,18.0,18.0,18.0,,,,,1208.8621114091948,None,2.0,1.9397175633348525,1208.8621114091948,None,1208.8621114091948,None,1208.8621114091948,None,1,2022_May_04_1839,Semantic-hierachy,2021.1.2,
169,Trial # 170,layer6-8_O11_to_O9.jpg,layer6-8/layer6-8_O11_to_O9.jpg,OO,layer6-8,,,,,0.0,19.0,19.0,19.0,,,,,1211.1642863769084,None,3.0,17.632619387004524,1211.1642863769084,None,1211.1642863769084,None,1211.1642863769084,None,1,2022_May_04_1839,Semantic-hierachy,2021.1.2,
170,Trial # 171,layer9-17_O1_to_O7.jpg,layer9-17/layer9-17_O1_to_O7.jpg,OO,layer9-17,,,,,0.0,20.0,20.0,20.0,,,,,1229.1850564521735,None,4.0,4.8598211938515306,1229.1850564521735,None,1229.1850564521735,None,1229.1850564521735,None,1,2022_May_04_1839,Semantic-hierachy,2021.1.2,
171,Trial # 172,layer0-5_T12_to_T4.jpg,layer0-5/layer0-5_T12_to_T4.jpg,TT,layer0-5,,,,,0.0,21.0,21.0,21.0,,,,,1234.7881169230675,None,1.0,1.9035221859812737,1234.7881169230675,None,1234.7881169230675,None,1234.7881169230675,None,1,2022_May_04_1839,Semantic-hierachy,2021.1.2,
172,Trial # 173,layer0-5_O4_to_T4.jpg,layer0-5/layer0-5_O4_to_T4.jpg,OT,layer0-5,,,,,0.0,22.0,22.0,22.0,,,,,1236.9039565930143,None,1.0,3.22867403132841,1236.9039565930143,None,1236.9039565930143,None,1236.9039565930143,None,1,2022_May_04_1839,Semantic-hierachy,2021.1.2,
173,Trial # 174,layer6-8_T12_to_T5.jpg,layer6-8/layer6-8_T12_to_T5.jpg,TT,layer6-8,,,,,0.0,23.0,23.0,23.0,,,,,1240.6559371971523,None,4.0,6.3340366198681295,1240.6559371971523,None,1240.6559371971523,None,1240.6559371971523,None,1,2022_May_04_1839,Semantic-hierachy,2021.1.2,
174,Trial # 175,layer6-8_O11_to_T1.jpg,layer6-8/layer6-8_O11_to_T1.jpg,OT,layer6-8,,,,,0.0,24.0,24.0,24.0,,,,,1247.440215758048,None,3.0,10.191868643276392,1247.440215758048,None,1247.440215758048,None,1247.440215758048,None,1,2022_May_04_1839,Semantic-hierachy,2021.1.2,
175,Trial # 176,layer0-5_O7_to_T8.jpg,layer0-5/layer0-5_O7_to_T8.jpg,OT,layer0-5,,,,,0.0,25.0,25.0,25.0,,,,,1258.0104806912132,None,1.0,2.0763536649756134,1258.0104806912132,None,1258.0104806912132,None,1258.0104806912132,None,1,2022_May_04_1839,Semantic-hierachy,2021.1.2,
176,Trial # 177,layer0-5_O11_to_T5.jpg,layer0-5/layer0-5_O11_to_T5.jpg,OT,layer0-5,,,,,0.0,26.0,26.0,26.0,,,,,1260.5783787802793,None,1.0,1.4287904272787273,1260.5783787802793,None,1260.5783787802793,None,1260.5783787802793,None,1,2022_May_04_1839,Semantic-hierachy,2021.1.2,
177,Trial # 178,layer9-17_O2_to_T2.jpg,layer9-17/layer9-17_O2_to_T2.jpg,OT,layer9-17,,,,,0.0,27.0,27.0,27.0,,,,,1262.511866634246,None,2.0,10.261000046040865,1262.511866634246,None,1262.511866634246,None,1262.511866634246,None,1,2022_May_04_1839,Semantic-hierachy,2021.1.2,
178,Trial # 179,layer0-5_O4_to_T9.jpg,layer0-5/layer0-5_O4_to_T9.jpg,OT,layer0-5,,,,,0.0,28.0,28.0,28.0,,,,,1273.0485212709757,None,1.0,3.743729871697724,1273.0485212709757,None,1273.0485212709757,None,1273.0485212709757,None,1,2022_May_04_1839,Semantic-hierachy,2021.1.2,
179,Trial # 180,layer9-17_T6_to_T8.jpg,layer9-17/layer9-17_T6_to_T8.jpg,TT,layer9-17,,,,,0.0,29.0,29.0,29.0,,,,,1277.3665253529325,None,2.0,2.26074044033885,1277.3665253529325,None,1277.3665253529325,None,1277.3665253529325,None,1,2022_May_04_1839,Semantic-hierachy,2021.1.2,
180,Trial # 181,layer9-17_O12_to_O5.jpg,layer9-17/layer9-17_O12_to_O5.jpg,OO,layer9-17,,,,,0.0,30.0,30.0,30.0,,,,,1280.3511623889208,None,2.0,1.978724379092455,1280.3511623889208,None,1280.3511623889208,None,1280.3511623889208,None,1,2022_May_04_1839,Semantic-hierachy,2021.1.2,
181,Trial # 182,layer6-8_O1_to_O7.jpg,layer6-8/layer6-8_O1_to_O7.jpg,OO,layer6-8,,,,,0.0,31.0,31.0,31.0,,,,,1282.9516548733227,None,2.0,3.975306026171893,1282.9516548733227,None,1282.9516548733227,None,1282.9516548733227,None,1,2022_May_04_1839,Semantic-hierachy,2021.1.2,
182,Trial # 183,layer6-8_O3_to_T10.jpg,layer6-8/layer6-8_O3_to_T10.jpg,OT,layer6-8,,,,,0.0,32.0,32.0,32.0,,,,,1289.7038359330036,None,3.0,2.8564697890542448,1289.7038359330036,None,1289.7038359330036,None,1289.7038359330036,None,1,2022_May_04_1839,Semantic-hierachy,2021.1.2,
183,Trial # 184,layer0-5_O1_to_T11.jpg,layer0-5/layer0-5_O1_to_T11.jpg,OT,layer0-5,,,,,0.0,33.0,33.0,33.0,,,,,1293.5556313502602,None,3.0,12.74983263015747,1293.5556313502602,None,1293.5556313502602,None,1293.5556313502602,None,1,2022_May_04_1839,Semantic-hierachy,2021.1.2,
184,Trial # 185,layer6-8_O8_to_O9.jpg,layer6-8/layer6-8_O8_to_O9.jpg,OO,layer6-8,,,,,0.0,34.0,34.0,34.0,,,,,1306.6924011199735,None,3.0,2.34126017196104,1306.6924011199735,None,1306.6924011199735,None,1306.6924011199735,None,1,2022_May_04_1839,Semantic-hierachy,2021.1.2,
185,Trial # 186,layer9-17_O4_to_O9.jpg,layer9-17/layer9-17_O4_to_O9.jpg,OO,layer9-17,,,,,0.0,35.0,35.0,35.0,,,,,1309.4264391129836,None,3.0,5.391665411181748,1309.4264391129836,None,1309.4264391129836,None,1309.4264391129836,None,1,2022_May_04_1839,Semantic-hierachy,2021.1.2,
186,Trial # 187,layer0-5_O12_to_O5.jpg,layer0-5/layer0-5_O12_to_O5.jpg,OO,layer0-5,,,,,0.0,36.0,36.0,36.0,,,,,1315.3616507849656,None,1.0,11.797234625089914,1315.3616507849656,None,1315.3616507849656,None,1315.3616507849656,None,1,2022_May_04_1839,Semantic-hierachy,2021.1.2,
187,Trial # 188,layer6-8_T12_to_T4.jpg,layer6-8/layer6-8_T12_to_T4.jpg,TT,layer6-8,,,,,0.0,37.0,37.0,37.0,,,,,1327.316286215093,None,2.0,8.079691635910422,1327.316286215093,None,1327.316286215093,None,1327.316286215093,None,1,2022_May_04_1839,Semantic-hierachy,2021.1.2,
188,Trial # 189,layer0-5_T6_to_T8.jpg,layer0-5/layer0-5_T6_to_T8.jpg,TT,layer0-5,,,,,0.0,38.0,38.0,38.0,,,,,1335.6354606342502,None,1.0,4.456674201413989,1335.6354606342502,None,1335.6354606342502,None,1335.6354606342502,None,1,2022_May_04_1839,Semantic-hierachy,2021.1.2,
189,Trial # 190,layer6-8_O11_to_T2.jpg,layer6-8/layer6-8_O11_to_T2.jpg,OT,layer6-8,,,,,0.0,39.0,39.0,39.0,,,,,1340.3037530579604,None,3.0,2.985294256825,1340.3037530579604,None,1340.3037530579604,None,1340.3037530579604,None,1,2022_May_04_1839,Semantic-hierachy,2021.1.2,
190,Trial # 191,layer6-8_O1_to_O3.jpg,layer6-8/layer6-8_O1_to_O3.jpg,OO,layer6-8,,,,,0.0,40.0,40.0,40.0,,,,,1345.855707607232,None,4.0,5.516340692061931,1345.855707607232,None,1345.855707607232,None,1345.855707607232,None,1,2022_May_04_1839,Semantic-hierachy,2021.1.2,
191,Trial # 192,layer0-5_O7_to_T1.jpg,layer0-5/layer0-5_O7_to_T1.jpg,OT,layer0-5,,,,,0.0,41.0,41.0,41.0,,,,,1351.7733770012856,None,1.0,2.0759743549861014,1351.7733770012856,None,1351.7733770012856,None,1351.7733770012856,None,1,2022_May_04_1839,Semantic-hierachy,2021.1.2,
192,Trial # 193,layer6-8_O3_to_T7.jpg,layer6-8/layer6-8_O3_to_T7.jpg,OT,layer6-8,,,,,0.0,42.0,42.0,42.0,,,,,1354.140822634101,None,3.0,8.935124812182039,1354.140822634101,None,1354.140822634101,None,1354.140822634101,None,1,2022_May_04_1839,Semantic-hierachy,2021.1.2,
193,Trial # 194,layer9-17_T10_to_T6.jpg,layer9-17/layer9-17_T10_to_T6.jpg,TT,layer9-17,,,,,0.0,43.0,43.0,43.0,,,,,1363.6101564490236,None,2.0,1.9271249142475424,1363.6101564490236,None,1363.6101564490236,None,1363.6101564490236,None,1,2022_May_04_1839,Semantic-hierachy,2021.1.2,
194,Trial # 195,layer6-8_T2_to_T9.jpg,layer6-8/layer6-8_T2_to_T9.jpg,TT,layer6-8,,,,,0.0,44.0,44.0,44.0,,,,,1366.3115812162869,None,3.0,16.67607846390456,1366.3115812162869,None,1366.3115812162869,None,1366.3115812162869,None,1,2022_May_04_1839,Semantic-hierachy,2021.1.2,
195,Trial # 196,layer0-5_O3_to_T3.jpg,layer0-5/layer0-5_O3_to_T3.jpg,OT,layer0-5,,,,,0.0,45.0,45.0,45.0,,,,,1385.6004012301564,None,1.0,1.5910002230666578,1385.6004012301564,None,1385.6004012301564,None,1385.6004012301564,None,1,2022_May_04_1839,Semantic-hierachy,2021.1.2,
196,Trial # 197,layer9-17_O1_to_O2.jpg,layer9-17/layer9-17_O1_to_O2.jpg,OO,layer9-17,,,,,0.0,46.0,46.0,46.0,,,,,1387.551023880951,None,4.0,8.377365970984101,1387.551023880951,None,1387.551023880951,None,1387.551023880951,None,1,2022_May_04_1839,Semantic-hierachy,2021.1.2,
197,Trial # 198,layer9-17_T2_to_T9.jpg,layer9-17/layer9-17_T2_to_T9.jpg,TT,layer9-17,,,,,0.0,47.0,47.0,47.0,,,,,1396.2034747642465,None,2.0,2.240484728012234,1396.2034747642465,None,1396.2034747642465,None,1396.2034747642465,None,1,2022_May_04_1839,Semantic-hierachy,2021.1.2,
198,Trial # 199,layer9-17_O6_to_T10.jpg,layer9-17/layer9-17_O6_to_T10.jpg,OT,layer9-17,,,,,0.0,48.0,48.0,48.0,,,,,1399.6875718371011,None,2.0,1.857863218057901,1399.6875718371011,None,1399.6875718371011,None,1399.6875718371011,None,1,2022_May_04_1839,Semantic-hierachy,2021.1.2,
199,Trial # 200,layer0-5_T12_to_T5.jpg,layer0-5/layer0-5_T12_to_T5.jpg,TT,layer0-5,,,,,0.0,49.0,49.0,49.0,,,,,1401.889208395034,None,1.0,1.730449897237122,1401.889208395034,None,1401.889208395034,None,1401.889208395034,None,1,2022_May_04_1839,Semantic-hierachy,2021.1.2,
200,Trial # 201,layer0-5_O10_to_T10.jpg,layer0-5/layer0-5_O10_to_T10.jpg,OT,layer0-5,,,,,0.0,50.0,50.0,50.0,,,,,1403.8892828742974,None,1.0,24.044346067123115,1403.8892828742974,None,1403.8892828742974,None,1403.8892828742974,None,1,2022_May_04_1839,Semantic-hierachy,2021.1.2,
201,Trial # 202,layer9-17_T11_to_T12.jpg,layer9-17/layer9-17_T11_to_T12.jpg,TT,layer9-17,,,,,0.0,51.0,51.0,51.0,,,,,1429.7132116053251,None,2.0,1.9249076126143336,1429.7132116053251,None,1429.7132116053251,None,1429.7132116053251,None,1,2022_May_04_1839,Semantic-hierachy,2021.1.2,
202,Trial # 203,layer6-8_T3_to_T5.jpg,layer6-8/layer6-8_T3_to_T5.jpg,TT,layer6-8,,,,,0.0,52.0,52.0,52.0,,,,,1432.4310788121074,None,2.0,2.0357032497413456,1432.4310788121074,None,1432.4310788121074,None,1432.4310788121074,None,1,2022_May_04_1839,Semantic-hierachy,2021.1.2,
203,Trial # 204,layer0-5_O5_to_T10.jpg,layer0-5/layer0-5_O5_to_T10.jpg,OT,layer0-5,,,,,0.0,53.0,53.0,53.0,,,,,1435.0997755131684,None,1.0,2.227646190207452,1435.0997755131684,None,1435.0997755131684,None,1435.0997755131684,None,1,2022_May_04_1839,Semantic-hierachy,2021.1.2,
204,Trial # 205,layer0-5_O10_to_O5.jpg,layer0-5/layer0-5_O10_to_O5.jpg,OO,layer0-5,,,,,0.0,54.0,54.0,54.0,,,,,1437.616977061145,None,1.0,4.264194563962519,1437.616977061145,None,1437.616977061145,None,1437.616977061145,None,1,2022_May_04_1839,Semantic-hierachy,2021.1.2,
205,Trial # 206,layer0-5_O5_to_O7.jpg,layer0-5/layer0-5_O5_to_O7.jpg,OO,layer0-5,,,,,0.0,55.0,55.0,55.0,,,,,1442.3185763149522,None,1.0,1.3421372398734093,1442.3185763149522,None,1442.3185763149522,None,1442.3185763149522,None,1,2022_May_04_1839,Semantic-hierachy,2021.1.2,
206,Trial # 207,layer0-5_O3_to_T10.jpg,layer0-5/layer0-5_O3_to_T10.jpg,OT,layer0-5,,,,,0.0,56.0,56.0,56.0,,,,,1443.9010750139132,None,1.0,3.692653425037861,1443.9010750139132,None,1443.9010750139132,None,1443.9010750139132,None,1,2022_May_04_1839,Semantic-hierachy,2021.1.2,
207,Trial # 208,layer0-5_O4_to_O5.jpg,layer0-5/layer0-5_O4_to_O5.jpg,OO,layer0-5,,,,,0.0,57.0,57.0,57.0,,,,,1448.236357929185,None,1.0,1.5217832839116454,1448.236357929185,None,1448.236357929185,None,1448.236357929185,None,1,2022_May_04_1839,Semantic-hierachy,2021.1.2,
208,Trial # 209,layer6-8_T12_to_T3.jpg,layer6-8/layer6-8_T12_to_T3.jpg,TT,layer6-8,,,,,0.0,58.0,58.0,58.0,,,,,1450.0382664059289,None,2.0,12.8680740990676,1450.0382664059289,None,1450.0382664059289,None,1450.0382664059289,None,1,2022_May_04_1839,Semantic-hierachy,2021.1.2,
209,Trial # 210,layer6-8_O7_to_T9.jpg,layer6-8/layer6-8_O7_to_T9.jpg,OT,layer6-8,,,,,0.0,59.0,59.0,59.0,,,,,1464.9084803662265,None,3.0,2.038734696805477,1464.9084803662265,None,1464.9084803662265,None,1464.9084803662265,None,1,2022_May_04_1839,Semantic-hierachy,2021.1.2,
210,Trial # 211,layer6-8_O1_to_O11.jpg,layer6-8/layer6-8_O1_to_O11.jpg,OO,layer6-8,,,,,0.0,60.0,60.0,60.0,,,,,1467.258785712067,None,2.0,2.4085465311072767,1467.258785712067,None,1467.258785712067,None,1467.258785712067,None,1,2022_May_04_1839,Semantic-hierachy,2021.1.2,
211,Trial # 212,layer6-8_T2_to_T6.jpg,layer6-8/layer6-8_T2_to_T6.jpg,TT,layer6-8,,,,,0.0,61.0,61.0,61.0,,,,,1470.143202312291,None,2.0,2.8049694779329,1470.143202312291,None,1470.143202312291,None,1470.143202312291,None,1,2022_May_04_1839,Semantic-hierachy,2021.1.2,
212,Trial # 213,layer6-8_O10_to_O6.jpg,layer6-8/layer6-8_O10_to_O6.jpg,OO,layer6-8,,,,,0.0,62.0,62.0,62.0,,,,,1473.477600574959,None,2.0,1.5766245811246336,1473.477600574959,None,1473.477600574959,None,1473.477600574959,None,1,2022_May_04_1839,Semantic-hierachy,2021.1.2,
213,Trial # 214,layer9-17_T5_to_T8.jpg,layer9-17/layer9-17_T5_to_T8.jpg,TT,layer9-17,,,,,0.0,63.0,63.0,63.0,,,,,1475.4282306092791,None,2.0,3.0728309503756464,1475.4282306092791,None,1475.4282306092791,None,1475.4282306092791,None,1,2022_May_04_1839,Semantic-hierachy,2021.1.2,
214,Trial # 215,layer9-17_O3_to_T10.jpg,layer9-17/layer9-17_O3_to_T10.jpg,OT,layer9-17,,,,,0.0,64.0,64.0,64.0,,,,,1478.7789186872542,None,2.0,1.8622420937754207,1478.7789186872542,None,1478.7789186872542,None,1478.7789186872542,None,1,2022_May_04_1839,Semantic-hierachy,2021.1.2,
215,Trial # 216,layer6-8_O12_to_O3.jpg,layer6-8/layer6-8_O12_to_O3.jpg,OO,layer6-8,,,,,0.0,65.0,65.0,65.0,,,,,1480.9140095040202,None,3.0,7.094632301013917,1480.9140095040202,None,1480.9140095040202,None,1480.9140095040202,None,1,2022_May_04_1839,Semantic-hierachy,2021.1.2,
216,Trial # 217,layer0-5_T10_to_T2.jpg,layer0-5/layer0-5_T10_to_T2.jpg,TT,layer0-5,,,,,0.0,66.0,66.0,66.0,,,,,1488.614674901124,None,1.0,3.0128951859660447,1488.614674901124,None,1488.614674901124,None,1488.614674901124,None,1,2022_May_04_1839,Semantic-hierachy,2021.1.2,
217,Trial # 218,layer9-17_O10_to_O6.jpg,layer9-17/layer9-17_O10_to_O6.jpg,OO,layer9-17,,,,,0.0,67.0,67.0,67.0,,,,,1491.9176287841983,None,3.0,3.4416781682521105,1491.9176287841983,None,1491.9176287841983,None,1491.9176287841983,None,1,2022_May_04_1839,Semantic-hierachy,2021.1.2,
218,Trial # 219,layer6-8_O6_to_O9.jpg,layer6-8/layer6-8_O6_to_O9.jpg,OO,layer6-8,,,,,0.0,68.0,68.0,68.0,,,,,1500.886469766032,None,3.0,2.023557730950415,1500.886469766032,None,1500.886469766032,None,1500.886469766032,None,1,2022_May_04_1839,Semantic-hierachy,2021.1.2,
219,Trial # 220,layer0-5_O7_to_T2.jpg,layer0-5/layer0-5_O7_to_T2.jpg,OT,layer0-5,,,,,0.0,69.0,69.0,69.0,,,,,1503.270312430337,None,1.0,4.032085977960378,1503.270312430337,None,1503.270312430337,None,1503.270312430337,None,1,2022_May_04_1839,Semantic-hierachy,2021.1.2,
220,Trial # 221,layer9-17_T12_to_T2.jpg,layer9-17/layer9-17_T12_to_T2.jpg,TT,layer9-17,,,,,0.0,70.0,70.0,70.0,,,,,1507.6211685519663,None,2.0,1.917948108166456,1507.6211685519663,None,1507.6211685519663,None,1507.6211685519663,None,1,2022_May_04_1839,Semantic-hierachy,2021.1.2,
221,Trial # 222,layer9-17_O8_to_T11.jpg,layer9-17/layer9-17_O8_to_T11.jpg,OT,layer9-17,,,,,0.0,71.0,71.0,71.0,,,,,1509.771873264108,None,4.0,3.512412142008543,1509.771873264108,None,1509.771873264108,None,1509.771873264108,None,1,2022_May_04_1839,Semantic-hierachy,2021.1.2,
222,Trial # 223,layer6-8_O3_to_T9.jpg,layer6-8/layer6-8_O3_to_T9.jpg,OT,layer6-8,,,,,0.0,72.0,72.0,72.0,,,,,1513.5730882631617,None,2.0,3.077595377340913,1513.5730882631617,None,1513.5730882631617,None,1513.5730882631617,None,1,2022_May_04_1839,Semantic-hierachy,2021.1.2,
223,Trial # 224,layer0-5_O6_to_O9.jpg,layer0-5/layer0-5_O6_to_O9.jpg,OO,layer0-5,,,,,0.0,73.0,73.0,73.0,,,,,1518.6413247110322,None,1.0,1.613778541330248,1518.6413247110322,None,1518.6413247110322,None,1518.6413247110322,None,1,2022_May_04_1839,Semantic-hierachy,2021.1.2,
224,Trial # 225,layer0-5_O12_to_T1.jpg,layer0-5/layer0-5_O12_to_T1.jpg,OT,layer0-5,,,,,0.0,74.0,74.0,74.0,,,,,1520.526580747217,None,1.0,1.5641856659203768,1520.526580747217,None,1520.526580747217,None,1520.526580747217,None,1,2022_May_04_1839,Semantic-hierachy,2021.1.2,
225,Trial # 226,layer9-17_O2_to_T8.jpg,layer9-17/layer9-17_O2_to_T8.jpg,OT,layer9-17,,,,,0.0,75.0,75.0,75.0,,,,,1522.3755984981544,None,2.0,1.9290194609202445,1522.3755984981544,None,1522.3755984981544,None,1522.3755984981544,None,1,2022_May_04_1839,Semantic-hierachy,2021.1.2,
226,Trial # 227,layer0-5_T4_to_T8.jpg,layer0-5/layer0-5_T4_to_T8.jpg,TT,layer0-5,,,,,0.0,76.0,76.0,76.0,,,,,1524.6429505031556,None,1.0,3.9405539417639375,1524.6429505031556,None,1524.6429505031556,None,1524.6429505031556,None,1,2022_May_04_1839,Semantic-hierachy,2021.1.2,
227,Trial # 228,layer9-17_O2_to_T1.jpg,layer9-17/layer9-17_O2_to_T1.jpg,OT,layer9-17,,,,,0.0,77.0,77.0,77.0,,,,,1528.8784076911395,None,2.0,1.7299879658967257,1528.8784076911395,None,1528.8784076911395,None,1528.8784076911395,None,1,2022_May_04_1839,Semantic-hierachy,2021.1.2,
228,Trial # 229,layer0-5_O11_to_O7.jpg,layer0-5/layer0-5_O11_to_O7.jpg,OO,layer0-5,,,,,0.0,78.0,78.0,78.0,,,,,1530.9127057339065,None,1.0,2.154304774943739,1530.9127057339065,None,1530.9127057339065,None,1530.9127057339065,None,1,2022_May_04_1839,Semantic-hierachy,2021.1.2,
229,Trial # 230,layer6-8_T2_to_T8.jpg,layer6-8/layer6-8_T2_to_T8.jpg,TT,layer6-8,,,,,0.0,79.0,79.0,79.0,,,,,1533.3123704292811,None,2.0,3.76503178011626,1533.3123704292811,None,1533.3123704292811,None,1533.3123704292811,None,1,2022_May_04_1839,Semantic-hierachy,2021.1.2,
230,Trial # 231,layer9-17_T4_to_T8.jpg,layer9-17/layer9-17_T4_to_T8.jpg,TT,layer9-17,,,,,0.0,80.0,80.0,80.0,,,,,1537.413458636962,None,2.0,1.6119913565926254,1537.413458636962,None,1537.413458636962,None,1537.413458636962,None,1,2022_May_04_1839,Semantic-hierachy,2021.1.2,
231,Trial # 232,layer9-17_T11_to_T3.jpg,layer9-17/layer9-17_T11_to_T3.jpg,TT,layer9-17,,,,,0.0,81.0,81.0,81.0,,,,,1539.4812633232214,None,2.0,1.7098286491818726,1539.4812633232214,None,1539.4812633232214,None,1539.4812633232214,None,1,2022_May_04_1839,Semantic-hierachy,2021.1.2,
232,Trial # 233,layer0-5_O3_to_T9.jpg,layer0-5/layer0-5_O3_to_T9.jpg,OT,layer0-5,,,,,0.0,82.0,82.0,82.0,,,,,1541.4661822533235,None,1.0,2.2052401807159185,1541.4661822533235,None,1541.4661822533235,None,1541.4661822533235,None,1,2022_May_04_1839,Semantic-hierachy,2021.1.2,
233,Trial # 234,layer9-17_T7_to_T8.jpg,layer9-17/layer9-17_T7_to_T8.jpg,TT,layer9-17,,,,,0.0,83.0,83.0,83.0,,,,,1544.1156945531256,None,2.0,8.694092037621886,1544.1156945531256,None,1544.1156945531256,None,1544.1156945531256,None,1,2022_May_04_1839,Semantic-hierachy,2021.1.2,
234,Trial # 235,layer9-17_O3_to_O4.jpg,layer9-17/layer9-17_O3_to_O4.jpg,OO,layer9-17,,,,,0.0,84.0,84.0,84.0,,,,,1553.2525797202252,None,2.0,1.3610333278775215,1553.2525797202252,None,1553.2525797202252,None,1553.2525797202252,None,1,2022_May_04_1839,Semantic-hierachy,2021.1.2,
235,Trial # 236,layer6-8_O8_to_T6.jpg,layer6-8/layer6-8_O8_to_T6.jpg,OT,layer6-8,,,,,0.0,85.0,85.0,85.0,,,,,1555.0207639699802,None,3.0,2.0625792499631643,1555.0207639699802,None,1555.0207639699802,None,1555.0207639699802,None,1,2022_May_04_1839,Semantic-hierachy,2021.1.2,
236,Trial # 237,layer9-17_T6_to_T7.jpg,layer9-17/layer9-17_T6_to_T7.jpg,TT,layer9-17,,,,,0.0,86.0,86.0,86.0,,,,,1557.4032994611189,None,2.0,1.7928600306622684,1557.4032994611189,None,1557.4032994611189,None,1557.4032994611189,None,1,2022_May_04_1839,Semantic-hierachy,2021.1.2,
237,Trial # 238,layer0-5_T2_to_T9.jpg,layer0-5/layer0-5_T2_to_T9.jpg,TT,layer0-5,,,,,0.0,87.0,87.0,87.0,,,,,1559.5211424962615,None,1.0,2.0962805380113423,1559.5211424962615,None,1559.5211424962615,None,1559.5211424962615,None,1,2022_May_04_1839,Semantic-hierachy,2021.1.2,
238,Trial # 239,layer0-5_O2_to_O5.jpg,layer0-5/layer0-5_O2_to_O5.jpg,OO,layer0-5,,,,,0.0,88.0,88.0,88.0,,,,,1561.9554131450132,None,1.0,1.792220739647746,1561.9554131450132,None,1561.9554131450132,None,1561.9554131450132,None,1,2022_May_04_1839,Semantic-hierachy,2021.1.2,
239,Trial # 240,layer6-8_O1_to_O5.jpg,layer6-8/layer6-8_O1_to_O5.jpg,OO,layer6-8,,,,,0.0,89.0,89.0,89.0,,,,,1564.07170775719,None,4.0,2.628744286019355,1564.07170775719,None,1564.07170775719,None,1564.07170775719,None,1,2022_May_04_1839,Semantic-hierachy,2021.1.2,
240,Trial # 241,layer9-17_O3_to_O7.jpg,layer9-17/layer9-17_O3_to_O7.jpg,OO,layer9-17,,,,,0.0,90.0,90.0,90.0,,,,,1567.056412161328,None,2.0,1.790777701884508,1567.056412161328,None,1567.056412161328,None,1567.056412161328,None,1,2022_May_04_1839,Semantic-hierachy,2021.1.2,
241,Trial # 242,layer6-8_O11_to_O8.jpg,layer6-8/layer6-8_O11_to_O8.jpg,OO,layer6-8,,,,,0.0,91.0,91.0,91.0,,,,,1569.223264551256,None,3.0,2.668443710077554,1569.223264551256,None,1569.223264551256,None,1569.223264551256,None,1,2022_May_04_1839,Semantic-hierachy,2021.1.2,
242,Trial # 243,layer9-17_T1_to_T12.jpg,layer9-17/layer9-17_T1_to_T12.jpg,TT,layer9-17,,,,,0.0,92.0,92.0,92.0,,,,,1578.1430437690578,None,2.0,1.8587585501372808,1578.1430437690578,None,1578.1430437690578,None,1578.1430437690578,None,1,2022_May_04_1839,Semantic-hierachy,2021.1.2,
243,Trial # 244,layer9-17_O6_to_O8.jpg,layer9-17/layer9-17_O6_to_O8.jpg,OO,layer9-17,,,,,0.0,93.0,93.0,93.0,,,,,1580.277260791045,None,4.0,3.258906472939998,1580.277260791045,None,1580.277260791045,None,1580.277260791045,None,1,2022_May_04_1839,Semantic-hierachy,2021.1.2,
244,Trial # 245,layer6-8_O4_to_T11.jpg,layer6-8/layer6-8_O4_to_T11.jpg,OT,layer6-8,,,,,0.0,94.0,94.0,94.0,,,,,1584.1951650162227,None,3.0,4.6922031356953084,1584.1951650162227,None,1584.1951650162227,None,1584.1951650162227,None,1,2022_May_04_1839,Semantic-hierachy,2021.1.2,
245,Trial # 246,layer9-17_T10_to_T3.jpg,layer9-17/layer9-17_T10_to_T3.jpg,TT,layer9-17,,,,,0.0,95.0,95.0,95.0,,,,,1589.52966634091,None,2.0,1.814143429975957,1589.52966634091,None,1589.52966634091,None,1589.52966634091,None,1,2022_May_04_1839,Semantic-hierachy,2021.1.2,
246,Trial # 247,layer0-5_O10_to_O8.jpg,layer0-5/layer0-5_O10_to_O8.jpg,OO,layer0-5,,,,,0.0,96.0,96.0,96.0,,,,,1591.9973090882413,None,1.0,1.9912880049087107,1591.9973090882413,None,1591.9973090882413,None,1591.9973090882413,None,1,2022_May_04_1839,Semantic-hierachy,2021.1.2,
247,Trial # 248,layer6-8_O3_to_T12.jpg,layer6-8/layer6-8_O3_to_T12.jpg,OT,layer6-8,,,,,0.0,97.0,97.0,97.0,,,,,1595.4660617071204,None,4.0,10.529859344940633,1595.4660617071204,None,1595.4660617071204,None,1595.4660617071204,None,1,2022_May_04_1839,Semantic-hierachy,2021.1.2,
248,Trial # 249,layer0-5_O12_to_T9.jpg,layer0-5/layer0-5_O12_to_T9.jpg,OT,layer0-5,,,,,0.0,98.0,98.0,98.0,,,,,1608.6192680392414,None,1.0,2.163047086913138,1608.6192680392414,None,1608.6192680392414,None,1608.6192680392414,None,1,2022_May_04_1839,Semantic-hierachy,2021.1.2,
249,Trial # 250,layer9-17_T1_to_T9.jpg,layer9-17/layer9-17_T1_to_T9.jpg,TT,layer9-17,,,,,0.0,99.0,99.0,99.0,,,,,1610.970808705315,None,4.0,3.1927741430699825,1610.970808705315,None,1610.970808705315,None,1610.970808705315,None,1,2022_May_04_1839,Semantic-hierachy,2021.1.2,
250,Trial # 251,layer9-17_T11_to_T8.jpg,layer9-17/layer9-17_T11_to_T8.jpg,TT,layer9-17,,,,,0.0,100.0,100.0,100.0,,,,,1614.7210342539474,None,2.0,1.626033327076584,1614.7210342539474,None,1614.7210342539474,None,1614.7210342539474,None,1,2022_May_04_1839,Semantic-hierachy,2021.1.2,
251,Trial # 252,layer9-17_T11_to_T5.jpg,layer9-17/layer9-17_T11_to_T5.jpg,TT,layer9-17,,,,,0.0,101.0,101.0,101.0,,,,,1616.6228312533349,None,3.0,10.43302487488836,1616.6228312533349,None,1616.6228312533349,None,1616.6228312533349,None,1,2022_May_04_1839,Semantic-hierachy,2021.1.2,
252,Trial # 253,layer6-8_T10_to_T12.jpg,layer6-8/layer6-8_T10_to_T12.jpg,TT,layer6-8,,,,,0.0,102.0,102.0,102.0,,,,,1627.2749448888935,None,4.0,4.00735657196492,1627.2749448888935,None,1627.2749448888935,None,1627.2749448888935,None,1,2022_May_04_1839,Semantic-hierachy,2021.1.2,
253,Trial # 254,layer9-17_O5_to_T1.jpg,layer9-17/layer9-17_O5_to_T1.jpg,OT,layer9-17,,,,,0.0,103.0,103.0,103.0,,,,,1631.676434343215,None,2.0,2.505923598073423,1631.676434343215,None,1631.676434343215,None,1631.676434343215,None,1,2022_May_04_1839,Semantic-hierachy,2021.1.2,
254,Trial # 255,layer6-8_T2_to_T3.jpg,layer6-8/layer6-8_T2_to_T3.jpg,TT,layer6-8,,,,,0.0,104.0,104.0,104.0,,,,,1634.8602466210723,None,3.0,2.302887873724103,1634.8602466210723,None,1634.8602466210723,None,1634.8602466210723,None,1,2022_May_04_1839,Semantic-hierachy,2021.1.2,
255,Trial # 256,layer6-8_O2_to_T6.jpg,layer6-8/layer6-8_O2_to_T6.jpg,OT,layer6-8,,,,,0.0,105.0,105.0,105.0,,,,,1637.5781426122412,None,3.0,2.774914473295212,1637.5781426122412,None,1637.5781426122412,None,1637.5781426122412,None,1,2022_May_04_1839,Semantic-hierachy,2021.1.2,
256,Trial # 257,layer6-8_T11_to_T9.jpg,layer6-8/layer6-8_T11_to_T9.jpg,TT,layer6-8,,,,,0.0,106.0,106.0,106.0,,,,,1640.730496129021,None,4.0,12.420291509944946,1640.730496129021,None,1640.730496129021,None,1640.730496129021,None,1,2022_May_04_1839,Semantic-hierachy,2021.1.2,
257,Trial # 258,layer6-8_O5_to_T9.jpg,layer6-8/layer6-8_O5_to_T9.jpg,OT,layer6-8,,,,,0.0,107.0,107.0,107.0,,,,,1653.3996936050244,None,3.0,3.4599612820893526,1653.3996936050244,None,1653.3996936050244,None,1653.3996936050244,None,1,2022_May_04_1839,Semantic-hierachy,2021.1.2,
258,Trial # 259,layer6-8_O9_to_T8.jpg,layer6-8/layer6-8_O9_to_T8.jpg,OT,layer6-8,,,,,0.0,108.0,108.0,108.0,,,,,1657.1345505989157,None,3.0,1.9102020687423649,1657.1345505989157,None,1657.1345505989157,None,1657.1345505989157,None,1,2022_May_04_1839,Semantic-hierachy,2021.1.2,
259,Trial # 260,layer6-8_T1_to_T5.jpg,layer6-8/layer6-8_T1_to_T5.jpg,TT,layer6-8,,,,,0.0,109.0,109.0,109.0,,,,,1659.3515021251517,None,4.0,4.039265354163945,1659.3515021251517,None,1659.3515021251517,None,1659.3515021251517,None,1,2022_May_04_1839,Semantic-hierachy,2021.1.2,
260,Trial # 261,layer0-5_O11_to_T2.jpg,layer0-5/layer0-5_O11_to_T2.jpg,OT,layer0-5,,,,,0.0,110.0,110.0,110.0,,,,,1663.8367000413127,None,1.0,2.985441382974386,1663.8367000413127,None,1663.8367000413127,None,1663.8367000413127,None,1,2022_May_04_1839,Semantic-hierachy,2021.1.2,
261,Trial # 262,layer0-5_O7_to_T4.jpg,layer0-5/layer0-5_O7_to_T4.jpg,OT,layer0-5,,,,,0.0,111.0,111.0,111.0,,,,,1667.420682308264,None,1.0,1.8383803670294585,1667.420682308264,None,1667.420682308264,None,1667.420682308264,None,1,2022_May_04_1839,Semantic-hierachy,2021.1.2,
262,Trial # 263,layer6-8_T12_to_T8.jpg,layer6-8/layer6-8_T12_to_T8.jpg,TT,layer6-8,,,,,0.0,112.0,112.0,112.0,,,,,1669.5046720462851,None,2.0,3.804336911998689,1669.5046720462851,None,1669.5046720462851,None,1669.5046720462851,None,1,2022_May_04_1839,Semantic-hierachy,2021.1.2,
263,Trial # 264,layer6-8_O4_to_O9.jpg,layer6-8/layer6-8_O4_to_O9.jpg,OO,layer6-8,,,,,0.0,113.0,113.0,113.0,,,,,1674.3724632160738,None,4.0,6.915686653926969,1674.3724632160738,None,1674.3724632160738,None,1674.3724632160738,None,1,2022_May_04_1839,Semantic-hierachy,2021.1.2,
264,Trial # 265,layer0-5_T1_to_T5.jpg,layer0-5/layer0-5_T1_to_T5.jpg,TT,layer0-5,,,,,0.0,114.0,114.0,114.0,,,,,1683.0921740159392,None,1.0,2.073385543189943,1683.0921740159392,None,1683.0921740159392,None,1683.0921740159392,None,1,2022_May_04_1839,Semantic-hierachy,2021.1.2,
265,Trial # 266,layer0-5_O12_to_O7.jpg,layer0-5/layer0-5_O12_to_O7.jpg,OO,layer0-5,,,,,0.0,115.0,115.0,115.0,,,,,1685.4764663749374,None,1.0,1.543402535840869,1685.4764663749374,None,1685.4764663749374,None,1685.4764663749374,None,1,2022_May_04_1839,Semantic-hierachy,2021.1.2,
266,Trial # 267,layer6-8_T8_to_T9.jpg,layer6-8/layer6-8_T8_to_T9.jpg,TT,layer6-8,,,,,0.0,116.0,116.0,116.0,,,,,1687.3268052539788,None,2.0,7.9258913253434,1687.3268052539788,None,1687.3268052539788,None,1687.3268052539788,None,1,2022_May_04_1839,Semantic-hierachy,2021.1.2,
267,Trial # 268,layer9-17_O11_to_T10.jpg,layer9-17/layer9-17_O11_to_T10.jpg,OT,layer9-17,,,,,0.0,117.0,117.0,117.0,,,,,1695.913735004142,None,2.0,2.368482169229537,1695.913735004142,None,1695.913735004142,None,1695.913735004142,None,1,2022_May_04_1839,Semantic-hierachy,2021.1.2,
268,Trial # 269,layer0-5_O8_to_T9.jpg,layer0-5/layer0-5_O8_to_T9.jpg,OT,layer0-5,,,,,0.0,118.0,118.0,118.0,,,,,1698.663787898142,None,1.0,2.077104947064072,1698.663787898142,None,1698.663787898142,None,1698.663787898142,None,1,2022_May_04_1839,Semantic-hierachy,2021.1.2,
269,Trial # 270,layer9-17_O10_to_O11.jpg,layer9-17/layer9-17_O10_to_O11.jpg,OO,layer9-17,,,,,0.0,119.0,119.0,119.0,,,,,1701.0154202613048,None,2.0,7.932471798732877,1701.0154202613048,None,1701.0154202613048,None,1701.0154202613048,None,1,2022_May_04_1839,Semantic-hierachy,2021.1.2,
270,Trial # 271,layer0-5_T1_to_T9.jpg,layer0-5/layer0-5_T1_to_T9.jpg,TT,layer0-5,,,,,0.0,120.0,120.0,120.0,,,,,1709.3000836870633,None,1.0,1.773293952923268,1709.3000836870633,None,1709.3000836870633,None,1709.3000836870633,None,1,2022_May_04_1839,Semantic-hierachy,2021.1.2,
271,Trial # 272,layer6-8_T11_to_T8.jpg,layer6-8/layer6-8_T11_to_T8.jpg,TT,layer6-8,,,,,0.0,121.0,121.0,121.0,,,,,1711.3522101482376,None,4.0,4.146897012367845,1711.3522101482376,None,1711.3522101482376,None,1711.3522101482376,None,1,2022_May_04_1839,Semantic-hierachy,2021.1.2,
272,Trial # 273,layer9-17_O10_to_O12.jpg,layer9-17/layer9-17_O10_to_O12.jpg,OO,layer9-17,,,,,0.0,122.0,122.0,122.0,,,,,1716.1363091040405,None,2.0,3.707123700994998,1716.1363091040405,None,1716.1363091040405,None,1716.1363091040405,None,1,2022_May_04_1839,Semantic-hierachy,2021.1.2,
273,Trial # 274,layer0-5_T12_to_T6.jpg,layer0-5/layer0-5_T12_to_T6.jpg,TT,layer0-5,,,,,0.0,123.0,123.0,123.0,,,,,1720.170456847176,None,1.0,2.1444483939558268,1720.170456847176,None,1720.170456847176,None,1720.170456847176,None,1,2022_May_04_1839,Semantic-hierachy,2021.1.2,
274,Trial # 275,layer9-17_O11_to_O5.jpg,layer9-17/layer9-17_O11_to_O5.jpg,OO,layer9-17,,,,,0.0,124.0,124.0,124.0,,,,,1723.17165306909,None,3.0,19.74445715174079,1723.17165306909,None,1723.17165306909,None,1723.17165306909,None,1,2022_May_04_1839,Semantic-hierachy,2021.1.2,
275,Trial # 276,layer9-17_O1_to_O4.jpg,layer9-17/layer9-17_O1_to_O4.jpg,OO,layer9-17,,,,,0.0,125.0,125.0,125.0,,,,,1743.794430786278,None,2.0,5.269327621906996,1743.794430786278,None,1743.794430786278,None,1743.794430786278,None,1,2022_May_04_1839,Semantic-hierachy,2021.1.2,
276,Trial # 277,layer6-8_O11_to_O3.jpg,layer6-8/layer6-8_O11_to_O3.jpg,OO,layer6-8,,,,,0.0,126.0,126.0,126.0,,,,,1749.312393445056,None,2.0,6.733419954311103,1749.312393445056,None,1749.312393445056,None,1749.312393445056,None,1,2022_May_04_1839,Semantic-hierachy,2021.1.2,
277,Trial # 278,layer6-8_T10_to_T11.jpg,layer6-8/layer6-8_T10_to_T11.jpg,TT,layer6-8,,,,,0.0,127.0,127.0,127.0,,,,,1757.6485821721144,None,2.0,15.646221722941846,1757.6485821721144,None,1757.6485821721144,None,1757.6485821721144,None,1,2022_May_04_1839,Semantic-hierachy,2021.1.2,
278,Trial # 279,layer0-5_O7_to_T3.jpg,layer0-5/layer0-5_O7_to_T3.jpg,OT,layer0-5,,,,,0.0,128.0,128.0,128.0,,,,,1773.6200250228867,None,1.0,1.5772576783783734,1773.6200250228867,None,1773.6200250228867,None,1773.6200250228867,None,1,2022_May_04_1839,Semantic-hierachy,2021.1.2,
279,Trial # 280,layer9-17_T1_to_T10.jpg,layer9-17/layer9-17_T1_to_T10.jpg,TT,layer9-17,,,,,0.0,129.0,129.0,129.0,,,,,1775.3716539810412,None,2.0,2.8903010082431138,1775.3716539810412,None,1775.3716539810412,None,1775.3716539810412,None,1,2022_May_04_1839,Semantic-hierachy,2021.1.2,
280,Trial # 281,layer9-17_O6_to_T7.jpg,layer9-17/layer9-17_O6_to_T7.jpg,OT,layer9-17,,,,,0.0,130.0,130.0,130.0,,,,,1778.5388502879068,None,2.0,1.425178486853838,1778.5388502879068,None,1778.5388502879068,None,1778.5388502879068,None,1,2022_May_04_1839,Semantic-hierachy,2021.1.2,
281,Trial # 282,layer0-5_O10_to_O7.jpg,layer0-5/layer0-5_O10_to_O7.jpg,OO,layer0-5,,,,,0.0,131.0,131.0,131.0,,,,,1780.1569211310707,None,1.0,2.7249122839421034,1780.1569211310707,None,1780.1569211310707,None,1780.1569211310707,None,1,2022_May_04_1839,Semantic-hierachy,2021.1.2,
282,Trial # 283,layer0-5_O1_to_O11.jpg,layer0-5/layer0-5_O1_to_O11.jpg,OO,layer0-5,,,,,0.0,132.0,132.0,132.0,,,,,1783.0394813739697,None,1.0,1.6940339640714228,1783.0394813739697,None,1783.0394813739697,None,1783.0394813739697,None,1,2022_May_04_1839,Semantic-hierachy,2021.1.2,
283,Trial # 284,layer6-8_O7_to_O8.jpg,layer6-8/layer6-8_O7_to_O8.jpg,OO,layer6-8,,,,,0.0,133.0,133.0,133.0,,,,,1785.0071825468913,None,2.0,1.6399094020016491,1785.0071825468913,None,1785.0071825468913,None,1785.0071825468913,None,1,2022_May_04_1839,Semantic-hierachy,2021.1.2,
284,Trial # 285,layer0-5_T7_to_T8.jpg,layer0-5/layer0-5_T7_to_T8.jpg,TT,layer0-5,,,,,0.0,134.0,134.0,134.0,,,,,1786.8748780069873,None,1.0,1.690784614067525,1786.8748780069873,None,1786.8748780069873,None,1786.8748780069873,None,1,2022_May_04_1839,Semantic-hierachy,2021.1.2,
285,Trial # 286,layer9-17_T11_to_T6.jpg,layer9-17/layer9-17_T11_to_T6.jpg,TT,layer9-17,,,,,0.0,135.0,135.0,135.0,,,,,1788.7750634392723,None,3.0,3.7031302549876273,1788.7750634392723,None,1788.7750634392723,None,1788.7750634392723,None,1,2022_May_04_1839,Semantic-hierachy,2021.1.2,
286,Trial # 287,layer0-5_T2_to_T7.jpg,layer0-5/layer0-5_T2_to_T7.jpg,TT,layer0-5,,,,,0.0,136.0,136.0,136.0,,,,,1792.792786675971,None,1.0,1.93865525117144,1792.792786675971,None,1792.792786675971,None,1792.792786675971,None,1,2022_May_04_1839,Semantic-hierachy,2021.1.2,
287,Trial # 288,layer9-17_O10_to_O2.jpg,layer9-17/layer9-17_O10_to_O2.jpg,OO,layer9-17,,,,,0.0,137.0,137.0,137.0,,,,,1794.9431333122775,None,2.0,1.624437129124999,1794.9431333122775,None,1794.9431333122775,None,1794.9431333122775,None,1,2022_May_04_1839,Semantic-hierachy,2021.1.2,
288,Trial # 289,layer0-5_T10_to_T9.jpg,layer0-5/layer0-5_T10_to_T9.jpg,TT,layer0-5,,,,,0.0,138.0,138.0,138.0,,,,,1796.795350718312,None,1.0,2.107649862766266,1796.795350718312,None,1796.795350718312,None,1796.795350718312,None,1,2022_May_04_1839,Semantic-hierachy,2021.1.2,
289,Trial # 290,layer6-8_O11_to_O5.jpg,layer6-8/layer6-8_O11_to_O5.jpg,OO,layer6-8,,,,,0.0,139.0,139.0,139.0,,,,,1799.144706138875,None,2.0,3.340408646967262,1799.144706138875,None,1799.144706138875,None,1799.144706138875,None,1,2022_May_04_1839,Semantic-hierachy,2021.1.2,
290,Trial # 291,layer6-8_O3_to_O7.jpg,layer6-8/layer6-8_O3_to_O7.jpg,OO,layer6-8,,,,,0.0,140.0,140.0,140.0,,,,,1802.845578318928,None,4.0,5.66140695521608,1802.845578318928,None,1802.845578318928,None,1802.845578318928,None,1,2022_May_04_1839,Semantic-hierachy,2021.1.2,
291,Trial # 292,layer9-17_O12_to_T11.jpg,layer9-17/layer9-17_O12_to_T11.jpg,OT,layer9-17,,,,,0.0,141.0,141.0,141.0,,,,,1808.814138842281,None,2.0,2.125559862237424,1808.814138842281,None,1808.814138842281,None,1808.814138842281,None,1,2022_May_04_1839,Semantic-hierachy,2021.1.2,
292,Trial # 293,layer9-17_O2_to_O4.jpg,layer9-17/layer9-17_O2_to_O4.jpg,OO,layer9-17,,,,,0.0,142.0,142.0,142.0,,,,,1811.8329808781853,None,4.0,6.426759893074632,1811.8329808781853,None,1811.8329808781853,None,1811.8329808781853,None,1,2022_May_04_1839,Semantic-hierachy,2021.1.2,
293,Trial # 294,layer6-8_O1_to_T12.jpg,layer6-8/layer6-8_O1_to_T12.jpg,OT,layer6-8,,,,,0.0,143.0,143.0,143.0,,,,,1818.4337714272551,None,3.0,1.7429743399843574,1818.4337714272551,None,1818.4337714272551,None,1818.4337714272551,None,1,2022_May_04_1839,Semantic-hierachy,2021.1.2,
294,Trial # 295,layer9-17_O11_to_T5.jpg,layer9-17/layer9-17_O11_to_T5.jpg,OT,layer9-17,,,,,0.0,144.0,144.0,144.0,,,,,1820.4016883671284,None,3.0,1.827777890022844,1820.4016883671284,None,1820.4016883671284,None,1820.4016883671284,None,1,2022_May_04_1839,Semantic-hierachy,2021.1.2,
295,Trial # 296,layer0-5_O10_to_O9.jpg,layer0-5/layer0-5_O10_to_O9.jpg,OO,layer0-5,,,,,0.0,145.0,145.0,145.0,,,,,1822.368958746083,None,1.0,1.5657029086723924,1822.368958746083,None,1822.368958746083,None,1822.368958746083,None,1,2022_May_04_1839,Semantic-hierachy,2021.1.2,
296,Trial # 297,layer6-8_O12_to_T10.jpg,layer6-8/layer6-8_O12_to_T10.jpg,OT,layer6-8,,,,,0.0,146.0,146.0,146.0,,,,,1824.1022605663163,None,3.0,7.573593228124082,1824.1022605663163,None,1824.1022605663163,None,1824.1022605663163,None,1,2022_May_04_1839,Semantic-hierachy,2021.1.2,
297,Trial # 298,layer6-8_O3_to_T2.jpg,layer6-8/layer6-8_O3_to_T2.jpg,OT,layer6-8,,,,,0.0,147.0,147.0,147.0,,,,,1832.1725314459763,None,3.0,1.857461843173951,1832.1725314459763,None,1832.1725314459763,None,1832.1725314459763,None,1,2022_May_04_1839,Semantic-hierachy,2021.1.2,
298,Trial # 299,layer9-17_O2_to_T5.jpg,layer9-17/layer9-17_O2_to_T5.jpg,OT,layer9-17,,,,,0.0,148.0,148.0,148.0,,,,,1834.7055869060569,None,4.0,2.3808415243402123,1834.7055869060569,None,1834.7055869060569,None,1834.7055869060569,None,1,2022_May_04_1839,Semantic-hierachy,2021.1.2,
299,Trial # 300,layer0-5_O3_to_T7.jpg,layer0-5/layer0-5_O3_to_T7.jpg,OT,layer0-5,,,,,0.0,149.0,149.0,149.0,,,,,1837.3901544422845,None,1.0,2.0079388609156013,1837.3901544422845,None,1837.3901544422845,None,1837.3901544422845,None,1,2022_May_04_1839,Semantic-hierachy,2021.1.2,
300,Trial # 301,layer9-17_O11_to_O6.jpg,layer9-17/layer9-17_O11_to_O6.jpg,OO,layer9-17,,,,,,,,,0.0,0.0,0.0,0.0,1847.4598472439684,None,3.0,8.737624156288803,1847.4598472439684,None,1847.4598472439684,None,1847.4598472439684,None,1,2022_May_04_1839,Semantic-hierachy,2021.1.2,
301,Trial # 302,layer0-5_O3_to_O7.jpg,layer0-5/layer0-5_O3_to_O7.jpg,OO,layer0-5,,,,,,,,,0.0,1.0,1.0,1.0,1856.3798252032136,None,1.0,6.913568319287151,1856.3798252032136,None,1856.3798252032136,None,1856.3798252032136,None,1,2022_May_04_1839,Semantic-hierachy,2021.1.2,
302,Trial # 303,layer6-8_O11_to_T3.jpg,layer6-8/layer6-8_O11_to_T3.jpg,OT,layer6-8,,,,,,,,,0.0,2.0,2.0,2.0,1863.5977618512693,None,3.0,2.052882159128785,1863.5977618512693,None,1863.5977618512693,None,1863.5977618512693,None,1,2022_May_04_1839,Semantic-hierachy,2021.1.2,
303,Trial # 304,layer6-8_O2_to_T7.jpg,layer6-8/layer6-8_O2_to_T7.jpg,OT,layer6-8,,,,,,,,,0.0,3.0,3.0,3.0,1865.7992303390056,None,3.0,1.393051264807582,1865.7992303390056,None,1865.7992303390056,None,1865.7992303390056,None,1,2022_May_04_1839,Semantic-hierachy,2021.1.2,
304,Trial # 305,layer0-5_T1_to_T7.jpg,layer0-5/layer0-5_T1_to_T7.jpg,TT,layer0-5,,,,,,,,,0.0,4.0,4.0,4.0,1867.9837415651416,None,1.0,2.838906634133309,1867.9837415651416,None,1867.9837415651416,None,1867.9837415651416,None,1,2022_May_04_1839,Semantic-hierachy,2021.1.2,
305,Trial # 306,layer6-8_O7_to_T11.jpg,layer6-8/layer6-8_O7_to_T11.jpg,OT,layer6-8,,,,,,,,,0.0,5.0,5.0,5.0,1871.0504798348995,None,3.0,2.1765249334275723,1871.0504798348995,None,1871.0504798348995,None,1871.0504798348995,None,1,2022_May_04_1839,Semantic-hierachy,2021.1.2,
306,Trial # 307,layer9-17_O5_to_T5.jpg,layer9-17/layer9-17_O5_to_T5.jpg,OT,layer9-17,,,,,,,,,0.0,6.0,6.0,6.0,1873.55126585532,None,2.0,2.108929896261543,1873.55126585532,None,1873.55126585532,None,1873.55126585532,None,1,2022_May_04_1839,Semantic-hierachy,2021.1.2,
307,Trial # 308,layer9-17_T12_to_T5.jpg,layer9-17/layer9-17_T12_to_T5.jpg,TT,layer9-17,,,,,,,,,0.0,7.0,7.0,7.0,1876.0031201611275,None,2.0,1.9407638823613524,1876.0031201611275,None,1876.0031201611275,None,1876.0031201611275,None,1,2022_May_04_1839,Semantic-hierachy,2021.1.2,
308,Trial # 309,layer6-8_O11_to_O2.jpg,layer6-8/layer6-8_O11_to_O2.jpg,OO,layer6-8,,,,,,,,,0.0,8.0,8.0,8.0,1878.1527042151429,None,3.0,2.873274805955589,1878.1527042151429,None,1878.1527042151429,None,1878.1527042151429,None,1,2022_May_04_1839,Semantic-hierachy,2021.1.2,
309,Trial # 310,layer6-8_O10_to_O7.jpg,layer6-8/layer6-8_O10_to_O7.jpg,OO,layer6-8,,,,,,,,,0.0,9.0,9.0,9.0,1881.3549169190228,None,2.0,2.152203423436731,1881.3549169190228,None,1881.3549169190228,None,1881.3549169190228,None,1,2022_May_04_1839,Semantic-hierachy,2021.1.2,
310,Trial # 311,layer9-17_O10_to_T11.jpg,layer9-17/layer9-17_O10_to_T11.jpg,OT,layer9-17,,,,,,,,,0.0,10.0,10.0,10.0,1885.9728273181245,None,2.0,5.29078387003392,1885.9728273181245,None,1885.9728273181245,None,1885.9728273181245,None,1,2022_May_04_1839,Semantic-hierachy,2021.1.2,
311,Trial # 312,layer6-8_O11_to_O12.jpg,layer6-8/layer6-8_O11_to_O12.jpg,OO,layer6-8,,,,,,,,,0.0,11.0,11.0,11.0,1891.5245662741363,None,2.0,9.209326611831784,1891.5245662741363,None,1891.5245662741363,None,1891.5245662741363,None,1,2022_May_04_1839,Semantic-hierachy,2021.1.2,
312,Trial # 313,layer9-17_O9_to_T8.jpg,layer9-17/layer9-17_O9_to_T8.jpg,OT,layer9-17,,,,,,,,,0.0,12.0,12.0,12.0,1900.876406735275,None,3.0,4.544031610246748,1900.876406735275,None,1900.876406735275,None,1900.876406735275,None,1,2022_May_04_1839,Semantic-hierachy,2021.1.2,
313,Trial # 314,layer0-5_O3_to_T2.jpg,layer0-5/layer0-5_O3_to_T2.jpg,OT,layer0-5,,,,,,,,,0.0,13.0,13.0,13.0,1905.9291349961425,None,1.0,1.863253581803292,1905.9291349961425,None,1905.9291349961425,None,1905.9291349961425,None,1,2022_May_04_1839,Semantic-hierachy,2021.1.2,
314,Trial # 315,layer9-17_T1_to_T11.jpg,layer9-17/layer9-17_T1_to_T11.jpg,TT,layer9-17,,,,,,,,,0.0,14.0,14.0,14.0,1907.995068657212,None,2.0,1.6119849528186023,1907.995068657212,None,1907.995068657212,None,1907.995068657212,None,1,2022_May_04_1839,Semantic-hierachy,2021.1.2,
315,Trial # 316,layer6-8_T10_to_T7.jpg,layer6-8/layer6-8_T10_to_T7.jpg,TT,layer6-8,,,,,,,,,0.0,15.0,15.0,15.0,1909.829183497932,None,4.0,5.878234235104173,1909.829183497932,None,1909.829183497932,None,1909.829183497932,None,1,2022_May_04_1839,Semantic-hierachy,2021.1.2,
316,Trial # 317,layer0-5_T6_to_T7.jpg,layer0-5/layer0-5_T6_to_T7.jpg,TT,layer0-5,,,,,,,,,0.0,16.0,16.0,16.0,1915.9655821751803,None,1.0,2.0272913109511137,1915.9655821751803,None,1915.9655821751803,None,1915.9655821751803,None,1,2022_May_04_1839,Semantic-hierachy,2021.1.2,
317,Trial # 318,layer9-17_O1_to_T3.jpg,layer9-17/layer9-17_O1_to_T3.jpg,OT,layer9-17,,,,,,,,,0.0,17.0,17.0,17.0,1918.264691654127,None,2.0,2.1575975329615176,1918.264691654127,None,1918.264691654127,None,1918.264691654127,None,1,2022_May_04_1839,Semantic-hierachy,2021.1.2,
318,Trial # 319,layer0-5_O2_to_T5.jpg,layer0-5/layer0-5_O2_to_T5.jpg,OT,layer0-5,,,,,,,,,0.0,18.0,18.0,18.0,1920.6167890620416,None,1.0,2.469857520889491,1920.6167890620416,None,1920.6167890620416,None,1920.6167890620416,None,1,2022_May_04_1839,Semantic-hierachy,2021.1.2,
319,Trial # 320,layer6-8_O7_to_T10.jpg,layer6-8/layer6-8_O7_to_T10.jpg,OT,layer6-8,,,,,,,,,0.0,19.0,19.0,19.0,1923.2997282729484,None,4.0,2.692507305648178,1923.2997282729484,None,1923.2997282729484,None,1923.2997282729484,None,1,2022_May_04_1839,Semantic-hierachy,2021.1.2,
320,Trial # 321,layer0-5_O5_to_O6.jpg,layer0-5/layer0-5_O5_to_O6.jpg,OO,layer0-5,,,,,,,,,0.0,20.0,20.0,20.0,1926.6686617950909,None,1.0,2.7403363049961627,1926.6686617950909,None,1926.6686617950909,None,1926.6686617950909,None,1,2022_May_04_1839,Semantic-hierachy,2021.1.2,
321,Trial # 322,layer9-17_O5_to_T4.jpg,layer9-17/layer9-17_O5_to_T4.jpg,OT,layer9-17,,,,,,,,,0.0,21.0,21.0,21.0,1929.685269291047,None,2.0,6.263574657961726,1929.685269291047,None,1929.685269291047,None,1929.685269291047,None,1,2022_May_04_1839,Semantic-hierachy,2021.1.2,
322,Trial # 323,layer0-5_T12_to_T2.jpg,layer0-5/layer0-5_T12_to_T2.jpg,TT,layer0-5,,,,,,,,,0.0,22.0,22.0,22.0,1936.238527160138,None,1.0,13.616134574171156,1936.238527160138,None,1936.238527160138,None,1936.238527160138,None,1,2022_May_04_1839,Semantic-hierachy,2021.1.2,
323,Trial # 324,layer0-5_O2_to_O4.jpg,layer0-5/layer0-5_O2_to_O4.jpg,OO,layer0-5,,,,,,,,,0.0,23.0,23.0,23.0,1950.175019461196,None,1.0,1.9145211880095303,1950.175019461196,None,1950.175019461196,None,1950.175019461196,None,1,2022_May_04_1839,Semantic-hierachy,2021.1.2,
324,Trial # 325,layer6-8_O1_to_O9.jpg,layer6-8/layer6-8_O1_to_O9.jpg,OO,layer6-8,,,,,,,,,0.0,24.0,24.0,24.0,1952.2921730810776,None,4.0,3.0598597270436585,1952.2921730810776,None,1952.2921730810776,None,1952.2921730810776,None,1,2022_May_04_1839,Semantic-hierachy,2021.1.2,
325,Trial # 326,layer0-5_T3_to_T5.jpg,layer0-5/layer0-5_T3_to_T5.jpg,TT,layer0-5,,,,,,,,,0.0,25.0,25.0,25.0,1955.627671858296,None,1.0,1.862015820108354,1955.627671858296,None,1955.627671858296,None,1955.627671858296,None,1,2022_May_04_1839,Semantic-hierachy,2021.1.2,
326,Trial # 327,layer6-8_O8_to_T12.jpg,layer6-8/layer6-8_O8_to_T12.jpg,OT,layer6-8,,,,,,,,,0.0,26.0,26.0,26.0,1957.6771746100856,None,2.0,1.6093291300348938,1957.6771746100856,None,1957.6771746100856,None,1957.6771746100856,None,1,2022_May_04_1839,Semantic-hierachy,2021.1.2,
327,Trial # 328,layer9-17_T11_to_T4.jpg,layer9-17/layer9-17_T11_to_T4.jpg,TT,layer9-17,,,,,,,,,0.0,27.0,27.0,27.0,1959.4608529550023,None,2.0,1.3983422396704557,1959.4608529550023,None,1959.4608529550023,None,1959.4608529550023,None,1,2022_May_04_1839,Semantic-hierachy,2021.1.2,
328,Trial # 329,layer9-17_O6_to_T2.jpg,layer9-17/layer9-17_O6_to_T2.jpg,OT,layer9-17,,,,,,,,,0.0,28.0,28.0,28.0,1961.0283308611247,None,2.0,1.4212927063927054,1961.0283308611247,None,1961.0283308611247,None,1961.0283308611247,None,1,2022_May_04_1839,Semantic-hierachy,2021.1.2,
329,Trial # 330,layer9-17_T10_to_T9.jpg,layer9-17/layer9-17_T10_to_T9.jpg,TT,layer9-17,,,,,,,,,0.0,29.0,29.0,29.0,1962.662369396072,None,2.0,2.121541346888989,1962.662369396072,None,1962.662369396072,None,1962.662369396072,None,1,2022_May_04_1839,Semantic-hierachy,2021.1.2,
330,Trial # 331,layer0-5_O2_to_O3.jpg,layer0-5/layer0-5_O2_to_O3.jpg,OO,layer0-5,,,,,,,,,0.0,30.0,30.0,30.0,1965.046985234134,None,1.0,3.6890448960475615,1965.046985234134,None,1965.046985234134,None,1965.046985234134,None,1,2022_May_04_1839,Semantic-hierachy,2021.1.2,
331,Trial # 332,layer6-8_O1_to_O12.jpg,layer6-8/layer6-8_O1_to_O12.jpg,OO,layer6-8,,,,,,,,,0.0,31.0,31.0,31.0,1969.597918387968,None,3.0,3.8710652692243457,1969.597918387968,None,1969.597918387968,None,1969.597918387968,None,1,2022_May_04_1839,Semantic-hierachy,2021.1.2,
332,Trial # 333,layer0-5_O5_to_T12.jpg,layer0-5/layer0-5_O5_to_T12.jpg,OT,layer0-5,,,,,,,,,0.0,32.0,32.0,32.0,1973.7485947101377,None,1.0,2.725215525832027,1973.7485947101377,None,1973.7485947101377,None,1973.7485947101377,None,1,2022_May_04_1839,Semantic-hierachy,2021.1.2,
333,Trial # 334,layer9-17_O11_to_T6.jpg,layer9-17/layer9-17_O11_to_T6.jpg,OT,layer9-17,,,,,,,,,0.0,33.0,33.0,33.0,1976.8340384908952,None,4.0,3.5621156631968915,1976.8340384908952,None,1976.8340384908952,None,1976.8340384908952,None,1,2022_May_04_1839,Semantic-hierachy,2021.1.2,
334,Trial # 335,layer0-5_O4_to_T1.jpg,layer0-5/layer0-5_O4_to_T1.jpg,OT,layer0-5,,,,,,,,,0.0,34.0,34.0,34.0,1980.768768728245,None,1.0,2.793345102109015,1980.768768728245,None,1980.768768728245,None,1980.768768728245,None,1,2022_May_04_1839,Semantic-hierachy,2021.1.2,
335,Trial # 336,layer6-8_T1_to_T6.jpg,layer6-8/layer6-8_T1_to_T6.jpg,TT,layer6-8,,,,,,,,,0.0,35.0,35.0,35.0,1984.0517775733024,None,4.0,3.507655284833163,1984.0517775733024,None,1984.0517775733024,None,1984.0517775733024,None,1,2022_May_04_1839,Semantic-hierachy,2021.1.2,
336,Trial # 337,layer0-5_O12_to_O6.jpg,layer0-5/layer0-5_O12_to_O6.jpg,OO,layer0-5,,,,,,,,,0.0,36.0,36.0,36.0,1988.0197574999183,None,1.0,3.315436208155006,1988.0197574999183,None,1988.0197574999183,None,1988.0197574999183,None,1,2022_May_04_1839,Semantic-hierachy,2021.1.2,
337,Trial # 338,layer0-5_O1_to_O10.jpg,layer0-5/layer0-5_O1_to_O10.jpg,OO,layer0-5,,,,,,,,,0.0,37.0,37.0,37.0,1991.5888524381444,None,1.0,1.8077592751942573,1991.5888524381444,None,1991.5888524381444,None,1991.5888524381444,None,1,2022_May_04_1839,Semantic-hierachy,2021.1.2,
338,Trial # 339,layer0-5_O9_to_T9.jpg,layer0-5/layer0-5_O9_to_T9.jpg,OT,layer0-5,,,,,,,,,0.0,38.0,38.0,38.0,1994.0049906698987,None,1.0,3.122983281034976,1994.0049906698987,None,1994.0049906698987,None,1994.0049906698987,None,1,2022_May_04_1839,Semantic-hierachy,2021.1.2,
339,Trial # 340,layer6-8_O6_to_T10.jpg,layer6-8/layer6-8_O6_to_T10.jpg,OT,layer6-8,,,,,,,,,0.0,39.0,39.0,39.0,1997.4226243789308,None,3.0,1.9794303798116744,1997.4226243789308,None,1997.4226243789308,None,1997.4226243789308,None,1,2022_May_04_1839,Semantic-hierachy,2021.1.2,
340,Trial # 341,layer9-17_O3_to_T3.jpg,layer9-17/layer9-17_O3_to_T3.jpg,OT,layer9-17,,,,,,,,,0.0,40.0,40.0,40.0,2000.0575188752264,None,2.0,1.8274533720687032,2000.0575188752264,None,2000.0575188752264,None,2000.0575188752264,None,1,2022_May_04_1839,Semantic-hierachy,2021.1.2,
341,Trial # 342,layer0-5_O8_to_T8.jpg,layer0-5/layer0-5_O8_to_T8.jpg,OT,layer0-5,,,,,,,,,0.0,41.0,41.0,41.0,2002.0909954691303,None,1.0,4.81062867725268,2002.0909954691303,None,2002.0909954691303,None,2002.0909954691303,None,1,2022_May_04_1839,Semantic-hierachy,2021.1.2,
342,Trial # 343,layer9-17_O11_to_O3.jpg,layer9-17/layer9-17_O11_to_O3.jpg,OO,layer9-17,,,,,,,,,0.0,42.0,42.0,42.0,2007.0924308560789,None,2.0,1.601533435750753,2007.0924308560789,None,2007.0924308560789,None,2007.0924308560789,None,1,2022_May_04_1839,Semantic-hierachy,2021.1.2,
343,Trial # 344,layer9-17_O10_to_T12.jpg,layer9-17/layer9-17_O10_to_T12.jpg,OT,layer9-17,,,,,,,,,0.0,43.0,43.0,43.0,2008.8424871191385,None,2.0,1.6956988996826112,2008.8424871191385,None,2008.8424871191385,None,2008.8424871191385,None,1,2022_May_04_1839,Semantic-hierachy,2021.1.2,
344,Trial # 345,layer6-8_T3_to_T6.jpg,layer6-8/layer6-8_T3_to_T6.jpg,TT,layer6-8,,,,,,,,,0.0,44.0,44.0,44.0,2010.6777715459464,None,3.0,2.692255751695484,2010.6777715459464,None,2010.6777715459464,None,2010.6777715459464,None,1,2022_May_04_1839,Semantic-hierachy,2021.1.2,
345,Trial # 346,layer6-8_O1_to_O4.jpg,layer6-8/layer6-8_O1_to_O4.jpg,OO,layer6-8,,,,,,,,,0.0,45.0,45.0,45.0,2015.863052601926,None,4.0,4.379419443197548,2015.863052601926,None,2015.863052601926,None,2015.863052601926,None,1,2022_May_04_1839,Semantic-hierachy,2021.1.2,
346,Trial # 347,layer0-5_O8_to_T3.jpg,layer0-5/layer0-5_O8_to_T3.jpg,OT,layer0-5,,,,,,,,,0.0,46.0,46.0,46.0,2020.630423637107,None,1.0,1.5580887631513178,2020.630423637107,None,2020.630423637107,None,2020.630423637107,None,1,2022_May_04_1839,Semantic-hierachy,2021.1.2,
347,Trial # 348,layer9-17_T2_to_T7.jpg,layer9-17/layer9-17_T2_to_T7.jpg,TT,layer9-17,,,,,,,,,0.0,47.0,47.0,47.0,2022.4472797052003,None,2.0,2.328465030062944,2022.4472797052003,None,2022.4472797052003,None,2022.4472797052003,None,1,2022_May_04_1839,Semantic-hierachy,2021.1.2,
348,Trial # 349,layer0-5_O9_to_T4.jpg,layer0-5/layer0-5_O9_to_T4.jpg,OT,layer0-5,,,,,,,,,0.0,48.0,48.0,48.0,2025.0318549922667,None,1.0,1.7761555998586118,2025.0318549922667,None,2025.0318549922667,None,2025.0318549922667,None,1,2022_May_04_1839,Semantic-hierachy,2021.1.2,
349,Trial # 350,layer9-17_T12_to_T9.jpg,layer9-17/layer9-17_T12_to_T9.jpg,TT,layer9-17,,,,,,,,,0.0,49.0,49.0,49.0,2027.0331385033203,None,2.0,2.037085517775268,2027.0331385033203,None,2027.0331385033203,None,2027.0331385033203,None,1,2022_May_04_1839,Semantic-hierachy,2021.1.2,
350,Trial # 351,layer6-8_O11_to_O6.jpg,layer6-8/layer6-8_O11_to_O6.jpg,OO,layer6-8,,,,,,,,,0.0,50.0,50.0,50.0,2029.9159200042488,None,2.0,1.9925718908198176,2029.9159200042488,None,2029.9159200042488,None,2029.9159200042488,None,1,2022_May_04_1839,Semantic-hierachy,2021.1.2,
351,Trial # 352,layer0-5_O10_to_O11.jpg,layer0-5/layer0-5_O10_to_O11.jpg,OO,layer0-5,,,,,,,,,0.0,51.0,51.0,51.0,2033.267047648318,None,1.0,4.162393711972982,2033.267047648318,None,2033.267047648318,None,2033.267047648318,None,1,2022_May_04_1839,Semantic-hierachy,2021.1.2,
352,Trial # 353,layer9-17_O4_to_T7.jpg,layer9-17/layer9-17_O4_to_T7.jpg,OT,layer9-17,,,,,,,,,0.0,52.0,52.0,52.0,2037.851835648064,None,2.0,2.6758381412364542,2037.851835648064,None,2037.851835648064,None,2037.851835648064,None,1,2022_May_04_1839,Semantic-hierachy,2021.1.2,
353,Trial # 354,layer0-5_O2_to_T11.jpg,layer0-5/layer0-5_O2_to_T11.jpg,OT,layer0-5,,,,,,,,,0.0,53.0,53.0,53.0,2040.887626620009,None,1.0,1.8462990443222225,2040.887626620009,None,2040.887626620009,None,2040.887626620009,None,1,2022_May_04_1839,Semantic-hierachy,2021.1.2,
354,Trial # 355,layer9-17_O5_to_O6.jpg,layer9-17/layer9-17_O5_to_O6.jpg,OO,layer9-17,,,,,,,,,0.0,54.0,54.0,54.0,2043.037033252884,None,2.0,1.9968330711126328,2043.037033252884,None,2043.037033252884,None,2043.037033252884,None,1,2022_May_04_1839,Semantic-hierachy,2021.1.2,
355,Trial # 356,layer6-8_O5_to_T10.jpg,layer6-8/layer6-8_O5_to_T10.jpg,OT,layer6-8,,,,,,,,,0.0,55.0,55.0,55.0,2045.238076805137,None,3.0,1.9260058617219329,2045.238076805137,None,2045.238076805137,None,2045.238076805137,None,1,2022_May_04_1839,Semantic-hierachy,2021.1.2,
356,Trial # 357,layer6-8_T3_to_T4.jpg,layer6-8/layer6-8_T3_to_T4.jpg,TT,layer6-8,,,,,,,,,0.0,56.0,56.0,56.0,2047.43861326389,None,4.0,4.306305009871721,2047.43861326389,None,2047.43861326389,None,2047.43861326389,None,1,2022_May_04_1839,Semantic-hierachy,2021.1.2,
357,Trial # 358,layer6-8_T4_to_T8.jpg,layer6-8/layer6-8_T4_to_T8.jpg,TT,layer6-8,,,,,,,,,0.0,57.0,57.0,57.0,2053.339765185956,None,4.0,3.698305191006512,2053.339765185956,None,2053.339765185956,None,2053.339765185956,None,1,2022_May_04_1839,Semantic-hierachy,2021.1.2,
358,Trial # 359,layer0-5_O2_to_T4.jpg,layer0-5/layer0-5_O2_to_T4.jpg,OT,layer0-5,,,,,,,,,0.0,58.0,58.0,58.0,2057.2590033691376,None,1.0,2.438261789735406,2057.2590033691376,None,2057.2590033691376,None,2057.2590033691376,None,1,2022_May_04_1839,Semantic-hierachy,2021.1.2,
359,Trial # 360,layer0-5_O4_to_O7.jpg,layer0-5/layer0-5_O4_to_O7.jpg,OO,layer0-5,,,,,,,,,0.0,59.0,59.0,59.0,2060.310328114312,None,1.0,1.2806866797618568,2060.310328114312,None,2060.310328114312,None,2060.310328114312,None,1,2022_May_04_1839,Semantic-hierachy,2021.1.2,
360,Trial # 361,layer9-17_O12_to_T7.jpg,layer9-17/layer9-17_O12_to_T7.jpg,OT,layer9-17,,,,,,,,,0.0,60.0,60.0,60.0,2064.193482411094,None,2.0,1.7652449728921056,2064.193482411094,None,2064.193482411094,None,2064.193482411094,None,1,2022_May_04_1839,Semantic-hierachy,2021.1.2,
361,Trial # 362,layer6-8_O11_to_T8.jpg,layer6-8/layer6-8_O11_to_T8.jpg,OT,layer6-8,,,,,,,,,0.0,61.0,61.0,61.0,2066.162070777267,None,3.0,2.1923609022051096,2066.162070777267,None,2066.162070777267,None,2066.162070777267,None,1,2022_May_04_1839,Semantic-hierachy,2021.1.2,
362,Trial # 363,layer9-17_O10_to_T6.jpg,layer9-17/layer9-17_O10_to_T6.jpg,OT,layer9-17,,,,,,,,,0.0,62.0,62.0,62.0,2068.5448227459565,None,2.0,4.289170891046524,2068.5448227459565,None,2068.5448227459565,None,2068.5448227459565,None,1,2022_May_04_1839,Semantic-hierachy,2021.1.2,
363,Trial # 364,layer0-5_O5_to_T7.jpg,layer0-5/layer0-5_O5_to_T7.jpg,OT,layer0-5,,,,,,,,,0.0,63.0,63.0,63.0,2073.7465774361044,None,1.0,3.9454015530645847,2073.7465774361044,None,2073.7465774361044,None,2073.7465774361044,None,1,2022_May_04_1839,Semantic-hierachy,2021.1.2,
