,Trial_num,image_name,image_path,pair_type,layers,block1.thisRepN,block1.thisTrialN,block1.thisN,block1.thisIndex,block2.thisRepN,block2.thisTrialN,block2.thisN,block2.thisIndex,block3.thisRepN,block3.thisTrialN,block3.thisN,block3.thisIndex,image_8.started,image_8.stopped,selected_semantic.response,selected_semantic.rt,selected_semantic.started,selected_semantic.stopped,Instruction.started,Instruction.stopped,Trial_number.started,Trial_number.stopped,session,date,expName,psychopyVersion,Unnamed: 33
0,Trial # 1,layer0-5_O2_to_T1.jpg,layer0-5/layer0-5_O2_to_T1.jpg,OT,layer0-5,0.0,0.0,0.0,0.0,,,,,,,,,125.2997009990504,None,1.0,14.581511604017578,125.2997009990504,None,125.2997009990504,None,125.2997009990504,None,1,2022_Jun_28_1531,Semantic-hierachy,2021.1.2,
1,Trial # 2,layer0-5_O11_to_T7.jpg,layer0-5/layer0-5_O11_to_T7.jpg,OT,layer0-5,0.0,1.0,1.0,1.0,,,,,,,,,143.4392830200377,None,1.0,8.159861792053562,143.4392830200377,None,143.4392830200377,None,143.4392830200377,None,1,2022_Jun_28_1531,Semantic-hierachy,2021.1.2,
2,Trial # 3,layer6-8_O3_to_O5.jpg,layer6-8/layer6-8_O3_to_O5.jpg,OO,layer6-8,0.0,2.0,2.0,2.0,,,,,,,,,154.22598209104035,None,4.0,23.91796594299376,154.22598209104035,None,154.22598209104035,None,154.22598209104035,None,1,2022_Jun_28_1531,Semantic-hierachy,2021.1.2,
3,Trial # 4,layer6-8_O11_to_O4.jpg,layer6-8/layer6-8_O11_to_O4.jpg,OO,layer6-8,0.0,3.0,3.0,3.0,,,,,,,,,179.68363296304597,None,3.0,7.0358733349712566,179.68363296304597,None,179.68363296304597,None,179.68363296304597,None,1,2022_Jun_28_1531,Semantic-hierachy,2021.1.2,
4,Trial # 5,layer6-8_O8_to_T8.jpg,layer6-8/layer6-8_O8_to_T8.jpg,OT,layer6-8,0.0,4.0,4.0,4.0,,,,,,,,,188.91999456600752,None,4.0,5.537942241993733,188.91999456600752,None,188.91999456600752,None,188.91999456600752,None,1,2022_Jun_28_1531,Semantic-hierachy,2021.1.2,
5,Trial # 6,layer0-5_O11_to_O8.jpg,layer0-5/layer0-5_O11_to_O8.jpg,OO,layer0-5,0.0,5.0,5.0,5.0,,,,,,,,,197.2713691270328,None,1.0,3.865720945002977,197.2713691270328,None,197.2713691270328,None,197.2713691270328,None,1,2022_Jun_28_1531,Semantic-hierachy,2021.1.2,
6,Trial # 7,layer0-5_T10_to_T11.jpg,layer0-5/layer0-5_T10_to_T11.jpg,TT,layer0-5,0.0,6.0,6.0,6.0,,,,,,,,,202.80649027402976,None,1.0,3.8697682869969854,202.80649027402976,None,202.80649027402976,None,202.80649027402976,None,1,2022_Jun_28_1531,Semantic-hierachy,2021.1.2,
7,Trial # 8,layer9-17_O6_to_O9.jpg,layer9-17/layer9-17_O6_to_O9.jpg,OO,layer9-17,0.0,7.0,7.0,7.0,,,,,,,,,208.47617011505645,None,2.0,3.8014556120033376,208.47617011505645,None,208.47617011505645,None,208.47617011505645,None,1,2022_Jun_28_1531,Semantic-hierachy,2021.1.2,
8,Trial # 9,layer6-8_O12_to_O9.jpg,layer6-8/layer6-8_O12_to_O9.jpg,OO,layer6-8,0.0,8.0,8.0,8.0,,,,,,,,,213.14308177301427,None,3.0,5.287366445991211,213.14308177301427,None,213.14308177301427,None,213.14308177301427,None,1,2022_Jun_28_1531,Semantic-hierachy,2021.1.2,
9,Trial # 10,layer0-5_O10_to_T2.jpg,layer0-5/layer0-5_O10_to_T2.jpg,OT,layer0-5,0.0,9.0,9.0,9.0,,,,,,,,,220.0952711140272,None,1.0,15.811699017998762,220.0952711140272,None,220.0952711140272,None,220.0952711140272,None,1,2022_Jun_28_1531,Semantic-hierachy,2021.1.2,
10,Trial # 11,layer9-17_T10_to_T2.jpg,layer9-17/layer9-17_T10_to_T2.jpg,TT,layer9-17,0.0,10.0,10.0,10.0,,,,,,,,,237.0004636480008,None,4.0,39.68258187203901,237.0004636480008,None,237.0004636480008,None,237.0004636480008,None,1,2022_Jun_28_1531,Semantic-hierachy,2021.1.2,
11,Trial # 12,layer6-8_T6_to_T7.jpg,layer6-8/layer6-8_T6_to_T7.jpg,TT,layer6-8,0.0,11.0,11.0,11.0,,,,,,,,,277.89616330101853,None,4.0,18.251181864005048,277.89616330101853,None,277.89616330101853,None,277.89616330101853,None,1,2022_Jun_28_1531,Semantic-hierachy,2021.1.2,
12,Trial # 13,layer9-17_O10_to_T2.jpg,layer9-17/layer9-17_O10_to_T2.jpg,OT,layer9-17,0.0,12.0,12.0,12.0,,,,,,,,,297.1357690880541,None,2.0,2.2195381310302764,297.1357690880541,None,297.1357690880541,None,297.1357690880541,None,1,2022_Jun_28_1531,Semantic-hierachy,2021.1.2,
13,Trial # 14,layer6-8_T4_to_T7.jpg,layer6-8/layer6-8_T4_to_T7.jpg,TT,layer6-8,0.0,13.0,13.0,13.0,,,,,,,,,300.4033736740239,None,3.0,28.78090810001595,300.4033736740239,None,300.4033736740239,None,300.4033736740239,None,1,2022_Jun_28_1531,Semantic-hierachy,2021.1.2,
14,Trial # 15,layer9-17_O8_to_T2.jpg,layer9-17/layer9-17_O8_to_T2.jpg,OT,layer9-17,0.0,14.0,14.0,14.0,,,,,,,,,330.095824500022,None,2.0,2.505654263019096,330.095824500022,None,330.095824500022,None,330.095824500022,None,1,2022_Jun_28_1531,Semantic-hierachy,2021.1.2,
15,Trial # 16,layer0-5_T6_to_T9.jpg,layer0-5/layer0-5_T6_to_T9.jpg,TT,layer0-5,0.0,15.0,15.0,15.0,,,,,,,,,333.0296397060156,None,1.0,2.714067844033707,333.0296397060156,None,333.0296397060156,None,333.0296397060156,None,1,2022_Jun_28_1531,Semantic-hierachy,2021.1.2,
16,Trial # 17,layer0-5_O11_to_O12.jpg,layer0-5/layer0-5_O11_to_O12.jpg,OO,layer0-5,0.0,16.0,16.0,16.0,,,,,,,,,336.081059558026,None,1.0,1.9876571109634824,336.081059558026,None,336.081059558026,None,336.081059558026,None,1,2022_Jun_28_1531,Semantic-hierachy,2021.1.2,
17,Trial # 18,layer0-5_T11_to_T5.jpg,layer0-5/layer0-5_T11_to_T5.jpg,TT,layer0-5,0.0,17.0,17.0,17.0,,,,,,,,,338.899796651036,None,1.0,1.837954996037297,338.899796651036,None,338.899796651036,None,338.899796651036,None,1,2022_Jun_28_1531,Semantic-hierachy,2021.1.2,
18,Trial # 19,layer0-5_O6_to_T12.jpg,layer0-5/layer0-5_O6_to_T12.jpg,OT,layer0-5,0.0,18.0,18.0,18.0,,,,,,,,,341.1824978950317,None,1.0,2.8844307599938475,341.1824978950317,None,341.1824978950317,None,341.1824978950317,None,1,2022_Jun_28_1531,Semantic-hierachy,2021.1.2,
19,Trial # 20,layer6-8_T6_to_T8.jpg,layer6-8/layer6-8_T6_to_T8.jpg,TT,layer6-8,0.0,19.0,19.0,19.0,,,,,,,,,344.684168451,None,4.0,4.962578329024836,344.684168451,None,344.684168451,None,344.684168451,None,1,2022_Jun_28_1531,Semantic-hierachy,2021.1.2,
20,Trial # 21,layer9-17_T2_to_T5.jpg,layer9-17/layer9-17_T2_to_T5.jpg,TT,layer9-17,0.0,20.0,20.0,20.0,,,,,,,,,350.2358520090347,None,2.0,3.4381010130164213,350.2358520090347,None,350.2358520090347,None,350.2358520090347,None,1,2022_Jun_28_1531,Semantic-hierachy,2021.1.2,
21,Trial # 22,layer6-8_O2_to_O6.jpg,layer6-8/layer6-8_O2_to_O6.jpg,OO,layer6-8,0.0,21.0,21.0,21.0,,,,,,,,,354.13720131403534,None,2.0,32.47247093298938,354.13720131403534,None,354.13720131403534,None,354.13720131403534,None,1,2022_Jun_28_1531,Semantic-hierachy,2021.1.2,
22,Trial # 23,layer9-17_O3_to_T12.jpg,layer9-17/layer9-17_O3_to_T12.jpg,OT,layer9-17,0.0,22.0,22.0,22.0,,,,,,,,,387.14648168504937,None,2.0,1.4179570659762248,387.14648168504937,None,387.14648168504937,None,387.14648168504937,None,1,2022_Jun_28_1531,Semantic-hierachy,2021.1.2,
23,Trial # 24,layer0-5_O11_to_O3.jpg,layer0-5/layer0-5_O11_to_O3.jpg,OO,layer0-5,0.0,23.0,23.0,23.0,,,,,,,,,389.88247991603566,None,1.0,2.742170409997925,389.88247991603566,None,389.88247991603566,None,389.88247991603566,None,1,2022_Jun_28_1531,Semantic-hierachy,2021.1.2,
24,Trial # 25,layer6-8_O2_to_O9.jpg,layer6-8/layer6-8_O2_to_O9.jpg,OO,layer6-8,0.0,24.0,24.0,24.0,,,,,,,,,393.0321919080452,None,4.0,4.187627242994495,393.0321919080452,None,393.0321919080452,None,393.0321919080452,None,1,2022_Jun_28_1531,Semantic-hierachy,2021.1.2,
25,Trial # 26,layer9-17_O10_to_O8.jpg,layer9-17/layer9-17_O10_to_O8.jpg,OO,layer9-17,0.0,25.0,25.0,25.0,,,,,,,,,398.06632343900856,None,3.0,8.82175174402073,398.06632343900856,None,398.06632343900856,None,398.06632343900856,None,1,2022_Jun_28_1531,Semantic-hierachy,2021.1.2,
26,Trial # 27,layer9-17_T4_to_T6.jpg,layer9-17/layer9-17_T4_to_T6.jpg,TT,layer9-17,0.0,26.0,26.0,26.0,,,,,,,,,408.4382563870168,None,2.0,2.78972675499972,408.4382563870168,None,408.4382563870168,None,408.4382563870168,None,1,2022_Jun_28_1531,Semantic-hierachy,2021.1.2,
27,Trial # 28,layer6-8_O7_to_T8.jpg,layer6-8/layer6-8_O7_to_T8.jpg,OT,layer6-8,0.0,27.0,27.0,27.0,,,,,,,,,411.704485423048,None,3.0,4.848115828994196,411.704485423048,None,411.704485423048,None,411.704485423048,None,1,2022_Jun_28_1531,Semantic-hierachy,2021.1.2,
28,Trial # 29,layer6-8_T4_to_T5.jpg,layer6-8/layer6-8_T4_to_T5.jpg,TT,layer6-8,0.0,28.0,28.0,28.0,,,,,,,,,417.4223152680206,None,3.0,3.3532074929680675,417.4223152680206,None,417.4223152680206,None,417.4223152680206,None,1,2022_Jun_28_1531,Semantic-hierachy,2021.1.2,
29,Trial # 30,layer6-8_T10_to_T9.jpg,layer6-8/layer6-8_T10_to_T9.jpg,TT,layer6-8,0.0,29.0,29.0,29.0,,,,,,,,,422.2073046630248,None,3.0,4.857847539999057,422.2073046630248,None,422.2073046630248,None,422.2073046630248,None,1,2022_Jun_28_1531,Semantic-hierachy,2021.1.2,
30,Trial # 31,layer9-17_O1_to_O8.jpg,layer9-17/layer9-17_O1_to_O8.jpg,OO,layer9-17,0.0,30.0,30.0,30.0,,,,,,,,,430.2268709950149,None,2.0,2.538758594018873,430.2268709950149,None,430.2268709950149,None,430.2268709950149,None,1,2022_Jun_28_1531,Semantic-hierachy,2021.1.2,
31,Trial # 32,layer9-17_O12_to_O7.jpg,layer9-17/layer9-17_O12_to_O7.jpg,OO,layer9-17,0.0,31.0,31.0,31.0,,,,,,,,,433.64509312901646,None,2.0,2.869178812019527,433.64509312901646,None,433.64509312901646,None,433.64509312901646,None,1,2022_Jun_28_1531,Semantic-hierachy,2021.1.2,
32,Trial # 33,layer9-17_T10_to_T12.jpg,layer9-17/layer9-17_T10_to_T12.jpg,TT,layer9-17,0.0,32.0,32.0,32.0,,,,,,,,,437.7954050680273,None,4.0,20.688611950026825,437.7954050680273,None,437.7954050680273,None,437.7954050680273,None,1,2022_Jun_28_1531,Semantic-hierachy,2021.1.2,
33,Trial # 34,layer0-5_T2_to_T6.jpg,layer0-5/layer0-5_T2_to_T6.jpg,TT,layer0-5,0.0,33.0,33.0,33.0,,,,,,,,,459.5037783110165,None,1.0,5.166017415001988,459.5037783110165,None,459.5037783110165,None,459.5037783110165,None,1,2022_Jun_28_1531,Semantic-hierachy,2021.1.2,
34,Trial # 35,layer6-8_T11_to_T2.jpg,layer6-8/layer6-8_T11_to_T2.jpg,TT,layer6-8,0.0,34.0,34.0,34.0,,,,,,,,,466.9049801260117,None,4.0,3.5913603010121733,466.9049801260117,None,466.9049801260117,None,466.9049801260117,None,1,2022_Jun_28_1531,Semantic-hierachy,2021.1.2,
35,Trial # 36,layer6-8_O4_to_T3.jpg,layer6-8/layer6-8_O4_to_T3.jpg,OT,layer6-8,0.0,35.0,35.0,35.0,,,,,,,,,471.6228801230318,None,3.0,2.4769996569957584,471.6228801230318,None,471.6228801230318,None,471.6228801230318,None,1,2022_Jun_28_1531,Semantic-hierachy,2021.1.2,
36,Trial # 37,layer6-8_O3_to_T11.jpg,layer6-8/layer6-8_O3_to_T11.jpg,OT,layer6-8,0.0,36.0,36.0,36.0,,,,,,,,,474.7751622150536,None,3.0,1.9409058130113408,474.7751622150536,None,474.7751622150536,None,474.7751622150536,None,1,2022_Jun_28_1531,Semantic-hierachy,2021.1.2,
37,Trial # 38,layer6-8_T1_to_T2.jpg,layer6-8/layer6-8_T1_to_T2.jpg,TT,layer6-8,0.0,37.0,37.0,37.0,,,,,,,,,477.1081843670109,None,4.0,9.758534490014426,477.1081843670109,None,477.1081843670109,None,477.1081843670109,None,1,2022_Jun_28_1531,Semantic-hierachy,2021.1.2,
38,Trial # 39,layer9-17_O2_to_O6.jpg,layer9-17/layer9-17_O2_to_O6.jpg,OO,layer9-17,0.0,38.0,38.0,38.0,,,,,,,,,489.4462917530327,None,4.0,3.5177088500349782,489.4462917530327,None,489.4462917530327,None,489.4462917530327,None,1,2022_Jun_28_1531,Semantic-hierachy,2021.1.2,
39,Trial # 40,layer9-17_O4_to_T2.jpg,layer9-17/layer9-17_O4_to_T2.jpg,OT,layer9-17,0.0,39.0,39.0,39.0,,,,,,,,,493.896929700044,None,2.0,2.688908401993104,493.896929700044,None,493.896929700044,None,493.896929700044,None,1,2022_Jun_28_1531,Semantic-hierachy,2021.1.2,
40,Trial # 41,layer6-8_O5_to_T3.jpg,layer6-8/layer6-8_O5_to_T3.jpg,OT,layer6-8,0.0,40.0,40.0,40.0,,,,,,,,,498.2807587250136,None,3.0,1.9534308679867536,498.2807587250136,None,498.2807587250136,None,498.2807587250136,None,1,2022_Jun_28_1531,Semantic-hierachy,2021.1.2,
41,Trial # 42,layer6-8_O2_to_O3.jpg,layer6-8/layer6-8_O2_to_O3.jpg,OO,layer6-8,0.0,41.0,41.0,41.0,,,,,,,,,500.948752150056,None,4.0,10.426193468971178,500.948752150056,None,500.948752150056,None,500.948752150056,None,1,2022_Jun_28_1531,Semantic-hierachy,2021.1.2,
42,Trial # 43,layer6-8_O1_to_T6.jpg,layer6-8/layer6-8_O1_to_T6.jpg,OT,layer6-8,0.0,42.0,42.0,42.0,,,,,,,,,511.75228858500486,None,3.0,2.273830274003558,511.75228858500486,None,511.75228858500486,None,511.75228858500486,None,1,2022_Jun_28_1531,Semantic-hierachy,2021.1.2,
43,Trial # 44,layer6-8_O2_to_T12.jpg,layer6-8/layer6-8_O2_to_T12.jpg,OT,layer6-8,0.0,43.0,43.0,43.0,,,,,,,,,514.9042059980566,None,3.0,1.5172388019855134,514.9042059980566,None,514.9042059980566,None,514.9042059980566,None,1,2022_Jun_28_1531,Semantic-hierachy,2021.1.2,
44,Trial # 45,layer9-17_O2_to_O8.jpg,layer9-17/layer9-17_O2_to_O8.jpg,OO,layer9-17,0.0,44.0,44.0,44.0,,,,,,,,,518.3875463700388,None,2.0,2.807123127975501,518.3875463700388,None,518.3875463700388,None,518.3875463700388,None,1,2022_Jun_28_1531,Semantic-hierachy,2021.1.2,
45,Trial # 46,layer9-17_O10_to_O4.jpg,layer9-17/layer9-17_O10_to_O4.jpg,OO,layer9-17,0.0,45.0,45.0,45.0,,,,,,,,,523.5571551170433,None,2.0,9.961370953009464,523.5571551170433,None,523.5571551170433,None,523.5571551170433,None,1,2022_Jun_28_1531,Semantic-hierachy,2021.1.2,
46,Trial # 47,layer0-5_O1_to_O4.jpg,layer0-5/layer0-5_O1_to_O4.jpg,OO,layer0-5,0.0,46.0,46.0,46.0,,,,,,,,,535.4605148290284,None,1.0,2.2386425400036387,535.4605148290284,None,535.4605148290284,None,535.4605148290284,None,1,2022_Jun_28_1531,Semantic-hierachy,2021.1.2,
47,Trial # 48,layer0-5_T4_to_T5.jpg,layer0-5/layer0-5_T4_to_T5.jpg,TT,layer0-5,0.0,47.0,47.0,47.0,,,,,,,,,538.427182997053,None,1.0,4.840752810996492,538.427182997053,None,538.427182997053,None,538.427182997053,None,1,2022_Jun_28_1531,Semantic-hierachy,2021.1.2,
48,Trial # 49,layer9-17_T12_to_T8.jpg,layer9-17/layer9-17_T12_to_T8.jpg,TT,layer9-17,0.0,48.0,48.0,48.0,,,,,,,,,543.696147876035,None,2.0,1.7255194970057346,543.696147876035,None,543.696147876035,None,543.696147876035,None,1,2022_Jun_28_1531,Semantic-hierachy,2021.1.2,
49,Trial # 50,layer0-5_T10_to_T5.jpg,layer0-5/layer0-5_T10_to_T5.jpg,TT,layer0-5,0.0,49.0,49.0,49.0,,,,,,,,,545.8964200320188,None,1.0,2.086818770971149,545.8964200320188,None,545.8964200320188,None,545.8964200320188,None,1,2022_Jun_28_1531,Semantic-hierachy,2021.1.2,
50,Trial # 51,layer6-8_O10_to_O8.jpg,layer6-8/layer6-8_O10_to_O8.jpg,OO,layer6-8,0.0,50.0,50.0,50.0,,,,,,,,,548.3808053490357,None,3.0,4.465798563964199,548.3808053490357,None,548.3808053490357,None,548.3808053490357,None,1,2022_Jun_28_1531,Semantic-hierachy,2021.1.2,
51,Trial # 52,layer9-17_O3_to_O5.jpg,layer9-17/layer9-17_O3_to_O5.jpg,OO,layer9-17,0.0,51.0,51.0,51.0,,,,,,,,,555.998978305026,None,2.0,2.592492493975442,555.998978305026,None,555.998978305026,None,555.998978305026,None,1,2022_Jun_28_1531,Semantic-hierachy,2021.1.2,
52,Trial # 53,layer6-8_T1_to_T12.jpg,layer6-8/layer6-8_T1_to_T12.jpg,TT,layer6-8,0.0,52.0,52.0,52.0,,,,,,,,,559.1513123040204,None,4.0,4.059592948004138,559.1513123040204,None,559.1513123040204,None,559.1513123040204,None,1,2022_Jun_28_1531,Semantic-hierachy,2021.1.2,
53,Trial # 54,layer0-5_O4_to_O9.jpg,layer0-5/layer0-5_O4_to_O9.jpg,OO,layer0-5,0.0,53.0,53.0,53.0,,,,,,,,,563.6030090520508,None,1.0,3.0379022160195746,563.6030090520508,None,563.6030090520508,None,563.6030090520508,None,1,2022_Jun_28_1531,Semantic-hierachy,2021.1.2,
54,Trial # 55,layer0-5_O5_to_O9.jpg,layer0-5/layer0-5_O5_to_O9.jpg,OO,layer0-5,0.0,54.0,54.0,54.0,,,,,,,,,567.0194990920136,None,1.0,1.9164121369831264,567.0194990920136,None,567.0194990920136,None,567.0194990920136,None,1,2022_Jun_28_1531,Semantic-hierachy,2021.1.2,
55,Trial # 56,layer0-5_O1_to_O2.jpg,layer0-5/layer0-5_O1_to_O2.jpg,OO,layer0-5,0.0,55.0,55.0,55.0,,,,,,,,,569.3702308710199,None,1.0,1.989509948005434,569.3702308710199,None,569.3702308710199,None,569.3702308710199,None,1,2022_Jun_28_1531,Semantic-hierachy,2021.1.2,
56,Trial # 57,layer9-17_T12_to_T3.jpg,layer9-17/layer9-17_T12_to_T3.jpg,TT,layer9-17,0.0,56.0,56.0,56.0,,,,,,,,,571.7541070840089,None,2.0,2.603157570993062,571.7541070840089,None,571.7541070840089,None,571.7541070840089,None,1,2022_Jun_28_1531,Semantic-hierachy,2021.1.2,
57,Trial # 58,layer0-5_O7_to_O9.jpg,layer0-5/layer0-5_O7_to_O9.jpg,OO,layer0-5,0.0,57.0,57.0,57.0,,,,,,,,,575.2229852279997,None,1.0,2.055688806984108,575.2229852279997,None,575.2229852279997,None,575.2229852279997,None,1,2022_Jun_28_1531,Semantic-hierachy,2021.1.2,
58,Trial # 59,layer0-5_T5_to_T9.jpg,layer0-5/layer0-5_T5_to_T9.jpg,TT,layer0-5,0.0,58.0,58.0,58.0,,,,,,,,,577.9894210520433,None,1.0,1.6290374780073762,577.9894210520433,None,577.9894210520433,None,577.9894210520433,None,1,2022_Jun_28_1531,Semantic-hierachy,2021.1.2,
59,Trial # 60,layer9-17_O1_to_O9.jpg,layer9-17/layer9-17_O1_to_O9.jpg,OO,layer9-17,0.0,59.0,59.0,59.0,,,,,,,,,579.9577964930213,None,1.0,4.73883114696946,579.9577964930213,None,579.9577964930213,None,579.9577964930213,None,1,2022_Jun_28_1531,Semantic-hierachy,2021.1.2,
60,Trial # 61,layer0-5_O6_to_O7.jpg,layer0-5/layer0-5_O6_to_O7.jpg,OO,layer0-5,0.0,60.0,60.0,60.0,,,,,,,,,586.3251827910426,None,1.0,1.5857469380134717,586.3251827910426,None,586.3251827910426,None,586.3251827910426,None,1,2022_Jun_28_1531,Semantic-hierachy,2021.1.2,
61,Trial # 62,layer9-17_T5_to_T6.jpg,layer9-17/layer9-17_T5_to_T6.jpg,TT,layer9-17,0.0,61.0,61.0,61.0,,,,,,,,,588.3095845640055,None,2.0,8.740887916006614,588.3095845640055,None,588.3095845640055,None,588.3095845640055,None,1,2022_Jun_28_1531,Semantic-hierachy,2021.1.2,
62,Trial # 63,layer9-17_T4_to_T9.jpg,layer9-17/layer9-17_T4_to_T9.jpg,TT,layer9-17,0.0,62.0,62.0,62.0,,,,,,,,,597.7285712630255,None,2.0,1.5092769030015916,597.7285712630255,None,597.7285712630255,None,597.7285712630255,None,1,2022_Jun_28_1531,Semantic-hierachy,2021.1.2,
63,Trial # 64,layer0-5_O11_to_T1.jpg,layer0-5/layer0-5_O11_to_T1.jpg,OT,layer0-5,0.0,63.0,63.0,63.0,,,,,,,,,599.6970418260316,None,1.0,1.609771406976506,599.6970418260316,None,599.6970418260316,None,599.6970418260316,None,1,2022_Jun_28_1531,Semantic-hierachy,2021.1.2,
64,Trial # 65,layer6-8_T5_to_T9.jpg,layer6-8/layer6-8_T5_to_T9.jpg,TT,layer6-8,0.0,64.0,64.0,64.0,,,,,,,,,601.6633159670164,None,4.0,6.131771077984013,601.6633159670164,None,601.6633159670164,None,601.6633159670164,None,1,2022_Jun_28_1531,Semantic-hierachy,2021.1.2,
65,Trial # 66,layer0-5_T4_to_T7.jpg,layer0-5/layer0-5_T4_to_T7.jpg,TT,layer0-5,0.0,65.0,65.0,65.0,,,,,,,,,608.2321679060115,None,1.0,2.3536703389836475,608.2321679060115,None,608.2321679060115,None,608.2321679060115,None,1,2022_Jun_28_1531,Semantic-hierachy,2021.1.2,
66,Trial # 67,layer0-5_O2_to_O6.jpg,layer0-5/layer0-5_O2_to_O6.jpg,OO,layer0-5,0.0,66.0,66.0,66.0,,,,,,,,,610.9995962360408,None,1.0,1.3730081869871356,610.9995962360408,None,610.9995962360408,None,610.9995962360408,None,1,2022_Jun_28_1531,Semantic-hierachy,2021.1.2,
67,Trial # 68,layer9-17_O12_to_T3.jpg,layer9-17/layer9-17_O12_to_T3.jpg,OT,layer9-17,0.0,67.0,67.0,67.0,,,,,,,,,612.7673025310505,None,2.0,2.3034557590144686,612.7673025310505,None,612.7673025310505,None,612.7673025310505,None,1,2022_Jun_28_1531,Semantic-hierachy,2021.1.2,
68,Trial # 69,layer9-17_O7_to_O9.jpg,layer9-17/layer9-17_O7_to_O9.jpg,OO,layer9-17,0.0,68.0,68.0,68.0,,,,,,,,,615.6510230620042,None,4.0,4.166708409960847,615.6510230620042,None,615.6510230620042,None,615.6510230620042,None,1,2022_Jun_28_1531,Semantic-hierachy,2021.1.2,
69,Trial # 70,layer9-17_T1_to_T8.jpg,layer9-17/layer9-17_T1_to_T8.jpg,TT,layer9-17,0.0,69.0,69.0,69.0,,,,,,,,,620.4203012600192,None,4.0,4.8531508930027485,620.4203012600192,None,620.4203012600192,None,620.4203012600192,None,1,2022_Jun_28_1531,Semantic-hierachy,2021.1.2,
70,Trial # 71,layer0-5_O3_to_T8.jpg,layer0-5/layer0-5_O3_to_T8.jpg,OT,layer0-5,0.0,70.0,70.0,70.0,,,,,,,,,626.9709092100384,None,1.0,2.2121534409816377,626.9709092100384,None,626.9709092100384,None,626.9709092100384,None,1,2022_Jun_28_1531,Semantic-hierachy,2021.1.2,
71,Trial # 72,layer9-17_O9_to_T2.jpg,layer9-17/layer9-17_O9_to_T2.jpg,OT,layer9-17,0.0,71.0,71.0,71.0,,,,,,,,,629.6890238440246,None,4.0,6.371290874958504,629.6890238440246,None,629.6890238440246,None,629.6890238440246,None,1,2022_Jun_28_1531,Semantic-hierachy,2021.1.2,
72,Trial # 73,layer9-17_O5_to_O7.jpg,layer9-17/layer9-17_O5_to_O7.jpg,OO,layer9-17,0.0,72.0,72.0,72.0,,,,,,,,,636.6575308970059,None,2.0,2.641584493976552,636.6575308970059,None,636.6575308970059,None,636.6575308970059,None,1,2022_Jun_28_1531,Semantic-hierachy,2021.1.2,
73,Trial # 74,layer0-5_T11_to_T9.jpg,layer0-5/layer0-5_T11_to_T9.jpg,TT,layer0-5,0.0,73.0,73.0,73.0,,,,,,,,,639.6262325470452,None,1.0,1.5434934560325928,639.6262325470452,None,639.6262325470452,None,639.6262325470452,None,1,2022_Jun_28_1531,Semantic-hierachy,2021.1.2,
74,Trial # 75,layer0-5_O11_to_T12.jpg,layer0-5/layer0-5_O11_to_T12.jpg,OT,layer0-5,0.0,74.0,74.0,74.0,,,,,,,,,641.4756471069995,None,1.0,1.5638260670239106,641.4756471069995,None,641.4756471069995,None,641.4756471069995,None,1,2022_Jun_28_1531,Semantic-hierachy,2021.1.2,
75,Trial # 76,layer9-17_T7_to_T9.jpg,layer9-17/layer9-17_T7_to_T9.jpg,TT,layer9-17,0.0,75.0,75.0,75.0,,,,,,,,,643.3592750760145,None,4.0,4.202400613983627,643.3592750760145,None,643.3592750760145,None,643.3592750760145,None,1,2022_Jun_28_1531,Semantic-hierachy,2021.1.2,
76,Trial # 77,layer6-8_O6_to_T2.jpg,layer6-8/layer6-8_O6_to_T2.jpg,OT,layer6-8,0.0,76.0,76.0,76.0,,,,,,,,,647.8770858970238,None,4.0,3.1566553589655086,647.8770858970238,None,647.8770858970238,None,647.8770858970238,None,1,2022_Jun_28_1531,Semantic-hierachy,2021.1.2,
77,Trial # 78,layer9-17_T4_to_T5.jpg,layer9-17/layer9-17_T4_to_T5.jpg,TT,layer9-17,0.0,77.0,77.0,77.0,,,,,,,,,651.345537109999,None,3.0,11.1636731440085,651.345537109999,None,651.345537109999,None,651.345537109999,None,1,2022_Jun_28_1531,Semantic-hierachy,2021.1.2,
78,Trial # 79,layer0-5_T2_to_T4.jpg,layer0-5/layer0-5_T2_to_T4.jpg,TT,layer0-5,0.0,78.0,78.0,78.0,,,,,,,,,663.766057860048,None,1.0,2.3264532780158333,663.766057860048,None,663.766057860048,None,663.766057860048,None,1,2022_Jun_28_1531,Semantic-hierachy,2021.1.2,
79,Trial # 80,layer0-5_T2_to_T8.jpg,layer0-5/layer0-5_T2_to_T8.jpg,TT,layer0-5,0.0,79.0,79.0,79.0,,,,,,,,,666.5834519750206,None,1.0,1.5527838679845445,666.5834519750206,None,666.5834519750206,None,666.5834519750206,None,1,2022_Jun_28_1531,Semantic-hierachy,2021.1.2,
80,Trial # 81,layer9-17_T3_to_T9.jpg,layer9-17/layer9-17_T3_to_T9.jpg,TT,layer9-17,0.0,80.0,80.0,80.0,,,,,,,,,668.5509505850496,None,2.0,3.221837721997872,668.5509505850496,None,668.5509505850496,None,668.5509505850496,None,1,2022_Jun_28_1531,Semantic-hierachy,2021.1.2,
81,Trial # 82,layer9-17_O2_to_O5.jpg,layer9-17/layer9-17_O2_to_O5.jpg,OO,layer9-17,0.0,81.0,81.0,81.0,,,,,,,,,672.1019240130554,None,2.0,1.2934594379621558,672.1019240130554,None,672.1019240130554,None,672.1019240130554,None,1,2022_Jun_28_1531,Semantic-hierachy,2021.1.2,
82,Trial # 83,layer6-8_O6_to_O7.jpg,layer6-8/layer6-8_O6_to_O7.jpg,OO,layer6-8,0.0,82.0,82.0,82.0,,,,,,,,,673.9866201400291,None,4.0,2.527751456014812,673.9866201400291,None,673.9866201400291,None,673.9866201400291,None,1,2022_Jun_28_1531,Semantic-hierachy,2021.1.2,
83,Trial # 84,layer9-17_O11_to_T1.jpg,layer9-17/layer9-17_O11_to_T1.jpg,OT,layer9-17,0.0,83.0,83.0,83.0,,,,,,,,,677.0871480970527,None,2.0,1.7460722380201332,677.0871480970527,None,677.0871480970527,None,677.0871480970527,None,1,2022_Jun_28_1531,Semantic-hierachy,2021.1.2,
84,Trial # 85,layer6-8_O5_to_T12.jpg,layer6-8/layer6-8_O5_to_T12.jpg,OT,layer6-8,0.0,84.0,84.0,84.0,,,,,,,,,679.2550372170517,None,3.0,2.5563715280150063,679.2550372170517,None,679.2550372170517,None,679.2550372170517,None,1,2022_Jun_28_1531,Semantic-hierachy,2021.1.2,
85,Trial # 86,layer6-8_O4_to_O7.jpg,layer6-8/layer6-8_O4_to_O7.jpg,OO,layer6-8,0.0,85.0,85.0,85.0,,,,,,,,,682.1883555180393,None,4.0,2.2799134769593365,682.1883555180393,None,682.1883555180393,None,682.1883555180393,None,1,2022_Jun_28_1531,Semantic-hierachy,2021.1.2,
86,Trial # 87,layer6-8_T10_to_T8.jpg,layer6-8/layer6-8_T10_to_T8.jpg,TT,layer6-8,0.0,86.0,86.0,86.0,,,,,,,,,684.8063715010067,None,2.0,5.120386224996764,684.8063715010067,None,684.8063715010067,None,684.8063715010067,None,1,2022_Jun_28_1531,Semantic-hierachy,2021.1.2,
87,Trial # 88,layer6-8_O10_to_T3.jpg,layer6-8/layer6-8_O10_to_T3.jpg,OT,layer6-8,0.0,87.0,87.0,87.0,,,,,,,,,693.9762203790015,None,3.0,2.4126872799824923,693.9762203790015,None,693.9762203790015,None,693.9762203790015,None,1,2022_Jun_28_1531,Semantic-hierachy,2021.1.2,
88,Trial # 89,layer6-8_O5_to_O9.jpg,layer6-8/layer6-8_O5_to_O9.jpg,OO,layer6-8,0.0,88.0,88.0,88.0,,,,,,,,,696.7759357300238,None,4.0,26.269613065989688,696.7759357300238,None,696.7759357300238,None,696.7759357300238,None,1,2022_Jun_28_1531,Semantic-hierachy,2021.1.2,
89,Trial # 90,layer6-8_O10_to_O11.jpg,layer6-8/layer6-8_O10_to_O11.jpg,OO,layer6-8,0.0,89.0,89.0,89.0,,,,,,,,,724.3687877930352,None,4.0,2.973045582999476,724.3687877930352,None,724.3687877930352,None,724.3687877930352,None,1,2022_Jun_28_1531,Semantic-hierachy,2021.1.2,
90,Trial # 91,layer0-5_O4_to_T5.jpg,layer0-5/layer0-5_O4_to_T5.jpg,OT,layer0-5,0.0,90.0,90.0,90.0,,,,,,,,,727.6693094350048,None,1.0,2.0913867320050485,727.6693094350048,None,727.6693094350048,None,727.6693094350048,None,1,2022_Jun_28_1531,Semantic-hierachy,2021.1.2,
91,Trial # 92,layer0-5_T11_to_T12.jpg,layer0-5/layer0-5_T11_to_T12.jpg,TT,layer0-5,0.0,91.0,91.0,91.0,,,,,,,,,730.1207538930466,None,1.0,1.3600475700222887,730.1207538930466,None,730.1207538930466,None,730.1207538930466,None,1,2022_Jun_28_1531,Semantic-hierachy,2021.1.2,
92,Trial # 93,layer0-5_T10_to_T3.jpg,layer0-5/layer0-5_T10_to_T3.jpg,TT,layer0-5,0.0,92.0,92.0,92.0,,,,,,,,,731.8372160660219,None,1.0,1.8362628979957665,731.8372160660219,None,731.8372160660219,None,731.8372160660219,None,1,2022_Jun_28_1531,Semantic-hierachy,2021.1.2,
93,Trial # 94,layer0-5_O2_to_O8.jpg,layer0-5/layer0-5_O2_to_O8.jpg,OO,layer0-5,0.0,93.0,93.0,93.0,,,,,,,,,735.0389668560238,None,1.0,1.4843571069650352,735.0389668560238,None,735.0389668560238,None,735.0389668560238,None,1,2022_Jun_28_1531,Semantic-hierachy,2021.1.2,
94,Trial # 95,layer0-5_T3_to_T8.jpg,layer0-5/layer0-5_T3_to_T8.jpg,TT,layer0-5,0.0,94.0,94.0,94.0,,,,,,,,,736.9050625780364,None,1.0,1.4849299779743887,736.9050625780364,None,736.9050625780364,None,736.9050625780364,None,1,2022_Jun_28_1531,Semantic-hierachy,2021.1.2,
95,Trial # 96,layer0-5_O7_to_O8.jpg,layer0-5/layer0-5_O7_to_O8.jpg,OO,layer0-5,0.0,95.0,95.0,95.0,,,,,,,,,738.7225910290144,None,1.0,2.2046403129934333,738.7225910290144,None,738.7225910290144,None,738.7225910290144,None,1,2022_Jun_28_1531,Semantic-hierachy,2021.1.2,
96,Trial # 97,layer6-8_T10_to_T6.jpg,layer6-8/layer6-8_T10_to_T6.jpg,TT,layer6-8,0.0,96.0,96.0,96.0,,,,,,,,,741.5569407330477,None,4.0,10.374721481988672,741.5569407330477,None,741.5569407330477,None,741.5569407330477,None,1,2022_Jun_28_1531,Semantic-hierachy,2021.1.2,
97,Trial # 98,layer0-5_O1_to_O5.jpg,layer0-5/layer0-5_O1_to_O5.jpg,OO,layer0-5,0.0,97.0,97.0,97.0,,,,,,,,,752.7765717820148,None,1.0,1.82143581903074,752.7765717820148,None,752.7765717820148,None,752.7765717820148,None,1,2022_Jun_28_1531,Semantic-hierachy,2021.1.2,
98,Trial # 99,layer6-8_O1_to_O6.jpg,layer6-8/layer6-8_O1_to_O6.jpg,OO,layer6-8,0.0,98.0,98.0,98.0,,,,,,,,,754.8454007340479,None,4.0,3.5682557050022297,754.8454007340479,None,754.8454007340479,None,754.8454007340479,None,1,2022_Jun_28_1531,Semantic-hierachy,2021.1.2,
99,Trial # 100,layer6-8_O3_to_T1.jpg,layer6-8/layer6-8_O3_to_T1.jpg,OT,layer6-8,0.0,99.0,99.0,99.0,,,,,,,,,758.9457163879997,None,3.0,2.4397237519733608,758.9457163879997,None,758.9457163879997,None,758.9457163879997,None,1,2022_Jun_28_1531,Semantic-hierachy,2021.1.2,
100,Trial # 101,layer6-8_T1_to_T9.jpg,layer6-8/layer6-8_T1_to_T9.jpg,TT,layer6-8,0.0,100.0,100.0,100.0,,,,,,,,,761.6960108590429,None,4.0,3.8195082399761295,761.6960108590429,None,761.6960108590429,None,761.6960108590429,None,1,2022_Jun_28_1531,Semantic-hierachy,2021.1.2,
101,Trial # 102,layer9-17_O12_to_O6.jpg,layer9-17/layer9-17_O12_to_O6.jpg,OO,layer9-17,0.0,101.0,101.0,101.0,,,,,,,,,765.8819514250499,None,2.0,4.274492579977959,765.8819514250499,None,765.8819514250499,None,765.8819514250499,None,1,2022_Jun_28_1531,Semantic-hierachy,2021.1.2,
102,Trial # 103,layer0-5_T4_to_T9.jpg,layer0-5/layer0-5_T4_to_T9.jpg,TT,layer0-5,0.0,102.0,102.0,102.0,,,,,,,,,770.6164941080497,None,1.0,1.8405718490248544,770.6164941080497,None,770.6164941080497,None,770.6164941080497,None,1,2022_Jun_28_1531,Semantic-hierachy,2021.1.2,
103,Trial # 104,layer6-8_O10_to_T1.jpg,layer6-8/layer6-8_O10_to_T1.jpg,OT,layer6-8,0.0,103.0,103.0,103.0,,,,,,,,,772.7163100920152,None,3.0,2.2949967879685573,772.7163100920152,None,772.7163100920152,None,772.7163100920152,None,1,2022_Jun_28_1531,Semantic-hierachy,2021.1.2,
104,Trial # 105,layer0-5_O6_to_T2.jpg,layer0-5/layer0-5_O6_to_T2.jpg,OT,layer0-5,0.0,104.0,104.0,104.0,,,,,,,,,775.3516048670281,None,1.0,1.6578553820145316,775.3516048670281,None,775.3516048670281,None,775.3516048670281,None,1,2022_Jun_28_1531,Semantic-hierachy,2021.1.2,
105,Trial # 106,layer9-17_T11_to_T2.jpg,layer9-17/layer9-17_T11_to_T2.jpg,TT,layer9-17,0.0,105.0,105.0,105.0,,,,,,,,,777.483701484045,None,2.0,1.7047450870159082,777.483701484045,None,777.483701484045,None,777.483701484045,None,1,2022_Jun_28_1531,Semantic-hierachy,2021.1.2,
106,Trial # 107,layer9-17_O12_to_O8.jpg,layer9-17/layer9-17_O12_to_O8.jpg,OO,layer9-17,0.0,106.0,106.0,106.0,,,,,,,,,779.6028533560457,None,2.0,3.481493224971928,779.6028533560457,None,779.6028533560457,None,779.6028533560457,None,1,2022_Jun_28_1531,Semantic-hierachy,2021.1.2,
107,Trial # 108,layer0-5_T12_to_T3.jpg,layer0-5/layer0-5_T12_to_T3.jpg,TT,layer0-5,0.0,107.0,107.0,107.0,,,,,,,,,783.4363024020568,None,1.0,2.889198242977727,783.4363024020568,None,783.4363024020568,None,783.4363024020568,None,1,2022_Jun_28_1531,Semantic-hierachy,2021.1.2,
108,Trial # 109,layer0-5_T1_to_T10.jpg,layer0-5/layer0-5_T1_to_T10.jpg,TT,layer0-5,0.0,108.0,108.0,108.0,,,,,,,,,788.0210786500247,None,1.0,1.5088620189926587,788.0210786500247,None,788.0210786500247,None,788.0210786500247,None,1,2022_Jun_28_1531,Semantic-hierachy,2021.1.2,
109,Trial # 110,layer6-8_O4_to_T5.jpg,layer6-8/layer6-8_O4_to_T5.jpg,OT,layer6-8,0.0,109.0,109.0,109.0,,,,,,,,,789.8393784610089,None,3.0,4.270532127004117,789.8393784610089,None,789.8393784610089,None,789.8393784610089,None,1,2022_Jun_28_1531,Semantic-hierachy,2021.1.2,
110,Trial # 111,layer9-17_O11_to_O7.jpg,layer9-17/layer9-17_O11_to_O7.jpg,OO,layer9-17,0.0,110.0,110.0,110.0,,,,,,,,,794.5063934050268,None,2.0,2.09115470800316,794.5063934050268,None,794.5063934050268,None,794.5063934050268,None,1,2022_Jun_28_1531,Semantic-hierachy,2021.1.2,
111,Trial # 112,layer0-5_O5_to_O8.jpg,layer0-5/layer0-5_O5_to_O8.jpg,OO,layer0-5,0.0,111.0,111.0,111.0,,,,,,,,,797.0242373620276,None,1.0,1.96043583896244,797.0242373620276,None,797.0242373620276,None,797.0242373620276,None,1,2022_Jun_28_1531,Semantic-hierachy,2021.1.2,
112,Trial # 113,layer0-5_O10_to_O4.jpg,layer0-5/layer0-5_O10_to_O4.jpg,OO,layer0-5,0.0,112.0,112.0,112.0,,,,,,,,,799.4424650200526,None,1.0,1.7393628529971463,799.4424650200526,None,799.4424650200526,None,799.4424650200526,None,1,2022_Jun_28_1531,Semantic-hierachy,2021.1.2,
113,Trial # 114,layer9-17_O4_to_O8.jpg,layer9-17/layer9-17_O4_to_O8.jpg,OO,layer9-17,0.0,113.0,113.0,113.0,,,,,,,,,801.6084202430211,None,2.0,6.623167510027997,801.6084202430211,None,801.6084202430211,None,801.6084202430211,None,1,2022_Jun_28_1531,Semantic-hierachy,2021.1.2,
114,Trial # 115,layer0-5_O2_to_T8.jpg,layer0-5/layer0-5_O2_to_T8.jpg,OT,layer0-5,0.0,114.0,114.0,114.0,,,,,,,,,808.5611385590164,None,1.0,1.4518294099834748,808.5611385590164,None,808.5611385590164,None,808.5611385590164,None,1,2022_Jun_28_1531,Semantic-hierachy,2021.1.2,
115,Trial # 116,layer9-17_T2_to_T3.jpg,layer9-17/layer9-17_T2_to_T3.jpg,TT,layer9-17,0.0,115.0,115.0,115.0,,,,,,,,,810.728024171025,None,2.0,2.1069170059636235,810.728024171025,None,810.728024171025,None,810.728024171025,None,1,2022_Jun_28_1531,Semantic-hierachy,2021.1.2,
116,Trial # 117,layer6-8_O1_to_T10.jpg,layer6-8/layer6-8_O1_to_T10.jpg,OT,layer6-8,0.0,116.0,116.0,116.0,,,,,,,,,813.2955397750484,None,3.0,1.9798117780010216,813.2955397750484,None,813.2955397750484,None,813.2955397750484,None,1,2022_Jun_28_1531,Semantic-hierachy,2021.1.2,
117,Trial # 118,layer0-5_T3_to_T7.jpg,layer0-5/layer0-5_T3_to_T7.jpg,TT,layer0-5,0.0,117.0,117.0,117.0,,,,,,,,,815.9297412960441,None,1.0,1.9433756659855133,815.9297412960441,None,815.9297412960441,None,815.9297412960441,None,1,2022_Jun_28_1531,Semantic-hierachy,2021.1.2,
118,Trial # 119,layer9-17_O1_to_O12.jpg,layer9-17/layer9-17_O1_to_O12.jpg,OO,layer9-17,0.0,118.0,118.0,118.0,,,,,,,,,818.1631349230302,None,2.0,1.7756782729993574,818.1631349230302,None,818.1631349230302,None,818.1631349230302,None,1,2022_Jun_28_1531,Semantic-hierachy,2021.1.2,
119,Trial # 120,layer6-8_O12_to_O2.jpg,layer6-8/layer6-8_O12_to_O2.jpg,OO,layer6-8,0.0,119.0,119.0,119.0,,,,,,,,,820.2808019570075,None,4.0,4.326398490986321,820.2808019570075,None,820.2808019570075,None,820.2808019570075,None,1,2022_Jun_28_1531,Semantic-hierachy,2021.1.2,
120,Trial # 121,layer9-17_O10_to_O9.jpg,layer9-17/layer9-17_O10_to_O9.jpg,OO,layer9-17,0.0,120.0,120.0,120.0,,,,,,,,,825.0662886060309,None,2.0,1.6228573870030232,825.0662886060309,None,825.0662886060309,None,825.0662886060309,None,1,2022_Jun_28_1531,Semantic-hierachy,2021.1.2,
121,Trial # 122,layer6-8_O4_to_T10.jpg,layer6-8/layer6-8_O4_to_T10.jpg,OT,layer6-8,0.0,121.0,121.0,121.0,,,,,,,,,826.982842818019,None,4.0,6.361995521001518,826.982842818019,None,826.982842818019,None,826.982842818019,None,1,2022_Jun_28_1531,Semantic-hierachy,2021.1.2,
122,Trial # 123,layer6-8_O2_to_T3.jpg,layer6-8/layer6-8_O2_to_T3.jpg,OT,layer6-8,0.0,122.0,122.0,122.0,,,,,,,,,833.8863889460335,None,4.0,8.440760396013502,833.8863889460335,None,833.8863889460335,None,833.8863889460335,None,1,2022_Jun_28_1531,Semantic-hierachy,2021.1.2,
123,Trial # 124,layer0-5_O1_to_O7.jpg,layer0-5/layer0-5_O1_to_O7.jpg,OO,layer0-5,0.0,123.0,123.0,123.0,,,,,,,,,842.7878181270207,None,1.0,1.6235698020318523,842.7878181270207,None,842.7878181270207,None,842.7878181270207,None,1,2022_Jun_28_1531,Semantic-hierachy,2021.1.2,
124,Trial # 125,layer0-5_T8_to_T9.jpg,layer0-5/layer0-5_T8_to_T9.jpg,TT,layer0-5,0.0,124.0,124.0,124.0,,,,,,,,,844.6890870100469,None,1.0,2.074670112982858,844.6890870100469,None,844.6890870100469,None,844.6890870100469,None,1,2022_Jun_28_1531,Semantic-hierachy,2021.1.2,
125,Trial # 126,layer0-5_O12_to_T8.jpg,layer0-5/layer0-5_O12_to_T8.jpg,OT,layer0-5,0.0,125.0,125.0,125.0,,,,,,,,,847.0393906410318,None,1.0,2.0563702599611133,847.0393906410318,None,847.0393906410318,None,847.0393906410318,None,1,2022_Jun_28_1531,Semantic-hierachy,2021.1.2,
126,Trial # 127,layer9-17_O4_to_O6.jpg,layer9-17/layer9-17_O4_to_O6.jpg,OO,layer9-17,0.0,126.0,126.0,126.0,,,,,,,,,849.4909268570482,None,2.0,4.196288277977146,849.4909268570482,None,849.4909268570482,None,849.4909268570482,None,1,2022_Jun_28_1531,Semantic-hierachy,2021.1.2,
127,Trial # 128,layer6-8_O12_to_O6.jpg,layer6-8/layer6-8_O12_to_O6.jpg,OO,layer6-8,0.0,127.0,127.0,127.0,,,,,,,,,854.0091555790277,None,3.0,6.927491855982225,854.0091555790277,None,854.0091555790277,None,854.0091555790277,None,1,2022_Jun_28_1531,Semantic-hierachy,2021.1.2,
128,Trial # 129,layer0-5_T4_to_T6.jpg,layer0-5/layer0-5_T4_to_T6.jpg,TT,layer0-5,0.0,128.0,128.0,128.0,,,,,,,,,862.7603797350312,None,1.0,2.331179576984141,862.7603797350312,None,862.7603797350312,None,862.7603797350312,None,1,2022_Jun_28_1531,Semantic-hierachy,2021.1.2,
129,Trial # 130,layer9-17_O1_to_O3.jpg,layer9-17/layer9-17_O1_to_O3.jpg,OO,layer9-17,0.0,129.0,129.0,129.0,,,,,,,,,865.7290145260049,None,2.0,1.926823677029461,865.7290145260049,None,865.7290145260049,None,865.7290145260049,None,1,2022_Jun_28_1531,Semantic-hierachy,2021.1.2,
130,Trial # 131,layer9-17_O10_to_O3.jpg,layer9-17/layer9-17_O10_to_O3.jpg,OO,layer9-17,0.0,130.0,130.0,130.0,,,,,,,,,869.6968541259994,None,2.0,1.3632008849526756,869.6968541259994,None,869.6968541259994,None,869.6968541259994,None,1,2022_Jun_28_1531,Semantic-hierachy,2021.1.2,
131,Trial # 132,layer9-17_O12_to_O3.jpg,layer9-17/layer9-17_O12_to_O3.jpg,OO,layer9-17,0.0,131.0,131.0,131.0,,,,,,,,,871.3965899410541,None,2.0,1.407989361032378,871.3965899410541,None,871.3965899410541,None,871.3965899410541,None,1,2022_Jun_28_1531,Semantic-hierachy,2021.1.2,
132,Trial # 133,layer9-17_O11_to_O4.jpg,layer9-17/layer9-17_O11_to_O4.jpg,OO,layer9-17,0.0,132.0,132.0,132.0,,,,,,,,,873.080815777008,None,4.0,6.024857455980964,873.080815777008,None,873.080815777008,None,873.080815777008,None,1,2022_Jun_28_1531,Semantic-hierachy,2021.1.2,
133,Trial # 134,layer9-17_T4_to_T7.jpg,layer9-17/layer9-17_T4_to_T7.jpg,TT,layer9-17,0.0,133.0,133.0,133.0,,,,,,,,,879.7500831010402,None,2.0,1.791399362962693,879.7500831010402,None,879.7500831010402,None,879.7500831010402,None,1,2022_Jun_28_1531,Semantic-hierachy,2021.1.2,
134,Trial # 135,layer9-17_O1_to_T1.jpg,layer9-17/layer9-17_O1_to_T1.jpg,OT,layer9-17,0.0,134.0,134.0,134.0,,,,,,,,,881.8009092330467,None,2.0,2.370379173953552,881.8009092330467,None,881.8009092330467,None,881.8009092330467,None,1,2022_Jun_28_1531,Semantic-hierachy,2021.1.2,
135,Trial # 136,layer6-8_T2_to_T5.jpg,layer6-8/layer6-8_T2_to_T5.jpg,TT,layer6-8,0.0,135.0,135.0,135.0,,,,,,,,,884.5350841020118,None,4.0,3.273512569023296,884.5350841020118,None,884.5350841020118,None,884.5350841020118,None,1,2022_Jun_28_1531,Semantic-hierachy,2021.1.2,
136,Trial # 137,layer9-17_T11_to_T7.jpg,layer9-17/layer9-17_T11_to_T7.jpg,TT,layer9-17,0.0,136.0,136.0,136.0,,,,,,,,,888.1856087070191,None,2.0,1.537723970017396,888.1856087070191,None,888.1856087070191,None,888.1856087070191,None,1,2022_Jun_28_1531,Semantic-hierachy,2021.1.2,
137,Trial # 138,layer6-8_O3_to_O8.jpg,layer6-8/layer6-8_O3_to_O8.jpg,OO,layer6-8,0.0,137.0,137.0,137.0,,,,,,,,,890.020398415043,None,3.0,2.6410302330041304,890.020398415043,None,890.020398415043,None,890.020398415043,None,1,2022_Jun_28_1531,Semantic-hierachy,2021.1.2,
138,Trial # 139,layer6-8_O1_to_T7.jpg,layer6-8/layer6-8_O1_to_T7.jpg,OT,layer6-8,0.0,138.0,138.0,138.0,,,,,,,,,893.3365899600321,None,3.0,1.4805745449848473,893.3365899600321,None,893.3365899600321,None,893.3365899600321,None,1,2022_Jun_28_1531,Semantic-hierachy,2021.1.2,
139,Trial # 140,layer9-17_T1_to_T3.jpg,layer9-17/layer9-17_T1_to_T3.jpg,TT,layer9-17,0.0,139.0,139.0,139.0,,,,,,,,,895.2040930230287,None,4.0,8.42289075901499,895.2040930230287,None,895.2040930230287,None,895.2040930230287,None,1,2022_Jun_28_1531,Semantic-hierachy,2021.1.2,
140,Trial # 141,layer6-8_O10_to_O12.jpg,layer6-8/layer6-8_O10_to_O12.jpg,OO,layer6-8,0.0,140.0,140.0,140.0,,,,,,,,,904.0411271100164,None,4.0,2.6735659910482354,904.0411271100164,None,904.0411271100164,None,904.0411271100164,None,1,2022_Jun_28_1531,Semantic-hierachy,2021.1.2,
141,Trial # 142,layer6-8_O12_to_T11.jpg,layer6-8/layer6-8_O12_to_T11.jpg,OT,layer6-8,0.0,141.0,141.0,141.0,,,,,,,,,908.274678694026,None,4.0,5.042236506997142,908.274678694026,None,908.274678694026,None,908.274678694026,None,1,2022_Jun_28_1531,Semantic-hierachy,2021.1.2,
142,Trial # 143,layer0-5_O11_to_O5.jpg,layer0-5/layer0-5_O11_to_O5.jpg,OO,layer0-5,0.0,142.0,142.0,142.0,,,,,,,,,913.5939869440044,None,1.0,1.9248128570034169,913.5939869440044,None,913.5939869440044,None,913.5939869440044,None,1,2022_Jun_28_1531,Semantic-hierachy,2021.1.2,
143,Trial # 144,layer6-8_O1_to_O8.jpg,layer6-8/layer6-8_O1_to_O8.jpg,OO,layer6-8,0.0,143.0,143.0,143.0,,,,,,,,,915.8605585520272,None,3.0,5.208849034039304,915.8605585520272,None,915.8605585520272,None,915.8605585520272,None,1,2022_Jun_28_1531,Semantic-hierachy,2021.1.2,
144,Trial # 145,layer0-5_T2_to_T5.jpg,layer0-5/layer0-5_T2_to_T5.jpg,TT,layer0-5,0.0,144.0,144.0,144.0,,,,,,,,,921.4790964690036,None,1.0,1.9166557189892048,921.4790964690036,None,921.4790964690036,None,921.4790964690036,None,1,2022_Jun_28_1531,Semantic-hierachy,2021.1.2,
145,Trial # 146,layer9-17_O8_to_T3.jpg,layer9-17/layer9-17_O8_to_T3.jpg,OT,layer9-17,0.0,145.0,145.0,145.0,,,,,,,,,923.797587558045,None,2.0,1.731945808045566,923.797587558045,None,923.797587558045,None,923.797587558045,None,1,2022_Jun_28_1531,Semantic-hierachy,2021.1.2,
146,Trial # 147,layer9-17_O8_to_T4.jpg,layer9-17/layer9-17_O8_to_T4.jpg,OT,layer9-17,0.0,146.0,146.0,146.0,,,,,,,,,926.2967658210546,None,4.0,2.9202888919971883,926.2967658210546,None,926.2967658210546,None,926.2967658210546,None,1,2022_Jun_28_1531,Semantic-hierachy,2021.1.2,
147,Trial # 148,layer9-17_O4_to_T9.jpg,layer9-17/layer9-17_O4_to_T9.jpg,OT,layer9-17,0.0,147.0,147.0,147.0,,,,,,,,,929.9319346770062,None,2.0,1.906595615029801,929.9319346770062,None,929.9319346770062,None,929.9319346770062,None,1,2022_Jun_28_1531,Semantic-hierachy,2021.1.2,
148,Trial # 149,layer6-8_O4_to_O8.jpg,layer6-8/layer6-8_O4_to_O8.jpg,OO,layer6-8,0.0,148.0,148.0,148.0,,,,,,,,,932.3656133670012,None,4.0,11.864980412996374,932.3656133670012,None,932.3656133670012,None,932.3656133670012,None,1,2022_Jun_28_1531,Semantic-hierachy,2021.1.2,
149,Trial # 150,layer0-5_O12_to_T7.jpg,layer0-5/layer0-5_O12_to_T7.jpg,OT,layer0-5,0.0,149.0,149.0,149.0,,,,,,,,,944.5862159710376,None,1.0,2.031675325008109,944.5862159710376,None,944.5862159710376,None,944.5862159710376,None,1,2022_Jun_28_1531,Semantic-hierachy,2021.1.2,
150,Trial # 151,layer6-8_T1_to_T3.jpg,layer6-8/layer6-8_T1_to_T3.jpg,TT,layer6-8,,,,,0.0,0.0,0.0,0.0,,,,,949.3887286280516,None,4.0,5.133913109020796,949.3887286280516,None,949.3887286280516,None,949.3887286280516,None,1,2022_Jun_28_1531,Semantic-hierachy,2021.1.2,
151,Trial # 152,layer0-5_O8_to_O9.jpg,layer0-5/layer0-5_O8_to_O9.jpg,OO,layer0-5,,,,,0.0,1.0,1.0,1.0,,,,,955.3573055020534,None,1.0,1.7372739470447414,955.3573055020534,None,955.3573055020534,None,955.3573055020534,None,1,2022_Jun_28_1531,Semantic-hierachy,2021.1.2,
152,Trial # 153,layer9-17_T1_to_T5.jpg,layer9-17/layer9-17_T1_to_T5.jpg,TT,layer9-17,,,,,0.0,2.0,2.0,2.0,,,,,957.4234074800042,None,2.0,1.5279893429833464,957.4234074800042,None,957.4234074800042,None,957.4234074800042,None,1,2022_Jun_28_1531,Semantic-hierachy,2021.1.2,
153,Trial # 154,layer6-8_T7_to_T9.jpg,layer6-8/layer6-8_T7_to_T9.jpg,TT,layer6-8,,,,,0.0,3.0,3.0,3.0,,,,,959.3083758720312,None,4.0,3.469074426975567,959.3083758720312,None,959.3083758720312,None,959.3083758720312,None,1,2022_Jun_28_1531,Semantic-hierachy,2021.1.2,
154,Trial # 155,layer9-17_T12_to_T7.jpg,layer9-17/layer9-17_T12_to_T7.jpg,TT,layer9-17,,,,,0.0,4.0,4.0,4.0,,,,,963.2079681670292,None,2.0,3.0640972980181687,963.2079681670292,None,963.2079681670292,None,963.2079681670292,None,1,2022_Jun_28_1531,Semantic-hierachy,2021.1.2,
155,Trial # 156,layer0-5_O8_to_T11.jpg,layer0-5/layer0-5_O8_to_T11.jpg,OT,layer0-5,,,,,0.0,5.0,5.0,5.0,,,,,966.9764938010484,None,1.0,1.7735033259959891,966.9764938010484,None,966.9764938010484,None,966.9764938010484,None,1,2022_Jun_28_1531,Semantic-hierachy,2021.1.2,
156,Trial # 157,layer0-5_O1_to_O9.jpg,layer0-5/layer0-5_O1_to_O9.jpg,OO,layer0-5,,,,,0.0,6.0,6.0,6.0,,,,,969.2104403530248,None,1.0,1.3950609110179355,969.2104403530248,None,969.2104403530248,None,969.2104403530248,None,1,2022_Jun_28_1531,Semantic-hierachy,2021.1.2,
157,Trial # 158,layer0-5_O10_to_O12.jpg,layer0-5/layer0-5_O10_to_O12.jpg,OO,layer0-5,,,,,0.0,7.0,7.0,7.0,,,,,970.9274875010016,None,1.0,1.2100259689614177,970.9274875010016,None,970.9274875010016,None,970.9274875010016,None,1,2022_Jun_28_1531,Semantic-hierachy,2021.1.2,
158,Trial # 159,layer6-8_O10_to_T5.jpg,layer6-8/layer6-8_O10_to_T5.jpg,OT,layer6-8,,,,,0.0,8.0,8.0,8.0,,,,,972.3947384650236,None,1.0,11.466586516995449,972.3947384650236,None,972.3947384650236,None,972.3947384650236,None,1,2022_Jun_28_1531,Semantic-hierachy,2021.1.2,
159,Trial # 160,layer6-8_O5_to_O6.jpg,layer6-8/layer6-8_O5_to_O6.jpg,OO,layer6-8,,,,,0.0,9.0,9.0,9.0,,,,,985.2666257740348,None,4.0,3.2796960279811174,985.2666257740348,None,985.2666257740348,None,985.2666257740348,None,1,2022_Jun_28_1531,Semantic-hierachy,2021.1.2,
160,Trial # 161,layer6-8_O6_to_T11.jpg,layer6-8/layer6-8_O6_to_T11.jpg,OT,layer6-8,,,,,0.0,10.0,10.0,10.0,,,,,988.8501306310064,None,3.0,2.121452154009603,988.8501306310064,None,988.8501306310064,None,988.8501306310064,None,1,2022_Jun_28_1531,Semantic-hierachy,2021.1.2,
161,Trial # 162,layer9-17_O12_to_O9.jpg,layer9-17/layer9-17_O12_to_O9.jpg,OO,layer9-17,,,,,0.0,11.0,11.0,11.0,,,,,991.3005322870448,None,2.0,2.7145924769574776,991.3005322870448,None,991.3005322870448,None,991.3005322870448,None,1,2022_Jun_28_1531,Semantic-hierachy,2021.1.2,
162,Trial # 163,layer6-8_O12_to_T6.jpg,layer6-8/layer6-8_O12_to_T6.jpg,OT,layer6-8,,,,,0.0,12.0,12.0,12.0,,,,,994.3691126090124,None,4.0,5.779071802971885,994.3691126090124,None,994.3691126090124,None,994.3691126090124,None,1,2022_Jun_28_1531,Semantic-hierachy,2021.1.2,
163,Trial # 164,layer0-5_T11_to_T7.jpg,layer0-5/layer0-5_T11_to_T7.jpg,TT,layer0-5,,,,,0.0,13.0,13.0,13.0,,,,,1000.5379193510162,None,1.0,1.974806256999728,1000.5379193510162,None,1000.5379193510162,None,1000.5379193510162,None,1,2022_Jun_28_1531,Semantic-hierachy,2021.1.2,
164,Trial # 165,layer9-17_O10_to_T5.jpg,layer9-17/layer9-17_O10_to_T5.jpg,OT,layer9-17,,,,,0.0,14.0,14.0,14.0,,,,,1002.8538476390532,None,4.0,5.390549612988252,1002.8538476390532,None,1002.8538476390532,None,1002.8538476390532,None,1,2022_Jun_28_1531,Semantic-hierachy,2021.1.2,
165,Trial # 166,layer9-17_T1_to_T6.jpg,layer9-17/layer9-17_T1_to_T6.jpg,TT,layer9-17,,,,,0.0,15.0,15.0,15.0,,,,,1008.5721206380404,None,2.0,1.5305981060373597,1008.5721206380404,None,1008.5721206380404,None,1008.5721206380404,None,1,2022_Jun_28_1531,Semantic-hierachy,2021.1.2,
166,Trial # 167,layer0-5_T1_to_T3.jpg,layer0-5/layer0-5_T1_to_T3.jpg,TT,layer0-5,,,,,0.0,16.0,16.0,16.0,,,,,1010.47399824101,None,1.0,1.3626139619736932,1010.47399824101,None,1010.47399824101,None,1010.47399824101,None,1,2022_Jun_28_1531,Semantic-hierachy,2021.1.2,
167,Trial # 168,layer0-5_O2_to_O9.jpg,layer0-5/layer0-5_O2_to_O9.jpg,OO,layer0-5,,,,,0.0,17.0,17.0,17.0,,,,,1012.1403205560056,None,1.0,2.44623884302564,1012.1403205560056,None,1012.1403205560056,None,1012.1403205560056,None,1,2022_Jun_28_1531,Semantic-hierachy,2021.1.2,
168,Trial # 169,layer9-17_O3_to_T4.jpg,layer9-17/layer9-17_O3_to_T4.jpg,OT,layer9-17,,,,,0.0,18.0,18.0,18.0,,,,,1015.0256174380193,None,2.0,1.4215490999631584,1015.0256174380193,None,1015.0256174380193,None,1015.0256174380193,None,1,2022_Jun_28_1531,Semantic-hierachy,2021.1.2,
169,Trial # 170,layer6-8_O11_to_O9.jpg,layer6-8/layer6-8_O11_to_O9.jpg,OO,layer6-8,,,,,0.0,19.0,19.0,19.0,,,,,1016.774798198021,None,2.0,3.357162847998552,1016.774798198021,None,1016.774798198021,None,1016.774798198021,None,1,2022_Jun_28_1531,Semantic-hierachy,2021.1.2,
170,Trial # 171,layer9-17_O1_to_O7.jpg,layer9-17/layer9-17_O1_to_O7.jpg,OO,layer9-17,,,,,0.0,20.0,20.0,20.0,,,,,1020.5428447910236,None,4.0,8.85656691598706,1020.5428447910236,None,1020.5428447910236,None,1020.5428447910236,None,1,2022_Jun_28_1531,Semantic-hierachy,2021.1.2,
171,Trial # 172,layer0-5_T12_to_T4.jpg,layer0-5/layer0-5_T12_to_T4.jpg,TT,layer0-5,,,,,0.0,21.0,21.0,21.0,,,,,1030.6634430050035,None,1.0,1.5702224079868756,1030.6634430050035,None,1030.6634430050035,None,1030.6634430050035,None,1,2022_Jun_28_1531,Semantic-hierachy,2021.1.2,
172,Trial # 173,layer0-5_O4_to_T4.jpg,layer0-5/layer0-5_O4_to_T4.jpg,OT,layer0-5,,,,,0.0,22.0,22.0,22.0,,,,,1032.562450746016,None,1.0,2.059084982960485,1032.562450746016,None,1032.562450746016,None,1032.562450746016,None,1,2022_Jun_28_1531,Semantic-hierachy,2021.1.2,
173,Trial # 174,layer6-8_T12_to_T5.jpg,layer6-8/layer6-8_T12_to_T5.jpg,TT,layer6-8,,,,,0.0,23.0,23.0,23.0,,,,,1035.364755631017,None,4.0,3.925336148997303,1035.364755631017,None,1035.364755631017,None,1035.364755631017,None,1,2022_Jun_28_1531,Semantic-hierachy,2021.1.2,
174,Trial # 175,layer6-8_O11_to_T1.jpg,layer6-8/layer6-8_O11_to_T1.jpg,OT,layer6-8,,,,,0.0,24.0,24.0,24.0,,,,,1039.749146508053,None,1.0,6.096981474023778,1039.749146508053,None,1039.749146508053,None,1039.749146508053,None,1,2022_Jun_28_1531,Semantic-hierachy,2021.1.2,
175,Trial # 176,layer0-5_O7_to_T8.jpg,layer0-5/layer0-5_O7_to_T8.jpg,OT,layer0-5,,,,,0.0,25.0,25.0,25.0,,,,,1046.350983789016,None,1.0,2.490524552005809,1046.350983789016,None,1046.350983789016,None,1046.350983789016,None,1,2022_Jun_28_1531,Semantic-hierachy,2021.1.2,
176,Trial # 177,layer0-5_O11_to_T5.jpg,layer0-5/layer0-5_O11_to_T5.jpg,OT,layer0-5,,,,,0.0,26.0,26.0,26.0,,,,,1049.169657764025,None,1.0,1.6721274619922042,1049.169657764025,None,1049.169657764025,None,1049.169657764025,None,1,2022_Jun_28_1531,Semantic-hierachy,2021.1.2,
177,Trial # 178,layer9-17_O2_to_T2.jpg,layer9-17/layer9-17_O2_to_T2.jpg,OT,layer9-17,,,,,0.0,27.0,27.0,27.0,,,,,1051.152215285052,None,4.0,5.51236572896596,1051.152215285052,None,1051.152215285052,None,1051.152215285052,None,1,2022_Jun_28_1531,Semantic-hierachy,2021.1.2,
178,Trial # 179,layer0-5_O4_to_T9.jpg,layer0-5/layer0-5_O4_to_T9.jpg,OT,layer0-5,,,,,0.0,28.0,28.0,28.0,,,,,1056.9879201209988,None,1.0,3.01863427599892,1056.9879201209988,None,1056.9879201209988,None,1056.9879201209988,None,1,2022_Jun_28_1531,Semantic-hierachy,2021.1.2,
179,Trial # 180,layer9-17_T6_to_T8.jpg,layer9-17/layer9-17_T6_to_T8.jpg,TT,layer9-17,,,,,0.0,29.0,29.0,29.0,,,,,1060.389195558033,None,2.0,1.9795492200064475,1060.389195558033,None,1060.389195558033,None,1060.389195558033,None,1,2022_Jun_28_1531,Semantic-hierachy,2021.1.2,
180,Trial # 181,layer9-17_O12_to_O5.jpg,layer9-17/layer9-17_O12_to_O5.jpg,OO,layer9-17,,,,,0.0,30.0,30.0,30.0,,,,,1062.6896657450125,None,2.0,2.0094159959699027,1062.6896657450125,None,1062.6896657450125,None,1062.6896657450125,None,1,2022_Jun_28_1531,Semantic-hierachy,2021.1.2,
181,Trial # 182,layer6-8_O1_to_O7.jpg,layer6-8/layer6-8_O1_to_O7.jpg,OO,layer6-8,,,,,0.0,31.0,31.0,31.0,,,,,1065.007586568012,None,4.0,2.5448072680155747,1065.007586568012,None,1065.007586568012,None,1065.007586568012,None,1,2022_Jun_28_1531,Semantic-hierachy,2021.1.2,
182,Trial # 183,layer6-8_O3_to_T10.jpg,layer6-8/layer6-8_O3_to_T10.jpg,OT,layer6-8,,,,,0.0,32.0,32.0,32.0,,,,,1067.857785382017,None,3.0,2.2221506740315817,1067.857785382017,None,1067.857785382017,None,1067.857785382017,None,1,2022_Jun_28_1531,Semantic-hierachy,2021.1.2,
183,Trial # 184,layer0-5_O1_to_T11.jpg,layer0-5/layer0-5_O1_to_T11.jpg,OT,layer0-5,,,,,0.0,33.0,33.0,33.0,,,,,1070.4917345380527,None,1.0,1.7984960729954764,1070.4917345380527,None,1070.4917345380527,None,1070.4917345380527,None,1,2022_Jun_28_1531,Semantic-hierachy,2021.1.2,
184,Trial # 185,layer6-8_O8_to_O9.jpg,layer6-8/layer6-8_O8_to_O9.jpg,OO,layer6-8,,,,,0.0,34.0,34.0,34.0,,,,,1072.5592379920415,None,3.0,2.4236865370185114,1072.5592379920415,None,1072.5592379920415,None,1072.5592379920415,None,1,2022_Jun_28_1531,Semantic-hierachy,2021.1.2,
185,Trial # 186,layer9-17_O4_to_O9.jpg,layer9-17/layer9-17_O4_to_O9.jpg,OO,layer9-17,,,,,0.0,35.0,35.0,35.0,,,,,1075.2108057160513,None,4.0,2.0029534499626607,1075.2108057160513,None,1075.2108057160513,None,1075.2108057160513,None,1,2022_Jun_28_1531,Semantic-hierachy,2021.1.2,
186,Trial # 187,layer0-5_O12_to_O5.jpg,layer0-5/layer0-5_O12_to_O5.jpg,OO,layer0-5,,,,,0.0,36.0,36.0,36.0,,,,,1077.493739837024,None,1.0,1.478809171996545,1077.493739837024,None,1077.493739837024,None,1077.493739837024,None,1,2022_Jun_28_1531,Semantic-hierachy,2021.1.2,
187,Trial # 188,layer6-8_T12_to_T4.jpg,layer6-8/layer6-8_T12_to_T4.jpg,TT,layer6-8,,,,,0.0,37.0,37.0,37.0,,,,,1079.2455521900556,None,4.0,2.495431362011004,1079.2455521900556,None,1079.2455521900556,None,1079.2455521900556,None,1,2022_Jun_28_1531,Semantic-hierachy,2021.1.2,
188,Trial # 189,layer0-5_T6_to_T8.jpg,layer0-5/layer0-5_T6_to_T8.jpg,TT,layer0-5,,,,,0.0,38.0,38.0,38.0,,,,,1082.0446862220415,None,1.0,1.9962672859546728,1082.0446862220415,None,1082.0446862220415,None,1082.0446862220415,None,1,2022_Jun_28_1531,Semantic-hierachy,2021.1.2,
189,Trial # 190,layer6-8_O11_to_T2.jpg,layer6-8/layer6-8_O11_to_T2.jpg,OT,layer6-8,,,,,0.0,39.0,39.0,39.0,,,,,1084.7306959490525,None,1.0,6.097450501983985,1084.7306959490525,None,1084.7306959490525,None,1084.7306959490525,None,1,2022_Jun_28_1531,Semantic-hierachy,2021.1.2,
190,Trial # 191,layer6-8_O1_to_O3.jpg,layer6-8/layer6-8_O1_to_O3.jpg,OO,layer6-8,,,,,0.0,40.0,40.0,40.0,,,,,1091.2811087850132,None,4.0,6.337184259027708,1091.2811087850132,None,1091.2811087850132,None,1091.2811087850132,None,1,2022_Jun_28_1531,Semantic-hierachy,2021.1.2,
191,Trial # 192,layer0-5_O7_to_T1.jpg,layer0-5/layer0-5_O7_to_T1.jpg,OT,layer0-5,,,,,0.0,41.0,41.0,41.0,,,,,1097.9172237970051,None,1.0,1.4312699480215088,1097.9172237970051,None,1097.9172237970051,None,1097.9172237970051,None,1,2022_Jun_28_1531,Semantic-hierachy,2021.1.2,
192,Trial # 193,layer6-8_O3_to_T7.jpg,layer6-8/layer6-8_O3_to_T7.jpg,OT,layer6-8,,,,,0.0,42.0,42.0,42.0,,,,,1099.6182844530558,None,3.0,2.384534489014186,1099.6182844530558,None,1099.6182844530558,None,1099.6182844530558,None,1,2022_Jun_28_1531,Semantic-hierachy,2021.1.2,
193,Trial # 194,layer9-17_T10_to_T6.jpg,layer9-17/layer9-17_T10_to_T6.jpg,TT,layer9-17,,,,,0.0,43.0,43.0,43.0,,,,,1102.3179955830565,None,2.0,2.277892534970306,1102.3179955830565,None,1102.3179955830565,None,1102.3179955830565,None,1,2022_Jun_28_1531,Semantic-hierachy,2021.1.2,
194,Trial # 195,layer6-8_T2_to_T9.jpg,layer6-8/layer6-8_T2_to_T9.jpg,TT,layer6-8,,,,,0.0,44.0,44.0,44.0,,,,,1104.9365511370124,None,4.0,5.789996014034841,1104.9365511370124,None,1104.9365511370124,None,1104.9365511370124,None,1,2022_Jun_28_1531,Semantic-hierachy,2021.1.2,
195,Trial # 196,layer0-5_O3_to_T3.jpg,layer0-5/layer0-5_O3_to_T3.jpg,OT,layer0-5,,,,,0.0,45.0,45.0,45.0,,,,,1111.0875299320323,None,1.0,2.487550824997016,1111.0875299320323,None,1111.0875299320323,None,1111.0875299320323,None,1,2022_Jun_28_1531,Semantic-hierachy,2021.1.2,
196,Trial # 197,layer9-17_O1_to_O2.jpg,layer9-17/layer9-17_O1_to_O2.jpg,OO,layer9-17,,,,,0.0,46.0,46.0,46.0,,,,,1114.3730612630025,None,4.0,4.456591623020358,1114.3730612630025,None,1114.3730612630025,None,1114.3730612630025,None,1,2022_Jun_28_1531,Semantic-hierachy,2021.1.2,
197,Trial # 198,layer9-17_T2_to_T9.jpg,layer9-17/layer9-17_T2_to_T9.jpg,TT,layer9-17,,,,,0.0,47.0,47.0,47.0,,,,,1119.6070277400431,None,2.0,2.674133702996187,1119.6070277400431,None,1119.6070277400431,None,1119.6070277400431,None,1,2022_Jun_28_1531,Semantic-hierachy,2021.1.2,
198,Trial # 199,layer9-17_O6_to_T10.jpg,layer9-17/layer9-17_O6_to_T10.jpg,OT,layer9-17,,,,,0.0,48.0,48.0,48.0,,,,,1122.6413248560275,None,2.0,1.3717265260056593,1122.6413248560275,None,1122.6413248560275,None,1122.6413248560275,None,1,2022_Jun_28_1531,Semantic-hierachy,2021.1.2,
199,Trial # 200,layer0-5_T12_to_T5.jpg,layer0-5/layer0-5_T12_to_T5.jpg,TT,layer0-5,,,,,0.0,49.0,49.0,49.0,,,,,1124.4595869900077,None,1.0,1.9265248919837177,1124.4595869900077,None,1124.4595869900077,None,1124.4595869900077,None,1,2022_Jun_28_1531,Semantic-hierachy,2021.1.2,
200,Trial # 201,layer0-5_O10_to_T10.jpg,layer0-5/layer0-5_O10_to_T10.jpg,OT,layer0-5,,,,,0.0,50.0,50.0,50.0,,,,,1126.8256192200352,None,1.0,1.4375070259557106,1126.8256192200352,None,1126.8256192200352,None,1126.8256192200352,None,1,2022_Jun_28_1531,Semantic-hierachy,2021.1.2,
201,Trial # 202,layer9-17_T11_to_T12.jpg,layer9-17/layer9-17_T11_to_T12.jpg,TT,layer9-17,,,,,0.0,51.0,51.0,51.0,,,,,1128.710689723026,None,2.0,1.5710665849619545,1128.710689723026,None,1128.710689723026,None,1128.710689723026,None,1,2022_Jun_28_1531,Semantic-hierachy,2021.1.2,
202,Trial # 203,layer6-8_T3_to_T5.jpg,layer6-8/layer6-8_T3_to_T5.jpg,TT,layer6-8,,,,,0.0,52.0,52.0,52.0,,,,,1130.6614038240514,None,2.0,3.239426772983279,1130.6614038240514,None,1130.6614038240514,None,1130.6614038240514,None,1,2022_Jun_28_1531,Semantic-hierachy,2021.1.2,
203,Trial # 204,layer0-5_O5_to_T10.jpg,layer0-5/layer0-5_O5_to_T10.jpg,OT,layer0-5,,,,,0.0,53.0,53.0,53.0,,,,,1135.1127920120489,None,1.0,1.5798949520103631,1135.1127920120489,None,1135.1127920120489,None,1135.1127920120489,None,1,2022_Jun_28_1531,Semantic-hierachy,2021.1.2,
204,Trial # 205,layer0-5_O10_to_O5.jpg,layer0-5/layer0-5_O10_to_O5.jpg,OO,layer0-5,,,,,0.0,54.0,54.0,54.0,,,,,1139.8976197470329,None,1.0,1.4443427509977482,1139.8976197470329,None,1139.8976197470329,None,1139.8976197470329,None,1,2022_Jun_28_1531,Semantic-hierachy,2021.1.2,
205,Trial # 206,layer0-5_O5_to_O7.jpg,layer0-5/layer0-5_O5_to_O7.jpg,OO,layer0-5,,,,,0.0,55.0,55.0,55.0,,,,,1141.630271425005,None,1.0,1.038165679958183,1141.630271425005,None,1141.630271425005,None,1141.630271425005,None,1,2022_Jun_28_1531,Semantic-hierachy,2021.1.2,
206,Trial # 207,layer0-5_O3_to_T10.jpg,layer0-5/layer0-5_O3_to_T10.jpg,OT,layer0-5,,,,,0.0,56.0,56.0,56.0,,,,,1142.9135203360347,None,1.0,2.3797721299924888,1142.9135203360347,None,1142.9135203360347,None,1142.9135203360347,None,1,2022_Jun_28_1531,Semantic-hierachy,2021.1.2,
207,Trial # 208,layer0-5_O4_to_O5.jpg,layer0-5/layer0-5_O4_to_O5.jpg,OO,layer0-5,,,,,0.0,57.0,57.0,57.0,,,,,1145.7648772130487,None,1.0,1.1116901610512286,1145.7648772130487,None,1145.7648772130487,None,1145.7648772130487,None,1,2022_Jun_28_1531,Semantic-hierachy,2021.1.2,
208,Trial # 209,layer6-8_T12_to_T3.jpg,layer6-8/layer6-8_T12_to_T3.jpg,TT,layer6-8,,,,,0.0,58.0,58.0,58.0,,,,,1147.1485977330012,None,4.0,3.560987963981461,1147.1485977330012,None,1147.1485977330012,None,1147.1485977330012,None,1,2022_Jun_28_1531,Semantic-hierachy,2021.1.2,
209,Trial # 210,layer6-8_O7_to_T9.jpg,layer6-8/layer6-8_O7_to_T9.jpg,OT,layer6-8,,,,,0.0,59.0,59.0,59.0,,,,,1152.0837882000487,None,3.0,2.4884746810421348,1152.0837882000487,None,1152.0837882000487,None,1152.0837882000487,None,1,2022_Jun_28_1531,Semantic-hierachy,2021.1.2,
210,Trial # 211,layer6-8_O1_to_O11.jpg,layer6-8/layer6-8_O1_to_O11.jpg,OO,layer6-8,,,,,0.0,60.0,60.0,60.0,,,,,1154.8685072840308,None,3.0,1.7211235769791529,1154.8685072840308,None,1154.8685072840308,None,1154.8685072840308,None,1,2022_Jun_28_1531,Semantic-hierachy,2021.1.2,
211,Trial # 212,layer6-8_T2_to_T6.jpg,layer6-8/layer6-8_T2_to_T6.jpg,TT,layer6-8,,,,,0.0,61.0,61.0,61.0,,,,,1156.9853133390425,None,4.0,4.509123907017056,1156.9853133390425,None,1156.9853133390425,None,1156.9853133390425,None,1,2022_Jun_28_1531,Semantic-hierachy,2021.1.2,
212,Trial # 213,layer6-8_O10_to_O6.jpg,layer6-8/layer6-8_O10_to_O6.jpg,OO,layer6-8,,,,,0.0,62.0,62.0,62.0,,,,,1161.936441696016,None,3.0,9.428633645002265,1161.936441696016,None,1161.936441696016,None,1161.936441696016,None,1,2022_Jun_28_1531,Semantic-hierachy,2021.1.2,
213,Trial # 214,layer9-17_T5_to_T8.jpg,layer9-17/layer9-17_T5_to_T8.jpg,TT,layer9-17,,,,,0.0,63.0,63.0,63.0,,,,,1171.7732003780548,None,2.0,1.5080512060085312,1171.7732003780548,None,1171.7732003780548,None,1171.7732003780548,None,1,2022_Jun_28_1531,Semantic-hierachy,2021.1.2,
214,Trial # 215,layer9-17_O3_to_T10.jpg,layer9-17/layer9-17_O3_to_T10.jpg,OT,layer9-17,,,,,0.0,64.0,64.0,64.0,,,,,1173.5406426610425,None,2.0,1.3623661329620518,1173.5406426610425,None,1173.5406426610425,None,1173.5406426610425,None,1,2022_Jun_28_1531,Semantic-hierachy,2021.1.2,
215,Trial # 216,layer6-8_O12_to_O3.jpg,layer6-8/layer6-8_O12_to_O3.jpg,OO,layer6-8,,,,,0.0,65.0,65.0,65.0,,,,,1175.2906578700058,None,2.0,2.020082906994503,1175.2906578700058,None,1175.2906578700058,None,1175.2906578700058,None,1,2022_Jun_28_1531,Semantic-hierachy,2021.1.2,
216,Trial # 217,layer0-5_T10_to_T2.jpg,layer0-5/layer0-5_T10_to_T2.jpg,TT,layer0-5,,,,,0.0,66.0,66.0,66.0,,,,,1177.9079738980508,None,1.0,1.5854086820036173,1177.9079738980508,None,1177.9079738980508,None,1177.9079738980508,None,1,2022_Jun_28_1531,Semantic-hierachy,2021.1.2,
217,Trial # 218,layer9-17_O10_to_O6.jpg,layer9-17/layer9-17_O10_to_O6.jpg,OO,layer9-17,,,,,0.0,67.0,67.0,67.0,,,,,1179.826531576051,None,4.0,13.57986204396002,1179.826531576051,None,1179.826531576051,None,1179.826531576051,None,1,2022_Jun_28_1531,Semantic-hierachy,2021.1.2,
218,Trial # 219,layer6-8_O6_to_O9.jpg,layer6-8/layer6-8_O6_to_O9.jpg,OO,layer6-8,,,,,0.0,68.0,68.0,68.0,,,,,1194.630222534004,None,3.0,2.724916787003167,1194.630222534004,None,1194.630222534004,None,1194.630222534004,None,1,2022_Jun_28_1531,Semantic-hierachy,2021.1.2,
219,Trial # 220,layer0-5_O7_to_T2.jpg,layer0-5/layer0-5_O7_to_T2.jpg,OT,layer0-5,,,,,0.0,69.0,69.0,69.0,,,,,1198.1977336280395,None,1.0,1.5749241500161588,1198.1977336280395,None,1198.1977336280395,None,1198.1977336280395,None,1,2022_Jun_28_1531,Semantic-hierachy,2021.1.2,
220,Trial # 221,layer9-17_T12_to_T2.jpg,layer9-17/layer9-17_T12_to_T2.jpg,TT,layer9-17,,,,,0.0,70.0,70.0,70.0,,,,,1200.4820772790115,None,2.0,2.7719858859782107,1200.4820772790115,None,1200.4820772790115,None,1200.4820772790115,None,1,2022_Jun_28_1531,Semantic-hierachy,2021.1.2,
221,Trial # 222,layer9-17_O8_to_T11.jpg,layer9-17/layer9-17_O8_to_T11.jpg,OT,layer9-17,,,,,0.0,71.0,71.0,71.0,,,,,1203.950603145,None,4.0,2.7464426980004646,1203.950603145,None,1203.950603145,None,1203.950603145,None,1,2022_Jun_28_1531,Semantic-hierachy,2021.1.2,
222,Trial # 223,layer6-8_O3_to_T9.jpg,layer6-8/layer6-8_O3_to_T9.jpg,OT,layer6-8,,,,,0.0,72.0,72.0,72.0,,,,,1207.4338350230246,None,3.0,2.3534889909788035,1207.4338350230246,None,1207.4338350230246,None,1207.4338350230246,None,1,2022_Jun_28_1531,Semantic-hierachy,2021.1.2,
223,Trial # 224,layer0-5_O6_to_O9.jpg,layer0-5/layer0-5_O6_to_O9.jpg,OO,layer0-5,,,,,0.0,73.0,73.0,73.0,,,,,1210.5682154310052,None,1.0,1.472168384003453,1210.5682154310052,None,1210.5682154310052,None,1210.5682154310052,None,1,2022_Jun_28_1531,Semantic-hierachy,2021.1.2,
224,Trial # 225,layer0-5_O12_to_T1.jpg,layer0-5/layer0-5_O12_to_T1.jpg,OT,layer0-5,,,,,0.0,74.0,74.0,74.0,,,,,1212.702456609055,None,1.0,1.8761322579812256,1212.702456609055,None,1212.702456609055,None,1212.702456609055,None,1,2022_Jun_28_1531,Semantic-hierachy,2021.1.2,
225,Trial # 226,layer9-17_O2_to_T8.jpg,layer9-17/layer9-17_O2_to_T8.jpg,OT,layer9-17,,,,,0.0,75.0,75.0,75.0,,,,,1215.4873847580166,None,2.0,4.375930371985305,1215.4873847580166,None,1215.4873847580166,None,1215.4873847580166,None,1,2022_Jun_28_1531,Semantic-hierachy,2021.1.2,
226,Trial # 227,layer0-5_T4_to_T8.jpg,layer0-5/layer0-5_T4_to_T8.jpg,TT,layer0-5,,,,,0.0,76.0,76.0,76.0,,,,,1220.9717487940216,None,1.0,1.805354309035465,1220.9717487940216,None,1220.9717487940216,None,1220.9717487940216,None,1,2022_Jun_28_1531,Semantic-hierachy,2021.1.2,
227,Trial # 228,layer9-17_O2_to_T1.jpg,layer9-17/layer9-17_O2_to_T1.jpg,OT,layer9-17,,,,,0.0,77.0,77.0,77.0,,,,,1223.9400421710452,None,2.0,3.0246644250000827,1223.9400421710452,None,1223.9400421710452,None,1223.9400421710452,None,1,2022_Jun_28_1531,Semantic-hierachy,2021.1.2,
228,Trial # 229,layer0-5_O11_to_O7.jpg,layer0-5/layer0-5_O11_to_O7.jpg,OO,layer0-5,,,,,0.0,78.0,78.0,78.0,,,,,1227.7406384580536,None,1.0,2.2987887050258,1227.7406384580536,None,1227.7406384580536,None,1227.7406384580536,None,1,2022_Jun_28_1531,Semantic-hierachy,2021.1.2,
229,Trial # 230,layer6-8_T2_to_T8.jpg,layer6-8/layer6-8_T2_to_T8.jpg,TT,layer6-8,,,,,0.0,79.0,79.0,79.0,,,,,1230.6911595860147,None,4.0,3.4820662880083546,1230.6911595860147,None,1230.6911595860147,None,1230.6911595860147,None,1,2022_Jun_28_1531,Semantic-hierachy,2021.1.2,
230,Trial # 231,layer9-17_T4_to_T8.jpg,layer9-17/layer9-17_T4_to_T8.jpg,TT,layer9-17,,,,,0.0,80.0,80.0,80.0,,,,,1234.9100259000552,None,2.0,1.743714603013359,1234.9100259000552,None,1234.9100259000552,None,1234.9100259000552,None,1,2022_Jun_28_1531,Semantic-hierachy,2021.1.2,
231,Trial # 232,layer9-17_T11_to_T3.jpg,layer9-17/layer9-17_T11_to_T3.jpg,TT,layer9-17,,,,,0.0,81.0,81.0,81.0,,,,,1237.4099141370389,None,2.0,2.2470576720079407,1237.4099141370389,None,1237.4099141370389,None,1237.4099141370389,None,1,2022_Jun_28_1531,Semantic-hierachy,2021.1.2,
232,Trial # 233,layer0-5_O3_to_T9.jpg,layer0-5/layer0-5_O3_to_T9.jpg,OT,layer0-5,,,,,0.0,82.0,82.0,82.0,,,,,1240.4454940360156,None,1.0,2.2929169019917026,1240.4454940360156,None,1240.4454940360156,None,1240.4454940360156,None,1,2022_Jun_28_1531,Semantic-hierachy,2021.1.2,
233,Trial # 234,layer9-17_T7_to_T8.jpg,layer9-17/layer9-17_T7_to_T8.jpg,TT,layer9-17,,,,,0.0,83.0,83.0,83.0,,,,,1243.6117412470048,None,4.0,4.063294210995082,1243.6117412470048,None,1243.6117412470048,None,1243.6117412470048,None,1,2022_Jun_28_1531,Semantic-hierachy,2021.1.2,
234,Trial # 235,layer9-17_O3_to_O4.jpg,layer9-17/layer9-17_O3_to_O4.jpg,OO,layer9-17,,,,,0.0,84.0,84.0,84.0,,,,,1248.4135334620369,None,2.0,1.5261027459637262,1248.4135334620369,None,1248.4135334620369,None,1248.4135334620369,None,1,2022_Jun_28_1531,Semantic-hierachy,2021.1.2,
235,Trial # 236,layer6-8_O8_to_T6.jpg,layer6-8/layer6-8_O8_to_T6.jpg,OT,layer6-8,,,,,0.0,85.0,85.0,85.0,,,,,1250.7471145680174,None,3.0,1.8415188310318624,1250.7471145680174,None,1250.7471145680174,None,1250.7471145680174,None,1,2022_Jun_28_1531,Semantic-hierachy,2021.1.2,
236,Trial # 237,layer9-17_T6_to_T7.jpg,layer9-17/layer9-17_T6_to_T7.jpg,TT,layer9-17,,,,,0.0,86.0,86.0,86.0,,,,,1253.2980282860226,None,2.0,1.74667620199034,1253.2980282860226,None,1253.2980282860226,None,1253.2980282860226,None,1,2022_Jun_28_1531,Semantic-hierachy,2021.1.2,
237,Trial # 238,layer0-5_T2_to_T9.jpg,layer0-5/layer0-5_T2_to_T9.jpg,TT,layer0-5,,,,,0.0,87.0,87.0,87.0,,,,,1255.8321718900115,None,1.0,3.434109266032465,1255.8321718900115,None,1255.8321718900115,None,1255.8321718900115,None,1,2022_Jun_28_1531,Semantic-hierachy,2021.1.2,
238,Trial # 239,layer0-5_O2_to_O5.jpg,layer0-5/layer0-5_O2_to_O5.jpg,OO,layer0-5,,,,,0.0,88.0,88.0,88.0,,,,,1259.9344685550311,None,1.0,2.5787006829632446,1259.9344685550311,None,1259.9344685550311,None,1259.9344685550311,None,1,2022_Jun_28_1531,Semantic-hierachy,2021.1.2,
239,Trial # 240,layer6-8_O1_to_O5.jpg,layer6-8/layer6-8_O1_to_O5.jpg,OO,layer6-8,,,,,0.0,89.0,89.0,89.0,,,,,1263.3679393300554,None,4.0,3.2796238900045864,1263.3679393300554,None,1263.3679393300554,None,1263.3679393300554,None,1,2022_Jun_28_1531,Semantic-hierachy,2021.1.2,
240,Trial # 241,layer9-17_O3_to_O7.jpg,layer9-17/layer9-17_O3_to_O7.jpg,OO,layer9-17,,,,,0.0,90.0,90.0,90.0,,,,,1267.7693701230455,None,2.0,2.531307474011556,1267.7693701230455,None,1267.7693701230455,None,1267.7693701230455,None,1,2022_Jun_28_1531,Semantic-hierachy,2021.1.2,
241,Trial # 242,layer6-8_O11_to_O8.jpg,layer6-8/layer6-8_O11_to_O8.jpg,OO,layer6-8,,,,,0.0,91.0,91.0,91.0,,,,,1271.0870286140123,None,1.0,3.040697799006012,1271.0870286140123,None,1271.0870286140123,None,1271.0870286140123,None,1,2022_Jun_28_1531,Semantic-hierachy,2021.1.2,
242,Trial # 243,layer9-17_T1_to_T12.jpg,layer9-17/layer9-17_T1_to_T12.jpg,TT,layer9-17,,,,,0.0,92.0,92.0,92.0,,,,,1276.3394997280557,None,2.0,2.070249413023703,1276.3394997280557,None,1276.3394997280557,None,1276.3394997280557,None,1,2022_Jun_28_1531,Semantic-hierachy,2021.1.2,
243,Trial # 244,layer9-17_O6_to_O8.jpg,layer9-17/layer9-17_O6_to_O8.jpg,OO,layer9-17,,,,,0.0,93.0,93.0,93.0,,,,,1279.1741229050094,None,4.0,2.954704641015269,1279.1741229050094,None,1279.1741229050094,None,1279.1741229050094,None,1,2022_Jun_28_1531,Semantic-hierachy,2021.1.2,
244,Trial # 245,layer6-8_O4_to_T11.jpg,layer6-8/layer6-8_O4_to_T11.jpg,OT,layer6-8,,,,,0.0,94.0,94.0,94.0,,,,,1282.9071647680248,None,3.0,2.797299202997237,1282.9071647680248,None,1282.9071647680248,None,1282.9071647680248,None,1,2022_Jun_28_1531,Semantic-hierachy,2021.1.2,
245,Trial # 246,layer9-17_T10_to_T3.jpg,layer9-17/layer9-17_T10_to_T3.jpg,TT,layer9-17,,,,,0.0,95.0,95.0,95.0,,,,,1286.8417642960558,None,2.0,8.628309041960165,1286.8417642960558,None,1286.8417642960558,None,1286.8417642960558,None,1,2022_Jun_28_1531,Semantic-hierachy,2021.1.2,
246,Trial # 247,layer0-5_O10_to_O8.jpg,layer0-5/layer0-5_O10_to_O8.jpg,OO,layer0-5,,,,,0.0,96.0,96.0,96.0,,,,,1297.428289248026,None,1.0,2.0619379070121795,1297.428289248026,None,1297.428289248026,None,1297.428289248026,None,1,2022_Jun_28_1531,Semantic-hierachy,2021.1.2,
247,Trial # 248,layer6-8_O3_to_T12.jpg,layer6-8/layer6-8_O3_to_T12.jpg,OT,layer6-8,,,,,0.0,97.0,97.0,97.0,,,,,1300.4137936110492,None,3.0,2.200917215028312,1300.4137936110492,None,1300.4137936110492,None,1300.4137936110492,None,1,2022_Jun_28_1531,Semantic-hierachy,2021.1.2,
248,Trial # 249,layer0-5_O12_to_T9.jpg,layer0-5/layer0-5_O12_to_T9.jpg,OT,layer0-5,,,,,0.0,98.0,98.0,98.0,,,,,1302.8629963160492,None,1.0,2.030365468002856,1302.8629963160492,None,1302.8629963160492,None,1302.8629963160492,None,1,2022_Jun_28_1531,Semantic-hierachy,2021.1.2,
249,Trial # 250,layer9-17_T1_to_T9.jpg,layer9-17/layer9-17_T1_to_T9.jpg,TT,layer9-17,,,,,0.0,99.0,99.0,99.0,,,,,1305.8309121380444,None,4.0,4.572277304017916,1305.8309121380444,None,1305.8309121380444,None,1305.8309121380444,None,1,2022_Jun_28_1531,Semantic-hierachy,2021.1.2,
250,Trial # 251,layer9-17_T11_to_T8.jpg,layer9-17/layer9-17_T11_to_T8.jpg,TT,layer9-17,,,,,0.0,100.0,100.0,100.0,,,,,1310.7333261820022,None,2.0,1.8550161530147309,1310.7333261820022,None,1310.7333261820022,None,1310.7333261820022,None,1,2022_Jun_28_1531,Semantic-hierachy,2021.1.2,
251,Trial # 252,layer9-17_T11_to_T5.jpg,layer9-17/layer9-17_T11_to_T5.jpg,TT,layer9-17,,,,,0.0,101.0,101.0,101.0,,,,,1313.350128634018,None,4.0,2.0936509579769336,1313.350128634018,None,1313.350128634018,None,1313.350128634018,None,1,2022_Jun_28_1531,Semantic-hierachy,2021.1.2,
252,Trial # 253,layer6-8_T10_to_T12.jpg,layer6-8/layer6-8_T10_to_T12.jpg,TT,layer6-8,,,,,0.0,102.0,102.0,102.0,,,,,1315.785001192009,None,4.0,3.51011935796123,1315.785001192009,None,1315.785001192009,None,1315.785001192009,None,1,2022_Jun_28_1531,Semantic-hierachy,2021.1.2,
253,Trial # 254,layer9-17_O5_to_T1.jpg,layer9-17/layer9-17_O5_to_T1.jpg,OT,layer9-17,,,,,0.0,103.0,103.0,103.0,,,,,1319.669144375017,None,2.0,1.8251912179985084,1319.669144375017,None,1319.669144375017,None,1319.669144375017,None,1,2022_Jun_28_1531,Semantic-hierachy,2021.1.2,
254,Trial # 255,layer6-8_T2_to_T3.jpg,layer6-8/layer6-8_T2_to_T3.jpg,TT,layer6-8,,,,,0.0,104.0,104.0,104.0,,,,,1321.835991569038,None,4.0,2.33681815804448,1321.835991569038,None,1321.835991569038,None,1321.835991569038,None,1,2022_Jun_28_1531,Semantic-hierachy,2021.1.2,
255,Trial # 256,layer6-8_O2_to_T6.jpg,layer6-8/layer6-8_O2_to_T6.jpg,OT,layer6-8,,,,,0.0,105.0,105.0,105.0,,,,,1324.538289445045,None,3.0,2.7900063510169275,1324.538289445045,None,1324.538289445045,None,1324.538289445045,None,1,2022_Jun_28_1531,Semantic-hierachy,2021.1.2,
256,Trial # 257,layer6-8_T11_to_T9.jpg,layer6-8/layer6-8_T11_to_T9.jpg,TT,layer6-8,,,,,0.0,106.0,106.0,106.0,,,,,1327.7878833830473,None,4.0,4.206892026995774,1327.7878833830473,None,1327.7878833830473,None,1327.7878833830473,None,1,2022_Jun_28_1531,Semantic-hierachy,2021.1.2,
257,Trial # 258,layer6-8_O5_to_T9.jpg,layer6-8/layer6-8_O5_to_T9.jpg,OT,layer6-8,,,,,0.0,107.0,107.0,107.0,,,,,1332.356055981014,None,3.0,7.241084593988489,1332.356055981014,None,1332.356055981014,None,1332.356055981014,None,1,2022_Jun_28_1531,Semantic-hierachy,2021.1.2,
258,Trial # 259,layer6-8_O9_to_T8.jpg,layer6-8/layer6-8_O9_to_T8.jpg,OT,layer6-8,,,,,0.0,108.0,108.0,108.0,,,,,1339.909419195028,None,3.0,1.7255542990169488,1339.909419195028,None,1339.909419195028,None,1339.909419195028,None,1,2022_Jun_28_1531,Semantic-hierachy,2021.1.2,
259,Trial # 260,layer6-8_T1_to_T5.jpg,layer6-8/layer6-8_T1_to_T5.jpg,TT,layer6-8,,,,,0.0,109.0,109.0,109.0,,,,,1342.0086369460332,None,4.0,5.606959174037911,1342.0086369460332,None,1342.0086369460332,None,1342.0086369460332,None,1,2022_Jun_28_1531,Semantic-hierachy,2021.1.2,
260,Trial # 261,layer0-5_O11_to_T2.jpg,layer0-5/layer0-5_O11_to_T2.jpg,OT,layer0-5,,,,,0.0,110.0,110.0,110.0,,,,,1348.8455895380466,None,1.0,2.561938030004967,1348.8455895380466,None,1348.8455895380466,None,1348.8455895380466,None,1,2022_Jun_28_1531,Semantic-hierachy,2021.1.2,
261,Trial # 262,layer0-5_O7_to_T4.jpg,layer0-5/layer0-5_O7_to_T4.jpg,OT,layer0-5,,,,,0.0,111.0,111.0,111.0,,,,,1351.762084762042,None,1.0,1.189817221951671,1351.762084762042,None,1351.762084762042,None,1351.762084762042,None,1,2022_Jun_28_1531,Semantic-hierachy,2021.1.2,
262,Trial # 263,layer6-8_T12_to_T8.jpg,layer6-8/layer6-8_T12_to_T8.jpg,TT,layer6-8,,,,,0.0,112.0,112.0,112.0,,,,,1353.2126947450452,None,2.0,2.510328957985621,1353.2126947450452,None,1353.2126947450452,None,1353.2126947450452,None,1,2022_Jun_28_1531,Semantic-hierachy,2021.1.2,
263,Trial # 264,layer6-8_O4_to_O9.jpg,layer6-8/layer6-8_O4_to_O9.jpg,OO,layer6-8,,,,,0.0,113.0,113.0,113.0,,,,,1356.0464331290568,None,4.0,7.107479533995502,1356.0464331290568,None,1356.0464331290568,None,1356.0464331290568,None,1,2022_Jun_28_1531,Semantic-hierachy,2021.1.2,
264,Trial # 265,layer0-5_T1_to_T5.jpg,layer0-5/layer0-5_T1_to_T5.jpg,TT,layer0-5,,,,,0.0,114.0,114.0,114.0,,,,,1363.8325098190107,None,1.0,1.7471780820051208,1363.8325098190107,None,1363.8325098190107,None,1363.8325098190107,None,1,2022_Jun_28_1531,Semantic-hierachy,2021.1.2,
265,Trial # 266,layer0-5_O12_to_O7.jpg,layer0-5/layer0-5_O12_to_O7.jpg,OO,layer0-5,,,,,0.0,115.0,115.0,115.0,,,,,1365.8659699240234,None,1.0,1.1135978709789924,1365.8659699240234,None,1365.8659699240234,None,1365.8659699240234,None,1,2022_Jun_28_1531,Semantic-hierachy,2021.1.2,
266,Trial # 267,layer6-8_T8_to_T9.jpg,layer6-8/layer6-8_T8_to_T9.jpg,TT,layer6-8,,,,,0.0,116.0,116.0,116.0,,,,,1367.33354492503,None,4.0,3.450558929995168,1367.33354492503,None,1367.33354492503,None,1367.33354492503,None,1,2022_Jun_28_1531,Semantic-hierachy,2021.1.2,
267,Trial # 268,layer9-17_O11_to_T10.jpg,layer9-17/layer9-17_O11_to_T10.jpg,OT,layer9-17,,,,,0.0,117.0,117.0,117.0,,,,,1371.1183312050416,None,2.0,1.7706144669791684,1371.1183312050416,None,1371.1183312050416,None,1371.1183312050416,None,1,2022_Jun_28_1531,Semantic-hierachy,2021.1.2,
268,Trial # 269,layer0-5_O8_to_T9.jpg,layer0-5/layer0-5_O8_to_T9.jpg,OT,layer0-5,,,,,0.0,118.0,118.0,118.0,,,,,1373.1851532100118,None,1.0,1.4588848020066507,1373.1851532100118,None,1373.1851532100118,None,1373.1851532100118,None,1,2022_Jun_28_1531,Semantic-hierachy,2021.1.2,
269,Trial # 270,layer9-17_O10_to_O11.jpg,layer9-17/layer9-17_O10_to_O11.jpg,OO,layer9-17,,,,,0.0,119.0,119.0,119.0,,,,,1374.9037291070565,None,4.0,4.219763693981804,1374.9037291070565,None,1374.9037291070565,None,1374.9037291070565,None,1,2022_Jun_28_1531,Semantic-hierachy,2021.1.2,
270,Trial # 271,layer0-5_T1_to_T9.jpg,layer0-5/layer0-5_T1_to_T9.jpg,TT,layer0-5,,,,,0.0,120.0,120.0,120.0,,,,,1380.0383317960077,None,1.0,1.5923227590392344,1380.0383317960077,None,1380.0383317960077,None,1380.0383317960077,None,1,2022_Jun_28_1531,Semantic-hierachy,2021.1.2,
271,Trial # 272,layer6-8_T11_to_T8.jpg,layer6-8/layer6-8_T11_to_T8.jpg,TT,layer6-8,,,,,0.0,121.0,121.0,121.0,,,,,1381.887821974,None,3.0,3.475372105021961,1381.887821974,None,1381.887821974,None,1381.887821974,None,1,2022_Jun_28_1531,Semantic-hierachy,2021.1.2,
272,Trial # 273,layer9-17_O10_to_O12.jpg,layer9-17/layer9-17_O10_to_O12.jpg,OO,layer9-17,,,,,0.0,122.0,122.0,122.0,,,,,1385.95599894505,None,2.0,6.937293708964717,1385.95599894505,None,1385.95599894505,None,1385.95599894505,None,1,2022_Jun_28_1531,Semantic-hierachy,2021.1.2,
273,Trial # 274,layer0-5_T12_to_T6.jpg,layer0-5/layer0-5_T12_to_T6.jpg,TT,layer0-5,,,,,0.0,123.0,123.0,123.0,,,,,1393.141169691051,None,1.0,2.3619953459710814,1393.141169691051,None,1393.141169691051,None,1393.141169691051,None,1,2022_Jun_28_1531,Semantic-hierachy,2021.1.2,
274,Trial # 275,layer9-17_O11_to_O5.jpg,layer9-17/layer9-17_O11_to_O5.jpg,OO,layer9-17,,,,,0.0,124.0,124.0,124.0,,,,,1395.8100067610503,None,4.0,3.6964374170056544,1395.8100067610503,None,1395.8100067610503,None,1395.8100067610503,None,1,2022_Jun_28_1531,Semantic-hierachy,2021.1.2,
275,Trial # 276,layer9-17_O1_to_O4.jpg,layer9-17/layer9-17_O1_to_O4.jpg,OO,layer9-17,,,,,0.0,125.0,125.0,125.0,,,,,1400.2939778230502,None,2.0,4.707511067972519,1400.2939778230502,None,1400.2939778230502,None,1400.2939778230502,None,1,2022_Jun_28_1531,Semantic-hierachy,2021.1.2,
276,Trial # 277,layer6-8_O11_to_O3.jpg,layer6-8/layer6-8_O11_to_O3.jpg,OO,layer6-8,,,,,0.0,126.0,126.0,126.0,,,,,1405.5128605570062,None,2.0,1.4609335289569572,1405.5128605570062,None,1405.5128605570062,None,1405.5128605570062,None,1,2022_Jun_28_1531,Semantic-hierachy,2021.1.2,
277,Trial # 278,layer6-8_T10_to_T11.jpg,layer6-8/layer6-8_T10_to_T11.jpg,TT,layer6-8,,,,,0.0,127.0,127.0,127.0,,,,,1408.2124592000037,None,4.0,4.655336702009663,1408.2124592000037,None,1408.2124592000037,None,1408.2124592000037,None,1,2022_Jun_28_1531,Semantic-hierachy,2021.1.2,
278,Trial # 279,layer0-5_O7_to_T3.jpg,layer0-5/layer0-5_O7_to_T3.jpg,OT,layer0-5,,,,,0.0,128.0,128.0,128.0,,,,,1413.16422241705,None,1.0,1.3296450389898382,1413.16422241705,None,1413.16422241705,None,1413.16422241705,None,1,2022_Jun_28_1531,Semantic-hierachy,2021.1.2,
279,Trial # 280,layer9-17_T1_to_T10.jpg,layer9-17/layer9-17_T1_to_T10.jpg,TT,layer9-17,,,,,0.0,129.0,129.0,129.0,,,,,1414.8827624110272,None,2.0,2.1930370420450345,1414.8827624110272,None,1414.8827624110272,None,1414.8827624110272,None,1,2022_Jun_28_1531,Semantic-hierachy,2021.1.2,
280,Trial # 281,layer9-17_O6_to_T7.jpg,layer9-17/layer9-17_O6_to_T7.jpg,OT,layer9-17,,,,,0.0,130.0,130.0,130.0,,,,,1417.5822593120392,None,2.0,1.0726508629741147,1417.5822593120392,None,1417.5822593120392,None,1417.5822593120392,None,1,2022_Jun_28_1531,Semantic-hierachy,2021.1.2,
281,Trial # 282,layer0-5_O10_to_O7.jpg,layer0-5/layer0-5_O10_to_O7.jpg,OO,layer0-5,,,,,0.0,131.0,131.0,131.0,,,,,1418.9502770300023,None,1.0,1.523156144015957,1418.9502770300023,None,1418.9502770300023,None,1418.9502770300023,None,1,2022_Jun_28_1531,Semantic-hierachy,2021.1.2,
282,Trial # 283,layer0-5_O1_to_O11.jpg,layer0-5/layer0-5_O1_to_O11.jpg,OO,layer0-5,,,,,0.0,132.0,132.0,132.0,,,,,1420.7332884100033,None,1.0,1.390513024001848,1420.7332884100033,None,1420.7332884100033,None,1420.7332884100033,None,1,2022_Jun_28_1531,Semantic-hierachy,2021.1.2,
283,Trial # 284,layer6-8_O7_to_O8.jpg,layer6-8/layer6-8_O7_to_O8.jpg,OO,layer6-8,,,,,0.0,133.0,133.0,133.0,,,,,1422.3668298380217,None,2.0,1.5963590830215253,1422.3668298380217,None,1422.3668298380217,None,1422.3668298380217,None,1,2022_Jun_28_1531,Semantic-hierachy,2021.1.2,
284,Trial # 285,layer0-5_T7_to_T8.jpg,layer0-5/layer0-5_T7_to_T8.jpg,TT,layer0-5,,,,,0.0,134.0,134.0,134.0,,,,,1424.3178750290535,None,1.0,1.4961632909835316,1424.3178750290535,None,1424.3178750290535,None,1424.3178750290535,None,1,2022_Jun_28_1531,Semantic-hierachy,2021.1.2,
285,Trial # 286,layer9-17_T11_to_T6.jpg,layer9-17/layer9-17_T11_to_T6.jpg,TT,layer9-17,,,,,0.0,135.0,135.0,135.0,,,,,1426.0193182880175,None,4.0,4.629301303997636,1426.0193182880175,None,1426.0193182880175,None,1426.0193182880175,None,1,2022_Jun_28_1531,Semantic-hierachy,2021.1.2,
286,Trial # 287,layer0-5_T2_to_T7.jpg,layer0-5/layer0-5_T2_to_T7.jpg,TT,layer0-5,,,,,0.0,136.0,136.0,136.0,,,,,1430.9862809930346,None,1.0,2.5603320979862474,1430.9862809930346,None,1430.9862809930346,None,1430.9862809930346,None,1,2022_Jun_28_1531,Semantic-hierachy,2021.1.2,
287,Trial # 288,layer9-17_O10_to_O2.jpg,layer9-17/layer9-17_O10_to_O2.jpg,OO,layer9-17,,,,,0.0,137.0,137.0,137.0,,,,,1433.8553579940344,None,2.0,2.266797283024061,1433.8553579940344,None,1433.8553579940344,None,1433.8553579940344,None,1,2022_Jun_28_1531,Semantic-hierachy,2021.1.2,
288,Trial # 289,layer0-5_T10_to_T9.jpg,layer0-5/layer0-5_T10_to_T9.jpg,TT,layer0-5,,,,,0.0,138.0,138.0,138.0,,,,,1436.4213278800016,None,1.0,2.072050930990372,1436.4213278800016,None,1436.4213278800016,None,1436.4213278800016,None,1,2022_Jun_28_1531,Semantic-hierachy,2021.1.2,
289,Trial # 290,layer6-8_O11_to_O5.jpg,layer6-8/layer6-8_O11_to_O5.jpg,OO,layer6-8,,,,,0.0,139.0,139.0,139.0,,,,,1438.8565447380531,None,2.0,2.175417153048329,1438.8565447380531,None,1438.8565447380531,None,1438.8565447380531,None,1,2022_Jun_28_1531,Semantic-hierachy,2021.1.2,
290,Trial # 291,layer6-8_O3_to_O7.jpg,layer6-8/layer6-8_O3_to_O7.jpg,OO,layer6-8,,,,,0.0,140.0,140.0,140.0,,,,,1441.739627113042,None,2.0,2.159458829963114,1441.739627113042,None,1441.739627113042,None,1441.739627113042,None,1,2022_Jun_28_1531,Semantic-hierachy,2021.1.2,
291,Trial # 292,layer9-17_O12_to_T11.jpg,layer9-17/layer9-17_O12_to_T11.jpg,OT,layer9-17,,,,,0.0,141.0,141.0,141.0,,,,,1444.5584661950124,None,2.0,1.9404039960354569,1444.5584661950124,None,1444.5584661950124,None,1444.5584661950124,None,1,2022_Jun_28_1531,Semantic-hierachy,2021.1.2,
292,Trial # 293,layer9-17_O2_to_O4.jpg,layer9-17/layer9-17_O2_to_O4.jpg,OO,layer9-17,,,,,0.0,142.0,142.0,142.0,,,,,1447.3078835790511,None,4.0,4.291158511012327,1447.3078835790511,None,1447.3078835790511,None,1447.3078835790511,None,1,2022_Jun_28_1531,Semantic-hierachy,2021.1.2,
293,Trial # 294,layer6-8_O1_to_T12.jpg,layer6-8/layer6-8_O1_to_T12.jpg,OT,layer6-8,,,,,0.0,143.0,143.0,143.0,,,,,1452.5427233810187,None,3.0,24.517076439980883,1452.5427233810187,None,1452.5427233810187,None,1452.5427233810187,None,1,2022_Jun_28_1531,Semantic-hierachy,2021.1.2,
294,Trial # 295,layer9-17_O11_to_T5.jpg,layer9-17/layer9-17_O11_to_T5.jpg,OT,layer9-17,,,,,0.0,144.0,144.0,144.0,,,,,1477.8013738780282,None,4.0,2.0423950330005027,1477.8013738780282,None,1477.8013738780282,None,1477.8013738780282,None,1,2022_Jun_28_1531,Semantic-hierachy,2021.1.2,
295,Trial # 296,layer0-5_O10_to_O9.jpg,layer0-5/layer0-5_O10_to_O9.jpg,OO,layer0-5,,,,,0.0,145.0,145.0,145.0,,,,,1482.385623951035,None,1.0,2.1657347540021874,1482.385623951035,None,1482.385623951035,None,1482.385623951035,None,1,2022_Jun_28_1531,Semantic-hierachy,2021.1.2,
296,Trial # 297,layer6-8_O12_to_T10.jpg,layer6-8/layer6-8_O12_to_T10.jpg,OT,layer6-8,,,,,0.0,146.0,146.0,146.0,,,,,1485.3209766280488,None,4.0,2.981542408000678,1485.3209766280488,None,1485.3209766280488,None,1485.3209766280488,None,1,2022_Jun_28_1531,Semantic-hierachy,2021.1.2,
297,Trial # 298,layer6-8_O3_to_T2.jpg,layer6-8/layer6-8_O3_to_T2.jpg,OT,layer6-8,,,,,0.0,147.0,147.0,147.0,,,,,1489.2220341920038,None,4.0,8.225088264036458,1489.2220341920038,None,1489.2220341920038,None,1489.2220341920038,None,1,2022_Jun_28_1531,Semantic-hierachy,2021.1.2,
298,Trial # 299,layer9-17_O2_to_T5.jpg,layer9-17/layer9-17_O2_to_T5.jpg,OT,layer9-17,,,,,0.0,148.0,148.0,148.0,,,,,1498.107545482053,None,4.0,1.896393527975306,1498.107545482053,None,1498.107545482053,None,1498.107545482053,None,1,2022_Jun_28_1531,Semantic-hierachy,2021.1.2,
299,Trial # 300,layer0-5_O3_to_T7.jpg,layer0-5/layer0-5_O3_to_T7.jpg,OT,layer0-5,,,,,0.0,149.0,149.0,149.0,,,,,1500.6081791250035,None,1.0,1.7098869970068336,1500.6081791250035,None,1500.6081791250035,None,1500.6081791250035,None,1,2022_Jun_28_1531,Semantic-hierachy,2021.1.2,
300,Trial # 301,layer9-17_O11_to_O6.jpg,layer9-17/layer9-17_O11_to_O6.jpg,OO,layer9-17,,,,,,,,,0.0,0.0,0.0,0.0,1575.8645310580032,None,4.0,3.362983624974732,1575.8645310580032,None,1575.8645310580032,None,1575.8645310580032,None,1,2022_Jun_28_1531,Semantic-hierachy,2021.1.2,
301,Trial # 302,layer0-5_O3_to_O7.jpg,layer0-5/layer0-5_O3_to_O7.jpg,OO,layer0-5,,,,,,,,,0.0,1.0,1.0,1.0,1579.566697645001,None,1.0,2.3940150019479915,1579.566697645001,None,1579.566697645001,None,1579.566697645001,None,1,2022_Jun_28_1531,Semantic-hierachy,2021.1.2,
302,Trial # 303,layer6-8_O11_to_T3.jpg,layer6-8/layer6-8_O11_to_T3.jpg,OT,layer6-8,,,,,,,,,0.0,2.0,2.0,2.0,1582.2664088820457,None,3.0,1.770379800000228,1582.2664088820457,None,1582.2664088820457,None,1582.2664088820457,None,1,2022_Jun_28_1531,Semantic-hierachy,2021.1.2,
303,Trial # 304,layer6-8_O2_to_T7.jpg,layer6-8/layer6-8_O2_to_T7.jpg,OT,layer6-8,,,,,,,,,0.0,3.0,3.0,3.0,1585.018501040002,None,3.0,2.0733242159476504,1585.018501040002,None,1585.018501040002,None,1585.018501040002,None,1,2022_Jun_28_1531,Semantic-hierachy,2021.1.2,
304,Trial # 305,layer0-5_T1_to_T7.jpg,layer0-5/layer0-5_T1_to_T7.jpg,TT,layer0-5,,,,,,,,,0.0,4.0,4.0,4.0,1587.367841914005,None,1.0,1.5244772279984318,1587.367841914005,None,1587.367841914005,None,1587.367841914005,None,1,2022_Jun_28_1531,Semantic-hierachy,2021.1.2,
305,Trial # 306,layer6-8_O7_to_T11.jpg,layer6-8/layer6-8_O7_to_T11.jpg,OT,layer6-8,,,,,,,,,0.0,5.0,5.0,5.0,1589.235484167002,None,3.0,3.789739475992974,1589.235484167002,None,1589.235484167002,None,1589.235484167002,None,1,2022_Jun_28_1531,Semantic-hierachy,2021.1.2,
306,Trial # 307,layer9-17_O5_to_T5.jpg,layer9-17/layer9-17_O5_to_T5.jpg,OT,layer9-17,,,,,,,,,0.0,6.0,6.0,6.0,1593.3527232769993,None,2.0,3.079001730948221,1593.3527232769993,None,1593.3527232769993,None,1593.3527232769993,None,1,2022_Jun_28_1531,Semantic-hierachy,2021.1.2,
307,Trial # 308,layer9-17_T12_to_T5.jpg,layer9-17/layer9-17_T12_to_T5.jpg,TT,layer9-17,,,,,,,,,0.0,7.0,7.0,7.0,1596.7375111100264,None,2.0,1.9228878719732163,1596.7375111100264,None,1596.7375111100264,None,1596.7375111100264,None,1,2022_Jun_28_1531,Semantic-hierachy,2021.1.2,
308,Trial # 309,layer6-8_O11_to_O2.jpg,layer6-8/layer6-8_O11_to_O2.jpg,OO,layer6-8,,,,,,,,,0.0,8.0,8.0,8.0,1598.9894029340358,None,2.0,4.145192721975036,1598.9894029340358,None,1598.9894029340358,None,1598.9894029340358,None,1,2022_Jun_28_1531,Semantic-hierachy,2021.1.2,
309,Trial # 310,layer6-8_O10_to_O7.jpg,layer6-8/layer6-8_O10_to_O7.jpg,OO,layer6-8,,,,,,,,,0.0,9.0,9.0,9.0,1603.4895644800272,None,2.0,1.1066769750323149,1603.4895644800272,None,1603.4895644800272,None,1603.4895644800272,None,1,2022_Jun_28_1531,Semantic-hierachy,2021.1.2,
310,Trial # 311,layer9-17_O10_to_T11.jpg,layer9-17/layer9-17_O10_to_T11.jpg,OT,layer9-17,,,,,,,,,0.0,10.0,10.0,10.0,1604.9580460410216,None,2.0,2.606484633986838,1604.9580460410216,None,1604.9580460410216,None,1604.9580460410216,None,1,2022_Jun_28_1531,Semantic-hierachy,2021.1.2,
311,Trial # 312,layer6-8_O11_to_O12.jpg,layer6-8/layer6-8_O11_to_O12.jpg,OO,layer6-8,,,,,,,,,0.0,11.0,11.0,11.0,1608.0245067670476,None,4.0,3.9552515810355535,1608.0245067670476,None,1608.0245067670476,None,1608.0245067670476,None,1,2022_Jun_28_1531,Semantic-hierachy,2021.1.2,
312,Trial # 313,layer9-17_O9_to_T8.jpg,layer9-17/layer9-17_O9_to_T8.jpg,OT,layer9-17,,,,,,,,,0.0,12.0,12.0,12.0,1612.2756943480344,None,4.0,2.273567932017613,1612.2756943480344,None,1612.2756943480344,None,1612.2756943480344,None,1,2022_Jun_28_1531,Semantic-hierachy,2021.1.2,
313,Trial # 314,layer0-5_O3_to_T2.jpg,layer0-5/layer0-5_O3_to_T2.jpg,OT,layer0-5,,,,,,,,,0.0,13.0,13.0,13.0,1614.9111835840158,None,1.0,2.232333815016318,1614.9111835840158,None,1614.9111835840158,None,1614.9111835840158,None,1,2022_Jun_28_1531,Semantic-hierachy,2021.1.2,
314,Trial # 315,layer9-17_T1_to_T11.jpg,layer9-17/layer9-17_T1_to_T11.jpg,TT,layer9-17,,,,,,,,,0.0,14.0,14.0,14.0,1617.444219607045,None,2.0,1.4776755350176245,1617.444219607045,None,1617.444219607045,None,1617.444219607045,None,1,2022_Jun_28_1531,Semantic-hierachy,2021.1.2,
315,Trial # 316,layer6-8_T10_to_T7.jpg,layer6-8/layer6-8_T10_to_T7.jpg,TT,layer6-8,,,,,,,,,0.0,15.0,15.0,15.0,1619.145418070024,None,1.0,4.99864407395944,1619.145418070024,None,1619.145418070024,None,1619.145418070024,None,1,2022_Jun_28_1531,Semantic-hierachy,2021.1.2,
316,Trial # 317,layer0-5_T6_to_T7.jpg,layer0-5/layer0-5_T6_to_T7.jpg,TT,layer0-5,,,,,,,,,0.0,16.0,16.0,16.0,1626.1297536370112,None,1.0,2.2967954539926723,1626.1297536370112,None,1626.1297536370112,None,1626.1297536370112,None,1,2022_Jun_28_1531,Semantic-hierachy,2021.1.2,
317,Trial # 318,layer9-17_O1_to_T3.jpg,layer9-17/layer9-17_O1_to_T3.jpg,OT,layer9-17,,,,,,,,,0.0,17.0,17.0,17.0,1628.730965891038,None,2.0,1.5896238280110992,1628.730965891038,None,1628.730965891038,None,1628.730965891038,None,1,2022_Jun_28_1531,Semantic-hierachy,2021.1.2,
318,Trial # 319,layer0-5_O2_to_T5.jpg,layer0-5/layer0-5_O2_to_T5.jpg,OT,layer0-5,,,,,,,,,0.0,18.0,18.0,18.0,1630.598066807026,None,1.0,2.690443652041722,1630.598066807026,None,1630.598066807026,None,1630.598066807026,None,1,2022_Jun_28_1531,Semantic-hierachy,2021.1.2,
319,Trial # 320,layer6-8_O7_to_T10.jpg,layer6-8/layer6-8_O7_to_T10.jpg,OT,layer6-8,,,,,,,,,0.0,19.0,19.0,19.0,1633.5991372970166,None,3.0,2.5218781380099244,1633.5991372970166,None,1633.5991372970166,None,1633.5991372970166,None,1,2022_Jun_28_1531,Semantic-hierachy,2021.1.2,
320,Trial # 321,layer0-5_O5_to_O6.jpg,layer0-5/layer0-5_O5_to_O6.jpg,OO,layer0-5,,,,,,,,,0.0,20.0,20.0,20.0,1636.7329134370084,None,1.0,1.892981217999477,1636.7329134370084,None,1636.7329134370084,None,1636.7329134370084,None,1,2022_Jun_28_1531,Semantic-hierachy,2021.1.2,
321,Trial # 322,layer9-17_O5_to_T4.jpg,layer9-17/layer9-17_O5_to_T4.jpg,OT,layer9-17,,,,,,,,,0.0,21.0,21.0,21.0,1639.5186668550014,None,2.0,1.6241440740413964,1639.5186668550014,None,1639.5186668550014,None,1639.5186668550014,None,1,2022_Jun_28_1531,Semantic-hierachy,2021.1.2,
322,Trial # 323,layer0-5_T12_to_T2.jpg,layer0-5/layer0-5_T12_to_T2.jpg,TT,layer0-5,,,,,,,,,0.0,22.0,22.0,22.0,1641.851608535042,None,1.0,3.990605609025806,1641.851608535042,None,1641.851608535042,None,1641.851608535042,None,1,2022_Jun_28_1531,Semantic-hierachy,2021.1.2,
323,Trial # 324,layer0-5_O2_to_O4.jpg,layer0-5/layer0-5_O2_to_O4.jpg,OO,layer0-5,,,,,,,,,0.0,23.0,23.0,23.0,1646.2029464410152,None,1.0,1.5922601509955712,1646.2029464410152,None,1646.2029464410152,None,1646.2029464410152,None,1,2022_Jun_28_1531,Semantic-hierachy,2021.1.2,
324,Trial # 325,layer6-8_O1_to_O9.jpg,layer6-8/layer6-8_O1_to_O9.jpg,OO,layer6-8,,,,,,,,,0.0,24.0,24.0,24.0,1648.0701564460178,None,4.0,6.822117897041608,1648.0701564460178,None,1648.0701564460178,None,1648.0701564460178,None,1,2022_Jun_28_1531,Semantic-hierachy,2021.1.2,
325,Trial # 326,layer0-5_T3_to_T5.jpg,layer0-5/layer0-5_T3_to_T5.jpg,TT,layer0-5,,,,,,,,,0.0,25.0,25.0,25.0,1655.40695341205,None,1.0,1.2721887350198813,1655.40695341205,None,1655.40695341205,None,1655.40695341205,None,1,2022_Jun_28_1531,Semantic-hierachy,2021.1.2,
326,Trial # 327,layer6-8_O8_to_T12.jpg,layer6-8/layer6-8_O8_to_T12.jpg,OT,layer6-8,,,,,,,,,0.0,26.0,26.0,26.0,1657.0230525140068,None,2.0,7.266531845962163,1657.0230525140068,None,1657.0230525140068,None,1657.0230525140068,None,1,2022_Jun_28_1531,Semantic-hierachy,2021.1.2,
327,Trial # 328,layer9-17_T11_to_T4.jpg,layer9-17/layer9-17_T11_to_T4.jpg,TT,layer9-17,,,,,,,,,0.0,27.0,27.0,27.0,1665.776525932015,None,2.0,1.710459814989008,1665.776525932015,None,1665.776525932015,None,1665.776525932015,None,1,2022_Jun_28_1531,Semantic-hierachy,2021.1.2,
328,Trial # 329,layer9-17_O6_to_T2.jpg,layer9-17/layer9-17_O6_to_T2.jpg,OT,layer9-17,,,,,,,,,0.0,28.0,28.0,28.0,1667.8262736780453,None,2.0,1.192963192006573,1667.8262736780453,None,1667.8262736780453,None,1667.8262736780453,None,1,2022_Jun_28_1531,Semantic-hierachy,2021.1.2,
329,Trial # 330,layer9-17_T10_to_T9.jpg,layer9-17/layer9-17_T10_to_T9.jpg,TT,layer9-17,,,,,,,,,0.0,29.0,29.0,29.0,1669.293854242016,None,4.0,2.283614129002672,1669.293854242016,None,1669.293854242016,None,1669.293854242016,None,1,2022_Jun_28_1531,Semantic-hierachy,2021.1.2,
330,Trial # 331,layer0-5_O2_to_O3.jpg,layer0-5/layer0-5_O2_to_O3.jpg,OO,layer0-5,,,,,,,,,0.0,30.0,30.0,30.0,1672.8105589120532,None,1.0,1.777406412991695,1672.8105589120532,None,1672.8105589120532,None,1672.8105589120532,None,1,2022_Jun_28_1531,Semantic-hierachy,2021.1.2,
331,Trial # 332,layer6-8_O1_to_O12.jpg,layer6-8/layer6-8_O1_to_O12.jpg,OO,layer6-8,,,,,,,,,0.0,31.0,31.0,31.0,1674.8795952530345,None,3.0,2.253653061983641,1674.8795952530345,None,1674.8795952530345,None,1674.8795952530345,None,1,2022_Jun_28_1531,Semantic-hierachy,2021.1.2,
332,Trial # 333,layer0-5_O5_to_T12.jpg,layer0-5/layer0-5_O5_to_T12.jpg,OT,layer0-5,,,,,,,,,0.0,32.0,32.0,32.0,1677.945554533042,None,1.0,1.4630272699869238,1677.945554533042,None,1677.945554533042,None,1677.945554533042,None,1,2022_Jun_28_1531,Semantic-hierachy,2021.1.2,
333,Trial # 334,layer9-17_O11_to_T6.jpg,layer9-17/layer9-17_O11_to_T6.jpg,OT,layer9-17,,,,,,,,,0.0,33.0,33.0,33.0,1679.747847938037,None,1.0,1.673407354974188,1679.747847938037,None,1679.747847938037,None,1679.747847938037,None,1,2022_Jun_28_1531,Semantic-hierachy,2021.1.2,
334,Trial # 335,layer0-5_O4_to_T1.jpg,layer0-5/layer0-5_O4_to_T1.jpg,OT,layer0-5,,,,,,,,,0.0,34.0,34.0,34.0,1681.8972496700007,None,1.0,1.1413107080152258,1681.8972496700007,None,1681.8972496700007,None,1681.8972496700007,None,1,2022_Jun_28_1531,Semantic-hierachy,2021.1.2,
335,Trial # 336,layer6-8_T1_to_T6.jpg,layer6-8/layer6-8_T1_to_T6.jpg,TT,layer6-8,,,,,,,,,0.0,35.0,35.0,35.0,1683.430904065026,None,4.0,5.877231803024188,1683.430904065026,None,1683.430904065026,None,1683.430904065026,None,1,2022_Jun_28_1531,Semantic-hierachy,2021.1.2,
336,Trial # 337,layer0-5_O12_to_O6.jpg,layer0-5/layer0-5_O12_to_O6.jpg,OO,layer0-5,,,,,,,,,0.0,36.0,36.0,36.0,1689.6338692770223,None,1.0,1.643065240001306,1689.6338692770223,None,1689.6338692770223,None,1689.6338692770223,None,1,2022_Jun_28_1531,Semantic-hierachy,2021.1.2,
337,Trial # 338,layer0-5_O1_to_O10.jpg,layer0-5/layer0-5_O1_to_O10.jpg,OO,layer0-5,,,,,,,,,0.0,37.0,37.0,37.0,1691.5167572620558,None,1.0,1.3744608089909889,1691.5167572620558,None,1691.5167572620558,None,1691.5167572620558,None,1,2022_Jun_28_1531,Semantic-hierachy,2021.1.2,
338,Trial # 339,layer0-5_O9_to_T9.jpg,layer0-5/layer0-5_O9_to_T9.jpg,OT,layer0-5,,,,,,,,,0.0,38.0,38.0,38.0,1693.2004731200286,None,1.0,1.2265457090106793,1693.2004731200286,None,1693.2004731200286,None,1693.2004731200286,None,1,2022_Jun_28_1531,Semantic-hierachy,2021.1.2,
339,Trial # 340,layer6-8_O6_to_T10.jpg,layer6-8/layer6-8_O6_to_T10.jpg,OT,layer6-8,,,,,,,,,0.0,39.0,39.0,39.0,1694.635173969029,None,3.0,1.7395671749836763,1694.635173969029,None,1694.635173969029,None,1694.635173969029,None,1,2022_Jun_28_1531,Semantic-hierachy,2021.1.2,
340,Trial # 341,layer9-17_O3_to_T3.jpg,layer9-17/layer9-17_O3_to_T3.jpg,OT,layer9-17,,,,,,,,,0.0,40.0,40.0,40.0,1696.7181788080488,None,2.0,2.1561460430384614,1696.7181788080488,None,1696.7181788080488,None,1696.7181788080488,None,1,2022_Jun_28_1531,Semantic-hierachy,2021.1.2,
341,Trial # 342,layer0-5_O8_to_T8.jpg,layer0-5/layer0-5_O8_to_T8.jpg,OT,layer0-5,,,,,,,,,0.0,41.0,41.0,41.0,1699.252918071055,None,1.0,1.6051090129767545,1699.252918071055,None,1699.252918071055,None,1699.252918071055,None,1,2022_Jun_28_1531,Semantic-hierachy,2021.1.2,
342,Trial # 343,layer9-17_O11_to_O3.jpg,layer9-17/layer9-17_O11_to_O3.jpg,OO,layer9-17,,,,,,,,,0.0,42.0,42.0,42.0,1701.6531623960473,None,2.0,1.9484697789885104,1701.6531623960473,None,1701.6531623960473,None,1701.6531623960473,None,1,2022_Jun_28_1531,Semantic-hierachy,2021.1.2,
343,Trial # 344,layer9-17_O10_to_T12.jpg,layer9-17/layer9-17_O10_to_T12.jpg,OT,layer9-17,,,,,,,,,0.0,43.0,43.0,43.0,1704.3216078080004,None,2.0,2.0906134760007262,1704.3216078080004,None,1704.3216078080004,None,1704.3216078080004,None,1,2022_Jun_28_1531,Semantic-hierachy,2021.1.2,
344,Trial # 345,layer6-8_T3_to_T6.jpg,layer6-8/layer6-8_T3_to_T6.jpg,TT,layer6-8,,,,,,,,,0.0,44.0,44.0,44.0,1707.038226579025,None,4.0,2.5439339599688537,1707.038226579025,None,1707.038226579025,None,1707.038226579025,None,1,2022_Jun_28_1531,Semantic-hierachy,2021.1.2,
345,Trial # 346,layer6-8_O1_to_O4.jpg,layer6-8/layer6-8_O1_to_O4.jpg,OO,layer6-8,,,,,,,,,0.0,45.0,45.0,45.0,1710.67394918605,None,4.0,5.606391065986827,1710.67394918605,None,1710.67394918605,None,1710.67394918605,None,1,2022_Jun_28_1531,Semantic-hierachy,2021.1.2,
346,Trial # 347,layer0-5_O8_to_T3.jpg,layer0-5/layer0-5_O8_to_T3.jpg,OT,layer0-5,,,,,,,,,0.0,46.0,46.0,46.0,1716.8413116010488,None,1.0,1.2781416549696587,1716.8413116010488,None,1716.8413116010488,None,1716.8413116010488,None,1,2022_Jun_28_1531,Semantic-hierachy,2021.1.2,
347,Trial # 348,layer9-17_T2_to_T7.jpg,layer9-17/layer9-17_T2_to_T7.jpg,TT,layer9-17,,,,,,,,,0.0,47.0,47.0,47.0,1718.4579212510143,None,2.0,4.685675789020024,1718.4579212510143,None,1718.4579212510143,None,1718.4579212510143,None,1,2022_Jun_28_1531,Semantic-hierachy,2021.1.2,
348,Trial # 349,layer0-5_O9_to_T4.jpg,layer0-5/layer0-5_O9_to_T4.jpg,OT,layer0-5,,,,,,,,,0.0,48.0,48.0,48.0,1723.4772196910344,None,1.0,1.594467827992048,1723.4772196910344,None,1723.4772196910344,None,1723.4772196910344,None,1,2022_Jun_28_1531,Semantic-hierachy,2021.1.2,
349,Trial # 350,layer9-17_T12_to_T9.jpg,layer9-17/layer9-17_T12_to_T9.jpg,TT,layer9-17,,,,,,,,,0.0,49.0,49.0,49.0,1725.3782537360094,None,2.0,1.6713924340438098,1725.3782537360094,None,1725.3782537360094,None,1725.3782537360094,None,1,2022_Jun_28_1531,Semantic-hierachy,2021.1.2,
350,Trial # 351,layer6-8_O11_to_O6.jpg,layer6-8/layer6-8_O11_to_O6.jpg,OO,layer6-8,,,,,,,,,0.0,50.0,50.0,50.0,1727.427665205032,None,2.0,1.395203409017995,1727.427665205032,None,1727.427665205032,None,1727.427665205032,None,1,2022_Jun_28_1531,Semantic-hierachy,2021.1.2,
351,Trial # 352,layer0-5_O10_to_O11.jpg,layer0-5/layer0-5_O10_to_O11.jpg,OO,layer0-5,,,,,,,,,0.0,51.0,51.0,51.0,1730.1967056640424,None,1.0,2.912695549952332,1730.1967056640424,None,1730.1967056640424,None,1730.1967056640424,None,1,2022_Jun_28_1531,Semantic-hierachy,2021.1.2,
352,Trial # 353,layer9-17_O4_to_T7.jpg,layer9-17/layer9-17_O4_to_T7.jpg,OT,layer9-17,,,,,,,,,0.0,52.0,52.0,52.0,1733.6637127470458,None,2.0,1.9928564470028505,1733.6637127470458,None,1733.6637127470458,None,1733.6637127470458,None,1,2022_Jun_28_1531,Semantic-hierachy,2021.1.2,
353,Trial # 354,layer0-5_O2_to_T11.jpg,layer0-5/layer0-5_O2_to_T11.jpg,OT,layer0-5,,,,,,,,,0.0,53.0,53.0,53.0,1735.9304323540418,None,1.0,1.3789497850229964,1735.9304323540418,None,1735.9304323540418,None,1735.9304323540418,None,1,2022_Jun_28_1531,Semantic-hierachy,2021.1.2,
354,Trial # 355,layer9-17_O5_to_O6.jpg,layer9-17/layer9-17_O5_to_O6.jpg,OO,layer9-17,,,,,,,,,0.0,54.0,54.0,54.0,1737.5478551420383,None,2.0,1.1701312770019283,1737.5478551420383,None,1737.5478551420383,None,1737.5478551420383,None,1,2022_Jun_28_1531,Semantic-hierachy,2021.1.2,
355,Trial # 356,layer6-8_O5_to_T10.jpg,layer6-8/layer6-8_O5_to_T10.jpg,OT,layer6-8,,,,,,,,,0.0,55.0,55.0,55.0,1739.2494674200425,None,3.0,2.94350840500556,1739.2494674200425,None,1739.2494674200425,None,1739.2494674200425,None,1,2022_Jun_28_1531,Semantic-hierachy,2021.1.2,
356,Trial # 357,layer6-8_T3_to_T4.jpg,layer6-8/layer6-8_T3_to_T4.jpg,TT,layer6-8,,,,,,,,,0.0,56.0,56.0,56.0,1742.8327302760445,None,4.0,3.992388929997105,1742.8327302760445,None,1742.8327302760445,None,1742.8327302760445,None,1,2022_Jun_28_1531,Semantic-hierachy,2021.1.2,
357,Trial # 358,layer6-8_T4_to_T8.jpg,layer6-8/layer6-8_T4_to_T8.jpg,TT,layer6-8,,,,,,,,,0.0,57.0,57.0,57.0,1748.8693332970142,None,4.0,3.699803449970205,1748.8693332970142,None,1748.8693332970142,None,1748.8693332970142,None,1,2022_Jun_28_1531,Semantic-hierachy,2021.1.2,
358,Trial # 359,layer0-5_O2_to_T4.jpg,layer0-5/layer0-5_O2_to_T4.jpg,OT,layer0-5,,,,,,,,,0.0,58.0,58.0,58.0,1753.7526761830086,None,1.0,2.0242717869696207,1753.7526761830086,None,1753.7526761830086,None,1753.7526761830086,None,1,2022_Jun_28_1531,Semantic-hierachy,2021.1.2,
359,Trial # 360,layer0-5_O4_to_O7.jpg,layer0-5/layer0-5_O4_to_O7.jpg,OO,layer0-5,,,,,,,,,0.0,59.0,59.0,59.0,1756.0700155070515,None,1.0,1.346957674017176,1756.0700155070515,None,1756.0700155070515,None,1756.0700155070515,None,1,2022_Jun_28_1531,Semantic-hierachy,2021.1.2,
360,Trial # 361,layer9-17_O12_to_T7.jpg,layer9-17/layer9-17_O12_to_T7.jpg,OT,layer9-17,,,,,,,,,0.0,60.0,60.0,60.0,1757.7041156570194,None,2.0,1.5077466560178436,1757.7041156570194,None,1757.7041156570194,None,1757.7041156570194,None,1,2022_Jun_28_1531,Semantic-hierachy,2021.1.2,
361,Trial # 362,layer6-8_O11_to_T8.jpg,layer6-8/layer6-8_O11_to_T8.jpg,OT,layer6-8,,,,,,,,,0.0,61.0,61.0,61.0,1759.755978738016,None,4.0,4.863687746052165,1759.755978738016,None,1759.755978738016,None,1759.755978738016,None,1,2022_Jun_28_1531,Semantic-hierachy,2021.1.2,
362,Trial # 363,layer9-17_O10_to_T6.jpg,layer9-17/layer9-17_O10_to_T6.jpg,OT,layer9-17,,,,,,,,,0.0,62.0,62.0,62.0,1766.3403179750312,None,2.0,5.360672932991292,1766.3403179750312,None,1766.3403179750312,None,1766.3403179750312,None,1,2022_Jun_28_1531,Semantic-hierachy,2021.1.2,
363,Trial # 364,layer0-5_O5_to_T7.jpg,layer0-5/layer0-5_O5_to_T7.jpg,OT,layer0-5,,,,,,,,,0.0,63.0,63.0,63.0,1772.241853962012,None,1.0,1.5429973909631371,1772.241853962012,None,1772.241853962012,None,1772.241853962012,None,1,2022_Jun_28_1531,Semantic-hierachy,2021.1.2,
