,Trial_num,image_name,image_path,pair_type,layers,block1.thisRepN,block1.thisTrialN,block1.thisN,block1.thisIndex,block2.thisRepN,block2.thisTrialN,block2.thisN,block2.thisIndex,block3.thisRepN,block3.thisTrialN,block3.thisN,block3.thisIndex,image_8.started,image_8.stopped,selected_semantic.response,selected_semantic.rt,selected_semantic.started,selected_semantic.stopped,Instruction.started,Instruction.stopped,Trial_number.started,Trial_number.stopped,session,date,expName,psychopyVersion,Unnamed: 33
0,Trial # 1,layer0-5_O2_to_T1.jpg,layer0-5/layer0-5_O2_to_T1.jpg,OT,layer0-5,0.0,0.0,0.0,0.0,,,,,,,,,414.2748515100684,None,1.0,143.93402316002175,414.2748515100684,None,414.2748515100684,None,414.2748515100684,None,1,2022_Jul_11_0758,Semantic-hierachy,2021.1.2,
1,Trial # 2,layer0-5_O11_to_T7.jpg,layer0-5/layer0-5_O11_to_T7.jpg,OT,layer0-5,0.0,1.0,1.0,1.0,,,,,,,,,562.4720834449399,None,1.0,8.46543846721761,562.4720834449399,None,562.4720834449399,None,562.4720834449399,None,1,2022_Jul_11_0758,Semantic-hierachy,2021.1.2,
2,Trial # 3,layer6-8_O3_to_O5.jpg,layer6-8/layer6-8_O3_to_O5.jpg,OO,layer6-8,0.0,2.0,2.0,2.0,,,,,,,,,572.4582647560164,None,4.0,28.34179794415832,572.4582647560164,None,572.4582647560164,None,572.4582647560164,None,1,2022_Jul_11_0758,Semantic-hierachy,2021.1.2,
3,Trial # 4,layer6-8_O11_to_O4.jpg,layer6-8/layer6-8_O11_to_O4.jpg,OO,layer6-8,0.0,3.0,3.0,3.0,,,,,,,,,601.066509337863,None,3.0,2.948226989945397,601.066509337863,None,601.066509337863,None,601.066509337863,None,1,2022_Jul_11_0758,Semantic-hierachy,2021.1.2,
4,Trial # 5,layer6-8_O8_to_T8.jpg,layer6-8/layer6-8_O8_to_T8.jpg,OT,layer6-8,0.0,4.0,4.0,4.0,,,,,,,,,604.3837343759369,None,3.0,1.895699238870293,604.3837343759369,None,604.3837343759369,None,604.3837343759369,None,1,2022_Jul_11_0758,Semantic-hierachy,2021.1.2,
5,Trial # 6,layer0-5_O11_to_O8.jpg,layer0-5/layer0-5_O11_to_O8.jpg,OO,layer0-5,0.0,5.0,5.0,5.0,,,,,,,,,606.7178293489851,None,1.0,2.404496904928237,606.7178293489851,None,606.7178293489851,None,606.7178293489851,None,1,2022_Jul_11_0758,Semantic-hierachy,2021.1.2,
6,Trial # 7,layer0-5_T10_to_T11.jpg,layer0-5/layer0-5_T10_to_T11.jpg,TT,layer0-5,0.0,6.0,6.0,6.0,,,,,,,,,609.501949305879,None,1.0,1.8273920728825035,609.501949305879,None,609.501949305879,None,609.501949305879,None,1,2022_Jul_11_0758,Semantic-hierachy,2021.1.2,
7,Trial # 8,layer9-17_O6_to_O9.jpg,layer9-17/layer9-17_O6_to_O9.jpg,OO,layer9-17,0.0,7.0,7.0,7.0,,,,,,,,,611.6360697110649,None,2.0,1.793270487105474,611.6360697110649,None,611.6360697110649,None,611.6360697110649,None,1,2022_Jul_11_0758,Semantic-hierachy,2021.1.2,
8,Trial # 9,layer6-8_O12_to_O9.jpg,layer6-8/layer6-8_O12_to_O9.jpg,OO,layer6-8,0.0,8.0,8.0,8.0,,,,,,,,,613.7045674819965,None,3.0,2.846406802069396,613.7045674819965,None,613.7045674819965,None,613.7045674819965,None,1,2022_Jul_11_0758,Semantic-hierachy,2021.1.2,
9,Trial # 10,layer0-5_O10_to_T2.jpg,layer0-5/layer0-5_O10_to_T2.jpg,OT,layer0-5,0.0,9.0,9.0,9.0,,,,,,,,,616.937660963973,None,1.0,3.4975815820507705,616.937660963973,None,616.937660963973,None,616.937660963973,None,1,2022_Jul_11_0758,Semantic-hierachy,2021.1.2,
10,Trial # 11,layer9-17_T10_to_T2.jpg,layer9-17/layer9-17_T10_to_T2.jpg,TT,layer9-17,0.0,10.0,10.0,10.0,,,,,,,,,620.6723119639792,None,4.0,7.093635967001319,620.6723119639792,None,620.6723119639792,None,620.6723119639792,None,1,2022_Jul_11_0758,Semantic-hierachy,2021.1.2,
11,Trial # 12,layer6-8_T6_to_T7.jpg,layer6-8/layer6-8_T6_to_T7.jpg,TT,layer6-8,0.0,11.0,11.0,11.0,,,,,,,,,628.0084879349452,None,3.0,5.201198103139177,628.0084879349452,None,628.0084879349452,None,628.0084879349452,None,1,2022_Jul_11_0758,Semantic-hierachy,2021.1.2,
12,Trial # 13,layer9-17_O10_to_T2.jpg,layer9-17/layer9-17_O10_to_T2.jpg,OT,layer9-17,0.0,12.0,12.0,12.0,,,,,,,,,633.42667006189,None,2.0,1.6103463489562273,633.42667006189,None,633.42667006189,None,633.42667006189,None,1,2022_Jul_11_0758,Semantic-hierachy,2021.1.2,
13,Trial # 14,layer6-8_T4_to_T7.jpg,layer6-8/layer6-8_T4_to_T7.jpg,TT,layer6-8,0.0,13.0,13.0,13.0,,,,,,,,,635.3265273170546,None,4.0,4.556414148071781,635.3265273170546,None,635.3265273170546,None,635.3265273170546,None,1,2022_Jul_11_0758,Semantic-hierachy,2021.1.2,
14,Trial # 15,layer9-17_O8_to_T2.jpg,layer9-17/layer9-17_O8_to_T2.jpg,OT,layer9-17,0.0,14.0,14.0,14.0,,,,,,,,,640.062053876929,None,2.0,1.7864424558356404,640.062053876929,None,640.062053876929,None,640.062053876929,None,1,2022_Jul_11_0758,Semantic-hierachy,2021.1.2,
15,Trial # 16,layer0-5_T6_to_T9.jpg,layer0-5/layer0-5_T6_to_T9.jpg,TT,layer0-5,0.0,15.0,15.0,15.0,,,,,,,,,642.346605245024,None,1.0,2.3130803590174764,642.346605245024,None,642.346605245024,None,642.346605245024,None,1,2022_Jul_11_0758,Semantic-hierachy,2021.1.2,
16,Trial # 17,layer0-5_O11_to_O12.jpg,layer0-5/layer0-5_O11_to_O12.jpg,OO,layer0-5,0.0,16.0,16.0,16.0,,,,,,,,,644.8807206349447,None,1.0,1.4642581481020898,644.8807206349447,None,644.8807206349447,None,644.8807206349447,None,1,2022_Jul_11_0758,Semantic-hierachy,2021.1.2,
17,Trial # 18,layer0-5_T11_to_T5.jpg,layer0-5/layer0-5_T11_to_T5.jpg,TT,layer0-5,0.0,17.0,17.0,17.0,,,,,,,,,646.6637028919067,None,1.0,1.5752931300085038,646.6637028919067,None,646.6637028919067,None,646.6637028919067,None,1,2022_Jul_11_0758,Semantic-hierachy,2021.1.2,
18,Trial # 19,layer0-5_O6_to_T12.jpg,layer0-5/layer0-5_O6_to_T12.jpg,OT,layer0-5,0.0,18.0,18.0,18.0,,,,,,,,,648.4654143599328,None,1.0,1.3403652268461883,648.4654143599328,None,648.4654143599328,None,648.4654143599328,None,1,2022_Jul_11_0758,Semantic-hierachy,2021.1.2,
19,Trial # 20,layer6-8_T6_to_T8.jpg,layer6-8/layer6-8_T6_to_T8.jpg,TT,layer6-8,0.0,19.0,19.0,19.0,,,,,,,,,650.1313293620478,None,3.0,2.549926816020161,650.1313293620478,None,650.1313293620478,None,650.1313293620478,None,1,2022_Jul_11_0758,Semantic-hierachy,2021.1.2,
20,Trial # 21,layer9-17_T2_to_T5.jpg,layer9-17/layer9-17_T2_to_T5.jpg,TT,layer9-17,0.0,20.0,20.0,20.0,,,,,,,,,653.0001969430596,None,2.0,1.8093625160399824,653.0001969430596,None,653.0001969430596,None,653.0001969430596,None,1,2022_Jul_11_0758,Semantic-hierachy,2021.1.2,
21,Trial # 22,layer6-8_O2_to_O6.jpg,layer6-8/layer6-8_O2_to_O6.jpg,OO,layer6-8,0.0,21.0,21.0,21.0,,,,,,,,,655.0664413869381,None,4.0,2.7225530399009585,655.0664413869381,None,655.0664413869381,None,655.0664413869381,None,1,2022_Jul_11_0758,Semantic-hierachy,2021.1.2,
22,Trial # 23,layer9-17_O3_to_T12.jpg,layer9-17/layer9-17_O3_to_T12.jpg,OT,layer9-17,0.0,22.0,22.0,22.0,,,,,,,,,657.9672007679474,None,2.0,1.8291213898919525,657.9672007679474,None,657.9672007679474,None,657.9672007679474,None,1,2022_Jul_11_0758,Semantic-hierachy,2021.1.2,
23,Trial # 24,layer0-5_O11_to_O3.jpg,layer0-5/layer0-5_O11_to_O3.jpg,OO,layer0-5,0.0,23.0,23.0,23.0,,,,,,,,,660.0179919539951,None,1.0,5.584567446960136,660.0179919539951,None,660.0179919539951,None,660.0179919539951,None,1,2022_Jul_11_0758,Semantic-hierachy,2021.1.2,
24,Trial # 25,layer6-8_O2_to_O9.jpg,layer6-8/layer6-8_O2_to_O9.jpg,OO,layer6-8,0.0,24.0,24.0,24.0,,,,,,,,,665.8698111518752,None,4.0,3.897717335028574,665.8698111518752,None,665.8698111518752,None,665.8698111518752,None,1,2022_Jul_11_0758,Semantic-hierachy,2021.1.2,
25,Trial # 26,layer9-17_O10_to_O8.jpg,layer9-17/layer9-17_O10_to_O8.jpg,OO,layer9-17,0.0,25.0,25.0,25.0,,,,,,,,,669.9384956809226,None,2.0,3.4119943119585514,669.9384956809226,None,669.9384956809226,None,669.9384956809226,None,1,2022_Jul_11_0758,Semantic-hierachy,2021.1.2,
26,Trial # 27,layer9-17_T4_to_T6.jpg,layer9-17/layer9-17_T4_to_T6.jpg,TT,layer9-17,0.0,26.0,26.0,26.0,,,,,,,,,673.5061663358938,None,2.0,1.1488168009091169,673.5061663358938,None,673.5061663358938,None,673.5061663358938,None,1,2022_Jul_11_0758,Semantic-hierachy,2021.1.2,
27,Trial # 28,layer6-8_O7_to_T8.jpg,layer6-8/layer6-8_O7_to_T8.jpg,OT,layer6-8,0.0,27.0,27.0,27.0,,,,,,,,,674.8723303419538,None,2.0,1.1219786920119077,674.8723303419538,None,674.8723303419538,None,674.8723303419538,None,1,2022_Jul_11_0758,Semantic-hierachy,2021.1.2,
28,Trial # 29,layer6-8_T4_to_T5.jpg,layer6-8/layer6-8_T4_to_T5.jpg,TT,layer6-8,0.0,28.0,28.0,28.0,,,,,,,,,676.2228469289839,None,3.0,3.312492846045643,676.2228469289839,None,676.2228469289839,None,676.2228469289839,None,1,2022_Jul_11_0758,Semantic-hierachy,2021.1.2,
29,Trial # 30,layer6-8_T10_to_T9.jpg,layer6-8/layer6-8_T10_to_T9.jpg,TT,layer6-8,0.0,29.0,29.0,29.0,,,,,,,,,679.9739728660788,None,4.0,2.831301885191351,679.9739728660788,None,679.9739728660788,None,679.9739728660788,None,1,2022_Jul_11_0758,Semantic-hierachy,2021.1.2,
30,Trial # 31,layer9-17_O1_to_O8.jpg,layer9-17/layer9-17_O1_to_O8.jpg,OO,layer9-17,0.0,30.0,30.0,30.0,,,,,,,,,683.0421182098798,None,2.0,2.4602369100321084,683.0421182098798,None,683.0421182098798,None,683.0421182098798,None,1,2022_Jul_11_0758,Semantic-hierachy,2021.1.2,
31,Trial # 32,layer9-17_O12_to_O7.jpg,layer9-17/layer9-17_O12_to_O7.jpg,OO,layer9-17,0.0,31.0,31.0,31.0,,,,,,,,,685.6757072689943,None,2.0,2.9272992708720267,685.6757072689943,None,685.6757072689943,None,685.6757072689943,None,1,2022_Jul_11_0758,Semantic-hierachy,2021.1.2,
32,Trial # 33,layer9-17_T10_to_T12.jpg,layer9-17/layer9-17_T10_to_T12.jpg,TT,layer9-17,0.0,32.0,32.0,32.0,,,,,,,,,688.8432635720819,None,2.0,1.3599474630318582,688.8432635720819,None,688.8432635720819,None,688.8432635720819,None,1,2022_Jul_11_0758,Semantic-hierachy,2021.1.2,
33,Trial # 34,layer0-5_T2_to_T6.jpg,layer0-5/layer0-5_T2_to_T6.jpg,TT,layer0-5,0.0,33.0,33.0,33.0,,,,,,,,,690.7273719368968,None,3.0,2.8380063080694526,690.7273719368968,None,690.7273719368968,None,690.7273719368968,None,1,2022_Jul_11_0758,Semantic-hierachy,2021.1.2,
34,Trial # 35,layer6-8_T11_to_T2.jpg,layer6-8/layer6-8_T11_to_T2.jpg,TT,layer6-8,0.0,34.0,34.0,34.0,,,,,,,,,694.0287041580305,None,4.0,3.324947912013158,694.0287041580305,None,694.0287041580305,None,694.0287041580305,None,1,2022_Jul_11_0758,Semantic-hierachy,2021.1.2,
35,Trial # 36,layer6-8_O4_to_T3.jpg,layer6-8/layer6-8_O4_to_T3.jpg,OT,layer6-8,0.0,35.0,35.0,35.0,,,,,,,,,697.5304200290702,None,3.0,5.113345626043156,697.5304200290702,None,697.5304200290702,None,697.5304200290702,None,1,2022_Jul_11_0758,Semantic-hierachy,2021.1.2,
36,Trial # 37,layer6-8_O3_to_T11.jpg,layer6-8/layer6-8_O3_to_T11.jpg,OT,layer6-8,0.0,36.0,36.0,36.0,,,,,,,,,702.8146672269795,None,2.0,1.57035977486521,702.8146672269795,None,702.8146672269795,None,702.8146672269795,None,1,2022_Jul_11_0758,Semantic-hierachy,2021.1.2,
37,Trial # 38,layer6-8_T1_to_T2.jpg,layer6-8/layer6-8_T1_to_T2.jpg,TT,layer6-8,0.0,37.0,37.0,37.0,,,,,,,,,704.531711370917,None,1.0,2.5954054158646613,704.531711370917,None,704.531711370917,None,704.531711370917,None,1,2022_Jul_11_0758,Semantic-hierachy,2021.1.2,
38,Trial # 39,layer9-17_O2_to_O6.jpg,layer9-17/layer9-17_O2_to_O6.jpg,OO,layer9-17,0.0,38.0,38.0,38.0,,,,,,,,,707.2825942758936,None,4.0,5.6792176810558885,707.2825942758936,None,707.2825942758936,None,707.2825942758936,None,1,2022_Jul_11_0758,Semantic-hierachy,2021.1.2,
39,Trial # 40,layer9-17_O4_to_T2.jpg,layer9-17/layer9-17_O4_to_T2.jpg,OT,layer9-17,0.0,39.0,39.0,39.0,,,,,,,,,713.1687017988879,None,2.0,2.176512665115297,713.1687017988879,None,713.1687017988879,None,713.1687017988879,None,1,2022_Jul_11_0758,Semantic-hierachy,2021.1.2,
40,Trial # 41,layer6-8_O5_to_T3.jpg,layer6-8/layer6-8_O5_to_T3.jpg,OT,layer6-8,0.0,40.0,40.0,40.0,,,,,,,,,715.5351020540111,None,3.0,2.366599611938,715.5351020540111,None,715.5351020540111,None,715.5351020540111,None,1,2022_Jul_11_0758,Semantic-hierachy,2021.1.2,
41,Trial # 42,layer6-8_O2_to_O3.jpg,layer6-8/layer6-8_O2_to_O3.jpg,OO,layer6-8,0.0,41.0,41.0,41.0,,,,,,,,,718.0869039630052,None,2.0,1.477525532944128,718.0869039630052,None,718.0869039630052,None,718.0869039630052,None,1,2022_Jul_11_0758,Semantic-hierachy,2021.1.2,
42,Trial # 43,layer6-8_O1_to_T6.jpg,layer6-8/layer6-8_O1_to_T6.jpg,OT,layer6-8,0.0,42.0,42.0,42.0,,,,,,,,,719.7360576479696,None,2.0,3.367325900122524,719.7360576479696,None,719.7360576479696,None,719.7360576479696,None,1,2022_Jul_11_0758,Semantic-hierachy,2021.1.2,
43,Trial # 44,layer6-8_O2_to_T12.jpg,layer6-8/layer6-8_O2_to_T12.jpg,OT,layer6-8,0.0,43.0,43.0,43.0,,,,,,,,,723.2884702570736,None,3.0,1.545948261860758,723.2884702570736,None,723.2884702570736,None,723.2884702570736,None,1,2022_Jul_11_0758,Semantic-hierachy,2021.1.2,
44,Trial # 45,layer9-17_O2_to_O8.jpg,layer9-17/layer9-17_O2_to_O8.jpg,OO,layer9-17,0.0,44.0,44.0,44.0,,,,,,,,,725.0544529310428,None,4.0,2.6928994050249457,725.0544529310428,None,725.0544529310428,None,725.0544529310428,None,1,2022_Jul_11_0758,Semantic-hierachy,2021.1.2,
45,Trial # 46,layer9-17_O10_to_O4.jpg,layer9-17/layer9-17_O10_to_O4.jpg,OO,layer9-17,0.0,45.0,45.0,45.0,,,,,,,,,727.9724872398656,None,3.0,3.0612751140724868,727.9724872398656,None,727.9724872398656,None,727.9724872398656,None,1,2022_Jul_11_0758,Semantic-hierachy,2021.1.2,
46,Trial # 47,layer0-5_O1_to_O4.jpg,layer0-5/layer0-5_O1_to_O4.jpg,OO,layer0-5,0.0,46.0,46.0,46.0,,,,,,,,,731.189883129904,None,4.0,3.617106104968116,731.189883129904,None,731.189883129904,None,731.189883129904,None,1,2022_Jul_11_0758,Semantic-hierachy,2021.1.2,
47,Trial # 48,layer0-5_T4_to_T5.jpg,layer0-5/layer0-5_T4_to_T5.jpg,TT,layer0-5,0.0,47.0,47.0,47.0,,,,,,,,,735.9076987360604,None,1.0,2.860561936860904,735.9076987360604,None,735.9076987360604,None,735.9076987360604,None,1,2022_Jul_11_0758,Semantic-hierachy,2021.1.2,
48,Trial # 49,layer9-17_T12_to_T8.jpg,layer9-17/layer9-17_T12_to_T8.jpg,TT,layer9-17,0.0,48.0,48.0,48.0,,,,,,,,,738.959808917949,None,2.0,1.87318113213405,738.959808917949,None,738.959808917949,None,738.959808917949,None,1,2022_Jul_11_0758,Semantic-hierachy,2021.1.2,
49,Trial # 50,layer0-5_T10_to_T5.jpg,layer0-5/layer0-5_T10_to_T5.jpg,TT,layer0-5,0.0,49.0,49.0,49.0,,,,,,,,,741.0266662309878,None,1.0,2.924566884990781,741.0266662309878,None,741.0266662309878,None,741.0266662309878,None,1,2022_Jul_11_0758,Semantic-hierachy,2021.1.2,
50,Trial # 51,layer6-8_O10_to_O8.jpg,layer6-8/layer6-8_O10_to_O8.jpg,OO,layer6-8,0.0,50.0,50.0,50.0,,,,,,,,,744.1938833249733,None,2.0,3.507008800050244,744.1938833249733,None,744.1938833249733,None,744.1938833249733,None,1,2022_Jul_11_0758,Semantic-hierachy,2021.1.2,
51,Trial # 52,layer9-17_O3_to_O5.jpg,layer9-17/layer9-17_O3_to_O5.jpg,OO,layer9-17,0.0,51.0,51.0,51.0,,,,,,,,,747.8798280959018,None,2.0,1.22815730702132,747.8798280959018,None,747.8798280959018,None,747.8798280959018,None,1,2022_Jul_11_0758,Semantic-hierachy,2021.1.2,
52,Trial # 53,layer6-8_T1_to_T12.jpg,layer6-8/layer6-8_T1_to_T12.jpg,TT,layer6-8,0.0,52.0,52.0,52.0,,,,,,,,,749.3132206799928,None,3.0,2.339296801947057,749.3132206799928,None,749.3132206799928,None,749.3132206799928,None,1,2022_Jul_11_0758,Semantic-hierachy,2021.1.2,
53,Trial # 54,layer0-5_O4_to_O9.jpg,layer0-5/layer0-5_O4_to_O9.jpg,OO,layer0-5,0.0,53.0,53.0,53.0,,,,,,,,,751.8129816050641,None,1.0,3.63040147908032,751.8129816050641,None,751.8129816050641,None,751.8129816050641,None,1,2022_Jul_11_0758,Semantic-hierachy,2021.1.2,
54,Trial # 55,layer0-5_O5_to_O9.jpg,layer0-5/layer0-5_O5_to_O9.jpg,OO,layer0-5,0.0,54.0,54.0,54.0,,,,,,,,,755.6475620379206,None,1.0,2.0609860799741,755.6475620379206,None,755.6475620379206,None,755.6475620379206,None,1,2022_Jul_11_0758,Semantic-hierachy,2021.1.2,
55,Trial # 56,layer0-5_O1_to_O2.jpg,layer0-5/layer0-5_O1_to_O2.jpg,OO,layer0-5,0.0,55.0,55.0,55.0,,,,,,,,,757.882441899972,None,1.0,1.19150718790479,757.882441899972,None,757.882441899972,None,757.882441899972,None,1,2022_Jul_11_0758,Semantic-hierachy,2021.1.2,
56,Trial # 57,layer9-17_T12_to_T3.jpg,layer9-17/layer9-17_T12_to_T3.jpg,TT,layer9-17,0.0,56.0,56.0,56.0,,,,,,,,,759.2825071229599,None,2.0,1.3108938219957054,759.2825071229599,None,759.2825071229599,None,759.2825071229599,None,1,2022_Jul_11_0758,Semantic-hierachy,2021.1.2,
57,Trial # 58,layer0-5_O7_to_O9.jpg,layer0-5/layer0-5_O7_to_O9.jpg,OO,layer0-5,0.0,57.0,57.0,57.0,,,,,,,,,760.9990860158578,None,1.0,1.6292424218263477,760.9990860158578,None,760.9990860158578,None,760.9990860158578,None,1,2022_Jul_11_0758,Semantic-hierachy,2021.1.2,
58,Trial # 59,layer0-5_T5_to_T9.jpg,layer0-5/layer0-5_T5_to_T9.jpg,TT,layer0-5,0.0,58.0,58.0,58.0,,,,,,,,,763.0675702260341,None,1.0,2.1767874869983643,763.0675702260341,None,763.0675702260341,None,763.0675702260341,None,1,2022_Jul_11_0758,Semantic-hierachy,2021.1.2,
59,Trial # 60,layer9-17_O1_to_O9.jpg,layer9-17/layer9-17_O1_to_O9.jpg,OO,layer9-17,0.0,59.0,59.0,59.0,,,,,,,,,765.433769291034,None,4.0,4.842243732186034,765.433769291034,None,765.433769291034,None,765.433769291034,None,1,2022_Jul_11_0758,Semantic-hierachy,2021.1.2,
60,Trial # 61,layer0-5_O6_to_O7.jpg,layer0-5/layer0-5_O6_to_O7.jpg,OO,layer0-5,0.0,60.0,60.0,60.0,,,,,,,,,770.6858177909162,None,1.0,2.760413848096505,770.6858177909162,None,770.6858177909162,None,770.6858177909162,None,1,2022_Jul_11_0758,Semantic-hierachy,2021.1.2,
61,Trial # 62,layer9-17_T5_to_T6.jpg,layer9-17/layer9-17_T5_to_T6.jpg,TT,layer9-17,0.0,61.0,61.0,61.0,,,,,,,,,773.6867097420618,None,2.0,2.2805587199982256,773.6867097420618,None,773.6867097420618,None,773.6867097420618,None,1,2022_Jul_11_0758,Semantic-hierachy,2021.1.2,
62,Trial # 63,layer9-17_T4_to_T9.jpg,layer9-17/layer9-17_T4_to_T9.jpg,TT,layer9-17,0.0,62.0,62.0,62.0,,,,,,,,,776.2209301679395,None,2.0,1.5511349700391293,776.2209301679395,None,776.2209301679395,None,776.2209301679395,None,1,2022_Jul_11_0758,Semantic-hierachy,2021.1.2,
63,Trial # 64,layer0-5_O11_to_T1.jpg,layer0-5/layer0-5_O11_to_T1.jpg,OT,layer0-5,0.0,63.0,63.0,63.0,,,,,,,,,777.9557165319566,None,1.0,1.5931972858961672,777.9557165319566,None,777.9557165319566,None,777.9557165319566,None,1,2022_Jul_11_0758,Semantic-hierachy,2021.1.2,
64,Trial # 65,layer6-8_T5_to_T9.jpg,layer6-8/layer6-8_T5_to_T9.jpg,TT,layer6-8,0.0,64.0,64.0,64.0,,,,,,,,,779.7385890819132,None,3.0,5.216991453198716,779.7385890819132,None,779.7385890819132,None,779.7385890819132,None,1,2022_Jul_11_0758,Semantic-hierachy,2021.1.2,
65,Trial # 66,layer0-5_T4_to_T7.jpg,layer0-5/layer0-5_T4_to_T7.jpg,TT,layer0-5,0.0,65.0,65.0,65.0,,,,,,,,,785.4398452949245,None,1.0,1.7930141950491816,785.4398452949245,None,785.4398452949245,None,785.4398452949245,None,1,2022_Jul_11_0758,Semantic-hierachy,2021.1.2,
66,Trial # 67,layer0-5_O2_to_O6.jpg,layer0-5/layer0-5_O2_to_O6.jpg,OO,layer0-5,0.0,66.0,66.0,66.0,,,,,,,,,787.4409244828857,None,1.0,1.3608943468425423,787.4409244828857,None,787.4409244828857,None,787.4409244828857,None,1,2022_Jul_11_0758,Semantic-hierachy,2021.1.2,
67,Trial # 68,layer9-17_O12_to_T3.jpg,layer9-17/layer9-17_O12_to_T3.jpg,OT,layer9-17,0.0,67.0,67.0,67.0,,,,,,,,,789.0255382650066,None,2.0,1.443631413159892,789.0255382650066,None,789.0255382650066,None,789.0255382650066,None,1,2022_Jul_11_0758,Semantic-hierachy,2021.1.2,
68,Trial # 69,layer9-17_O7_to_O9.jpg,layer9-17/layer9-17_O7_to_O9.jpg,OO,layer9-17,0.0,68.0,68.0,68.0,,,,,,,,,790.6248717920389,None,4.0,2.328679966973141,790.6248717920389,None,790.6248717920389,None,790.6248717920389,None,1,2022_Jul_11_0758,Semantic-hierachy,2021.1.2,
69,Trial # 70,layer9-17_T1_to_T8.jpg,layer9-17/layer9-17_T1_to_T8.jpg,TT,layer9-17,0.0,69.0,69.0,69.0,,,,,,,,,793.1266324198805,None,3.0,3.6953156031668186,793.1266324198805,None,793.1266324198805,None,793.1266324198805,None,1,2022_Jul_11_0758,Semantic-hierachy,2021.1.2,
70,Trial # 71,layer0-5_O3_to_T8.jpg,layer0-5/layer0-5_O3_to_T8.jpg,OT,layer0-5,0.0,70.0,70.0,70.0,,,,,,,,,797.1601399290375,None,1.0,1.719983404036611,797.1601399290375,None,797.1601399290375,None,797.1601399290375,None,1,2022_Jul_11_0758,Semantic-hierachy,2021.1.2,
71,Trial # 72,layer9-17_O9_to_T2.jpg,layer9-17/layer9-17_O9_to_T2.jpg,OT,layer9-17,0.0,71.0,71.0,71.0,,,,,,,,,799.0784886670299,None,4.0,4.09038365399465,799.0784886670299,None,799.0784886670299,None,799.0784886670299,None,1,2022_Jul_11_0758,Semantic-hierachy,2021.1.2,
72,Trial # 73,layer9-17_O5_to_O7.jpg,layer9-17/layer9-17_O5_to_O7.jpg,OO,layer9-17,0.0,72.0,72.0,72.0,,,,,,,,,803.5959538458847,None,2.0,3.11338771507144,803.5959538458847,None,803.5959538458847,None,803.5959538458847,None,1,2022_Jul_11_0758,Semantic-hierachy,2021.1.2,
73,Trial # 74,layer0-5_T11_to_T9.jpg,layer0-5/layer0-5_T11_to_T9.jpg,TT,layer0-5,0.0,73.0,73.0,73.0,,,,,,,,,806.9633743290324,None,1.0,3.6643948811106384,806.9633743290324,None,806.9633743290324,None,806.9633743290324,None,1,2022_Jul_11_0758,Semantic-hierachy,2021.1.2,
74,Trial # 75,layer0-5_O11_to_T12.jpg,layer0-5/layer0-5_O11_to_T12.jpg,OT,layer0-5,0.0,74.0,74.0,74.0,,,,,,,,,810.9145553479902,None,1.0,1.3455691989511251,810.9145553479902,None,810.9145553479902,None,810.9145553479902,None,1,2022_Jul_11_0758,Semantic-hierachy,2021.1.2,
75,Trial # 76,layer9-17_T7_to_T9.jpg,layer9-17/layer9-17_T7_to_T9.jpg,TT,layer9-17,0.0,75.0,75.0,75.0,,,,,,,,,812.532676508883,None,4.0,4.402434296905994,812.532676508883,None,812.532676508883,None,812.532676508883,None,1,2022_Jul_11_0758,Semantic-hierachy,2021.1.2,
76,Trial # 77,layer6-8_O6_to_T2.jpg,layer6-8/layer6-8_O6_to_T2.jpg,OT,layer6-8,0.0,76.0,76.0,76.0,,,,,,,,,817.1501522879116,None,2.0,4.930601527914405,817.1501522879116,None,817.1501522879116,None,817.1501522879116,None,1,2022_Jul_11_0758,Semantic-hierachy,2021.1.2,
77,Trial # 78,layer9-17_T4_to_T5.jpg,layer9-17/layer9-17_T4_to_T5.jpg,TT,layer9-17,0.0,77.0,77.0,77.0,,,,,,,,,822.3518503080122,None,2.0,1.5015645518433305,822.3518503080122,None,822.3518503080122,None,822.3518503080122,None,1,2022_Jul_11_0758,Semantic-hierachy,2021.1.2,
78,Trial # 79,layer0-5_T2_to_T4.jpg,layer0-5/layer0-5_T2_to_T4.jpg,TT,layer0-5,0.0,78.0,78.0,78.0,,,,,,,,,824.0865565980785,None,1.0,1.540916936006397,824.0865565980785,None,824.0865565980785,None,824.0865565980785,None,1,2022_Jul_11_0758,Semantic-hierachy,2021.1.2,
79,Trial # 80,layer0-5_T2_to_T8.jpg,layer0-5/layer0-5_T2_to_T8.jpg,TT,layer0-5,0.0,79.0,79.0,79.0,,,,,,,,,825.7689653399866,None,1.0,1.0134725591633469,825.7689653399866,None,825.7689653399866,None,825.7689653399866,None,1,2022_Jul_11_0758,Semantic-hierachy,2021.1.2,
80,Trial # 81,layer9-17_T3_to_T9.jpg,layer9-17/layer9-17_T3_to_T9.jpg,TT,layer9-17,0.0,80.0,80.0,80.0,,,,,,,,,827.0854793898761,None,2.0,1.476748505840078,827.0854793898761,None,827.0854793898761,None,827.0854793898761,None,1,2022_Jul_11_0758,Semantic-hierachy,2021.1.2,
81,Trial # 82,layer9-17_O2_to_O5.jpg,layer9-17/layer9-17_O2_to_O5.jpg,OO,layer9-17,0.0,81.0,81.0,81.0,,,,,,,,,828.7545170718804,None,2.0,1.1505251131020486,828.7545170718804,None,828.7545170718804,None,828.7545170718804,None,1,2022_Jul_11_0758,Semantic-hierachy,2021.1.2,
82,Trial # 83,layer6-8_O6_to_O7.jpg,layer6-8/layer6-8_O6_to_O7.jpg,OO,layer6-8,0.0,82.0,82.0,82.0,,,,,,,,,830.1372137290891,None,1.0,3.4828047389164567,830.1372137290891,None,830.1372137290891,None,830.1372137290891,None,1,2022_Jul_11_0758,Semantic-hierachy,2021.1.2,
83,Trial # 84,layer9-17_O11_to_T1.jpg,layer9-17/layer9-17_O11_to_T1.jpg,OT,layer9-17,0.0,83.0,83.0,83.0,,,,,,,,,833.854803282069,None,2.0,1.4415200620424002,833.854803282069,None,833.854803282069,None,833.854803282069,None,1,2022_Jul_11_0758,Semantic-hierachy,2021.1.2,
84,Trial # 85,layer6-8_O5_to_T12.jpg,layer6-8/layer6-8_O5_to_T12.jpg,OT,layer6-8,0.0,84.0,84.0,84.0,,,,,,,,,835.5056830758695,None,3.0,3.0785564070101827,835.5056830758695,None,835.5056830758695,None,835.5056830758695,None,1,2022_Jul_11_0758,Semantic-hierachy,2021.1.2,
85,Trial # 86,layer6-8_O4_to_O7.jpg,layer6-8/layer6-8_O4_to_O7.jpg,OO,layer6-8,0.0,85.0,85.0,85.0,,,,,,,,,838.7899368698709,None,4.0,2.915711061097681,838.7899368698709,None,838.7899368698709,None,838.7899368698709,None,1,2022_Jul_11_0758,Semantic-hierachy,2021.1.2,
86,Trial # 87,layer6-8_T10_to_T8.jpg,layer6-8/layer6-8_T10_to_T8.jpg,TT,layer6-8,0.0,86.0,86.0,86.0,,,,,,,,,841.9580813799985,None,2.0,1.6463359091430902,841.9580813799985,None,841.9580813799985,None,841.9580813799985,None,1,2022_Jul_11_0758,Semantic-hierachy,2021.1.2,
87,Trial # 88,layer6-8_O10_to_T3.jpg,layer6-8/layer6-8_O10_to_T3.jpg,OT,layer6-8,0.0,87.0,87.0,87.0,,,,,,,,,843.8583392549772,None,3.0,2.4838171920273453,843.8583392549772,None,843.8583392549772,None,843.8583392549772,None,1,2022_Jul_11_0758,Semantic-hierachy,2021.1.2,
88,Trial # 89,layer6-8_O5_to_O9.jpg,layer6-8/layer6-8_O5_to_O9.jpg,OO,layer6-8,0.0,88.0,88.0,88.0,,,,,,,,,846.5422142569441,None,3.0,4.178008736111224,846.5422142569441,None,846.5422142569441,None,846.5422142569441,None,1,2022_Jul_11_0758,Semantic-hierachy,2021.1.2,
89,Trial # 90,layer6-8_O10_to_O11.jpg,layer6-8/layer6-8_O10_to_O11.jpg,OO,layer6-8,0.0,89.0,89.0,89.0,,,,,,,,,851.6277426008601,None,2.0,3.150895670056343,851.6277426008601,None,851.6277426008601,None,851.6277426008601,None,1,2022_Jul_11_0758,Semantic-hierachy,2021.1.2,
90,Trial # 91,layer0-5_O4_to_T5.jpg,layer0-5/layer0-5_O4_to_T5.jpg,OT,layer0-5,0.0,90.0,90.0,90.0,,,,,,,,,855.2791961808689,None,1.0,1.5682487641461194,855.2791961808689,None,855.2791961808689,None,855.2791961808689,None,1,2022_Jul_11_0758,Semantic-hierachy,2021.1.2,
91,Trial # 92,layer0-5_T11_to_T12.jpg,layer0-5/layer0-5_T11_to_T12.jpg,TT,layer0-5,0.0,91.0,91.0,91.0,,,,,,,,,857.3128724920098,None,1.0,0.9949078122153878,857.3128724920098,None,857.3128724920098,None,857.3128724920098,None,1,2022_Jul_11_0758,Semantic-hierachy,2021.1.2,
92,Trial # 93,layer0-5_T10_to_T3.jpg,layer0-5/layer0-5_T10_to_T3.jpg,TT,layer0-5,0.0,92.0,92.0,92.0,,,,,,,,,858.6307631828822,None,1.0,3.873378483112901,858.6307631828822,None,858.6307631828822,None,858.6307631828822,None,1,2022_Jul_11_0758,Semantic-hierachy,2021.1.2,
93,Trial # 94,layer0-5_O2_to_O8.jpg,layer0-5/layer0-5_O2_to_O8.jpg,OO,layer0-5,0.0,93.0,93.0,93.0,,,,,,,,,862.7318069820758,None,1.0,2.747107367962599,862.7318069820758,None,862.7318069820758,None,862.7318069820758,None,1,2022_Jul_11_0758,Semantic-hierachy,2021.1.2,
94,Trial # 95,layer0-5_T3_to_T8.jpg,layer0-5/layer0-5_T3_to_T8.jpg,TT,layer0-5,0.0,94.0,94.0,94.0,,,,,,,,,865.7315851789899,None,1.0,1.34299511089921,865.7315851789899,None,865.7315851789899,None,865.7315851789899,None,1,2022_Jul_11_0758,Semantic-hierachy,2021.1.2,
95,Trial # 96,layer0-5_O7_to_O8.jpg,layer0-5/layer0-5_O7_to_O8.jpg,OO,layer0-5,0.0,95.0,95.0,95.0,,,,,,,,,867.3667863719165,None,1.0,1.3070464520715177,867.3667863719165,None,867.3667863719165,None,867.3667863719165,None,1,2022_Jul_11_0758,Semantic-hierachy,2021.1.2,
96,Trial # 97,layer6-8_T10_to_T6.jpg,layer6-8/layer6-8_T10_to_T6.jpg,TT,layer6-8,0.0,96.0,96.0,96.0,,,,,,,,,868.8668777658604,None,2.0,1.7823063430842012,868.8668777658604,None,868.8668777658604,None,868.8668777658604,None,1,2022_Jul_11_0758,Semantic-hierachy,2021.1.2,
97,Trial # 98,layer0-5_O1_to_O5.jpg,layer0-5/layer0-5_O1_to_O5.jpg,OO,layer0-5,0.0,97.0,97.0,97.0,,,,,,,,,870.9162775999866,None,1.0,2.307478333124891,870.9162775999866,None,870.9162775999866,None,870.9162775999866,None,1,2022_Jul_11_0758,Semantic-hierachy,2021.1.2,
98,Trial # 99,layer6-8_O1_to_O6.jpg,layer6-8/layer6-8_O1_to_O6.jpg,OO,layer6-8,0.0,98.0,98.0,98.0,,,,,,,,,873.4517758639995,None,4.0,3.6894140569493175,873.4517758639995,None,873.4517758639995,None,873.4517758639995,None,1,2022_Jul_11_0758,Semantic-hierachy,2021.1.2,
99,Trial # 100,layer6-8_O3_to_T1.jpg,layer6-8/layer6-8_O3_to_T1.jpg,OT,layer6-8,0.0,99.0,99.0,99.0,,,,,,,,,879.6700023380108,None,2.0,2.027066955110058,879.6700023380108,None,879.6700023380108,None,879.6700023380108,None,1,2022_Jul_11_0758,Semantic-hierachy,2021.1.2,
100,Trial # 101,layer6-8_T1_to_T9.jpg,layer6-8/layer6-8_T1_to_T9.jpg,TT,layer6-8,0.0,100.0,100.0,100.0,,,,,,,,,881.91994862305,None,3.0,5.408205813029781,881.91994862305,None,881.91994862305,None,881.91994862305,None,1,2022_Jul_11_0758,Semantic-hierachy,2021.1.2,
101,Trial # 102,layer9-17_O12_to_O6.jpg,layer9-17/layer9-17_O12_to_O6.jpg,OO,layer9-17,0.0,101.0,101.0,101.0,,,,,,,,,887.472136233002,None,2.0,1.659690816886723,887.472136233002,None,887.472136233002,None,887.472136233002,None,1,2022_Jul_11_0758,Semantic-hierachy,2021.1.2,
102,Trial # 103,layer0-5_T4_to_T9.jpg,layer0-5/layer0-5_T4_to_T9.jpg,TT,layer0-5,0.0,102.0,102.0,102.0,,,,,,,,,889.3556399689987,None,1.0,2.2066923149395734,889.3556399689987,None,889.3556399689987,None,889.3556399689987,None,1,2022_Jul_11_0758,Semantic-hierachy,2021.1.2,
103,Trial # 104,layer6-8_O10_to_T1.jpg,layer6-8/layer6-8_O10_to_T1.jpg,OT,layer6-8,0.0,103.0,103.0,103.0,,,,,,,,,891.8055385770276,None,3.0,3.680127553176135,891.8055385770276,None,891.8055385770276,None,891.8055385770276,None,1,2022_Jul_11_0758,Semantic-hierachy,2021.1.2,
104,Trial # 105,layer0-5_O6_to_T2.jpg,layer0-5/layer0-5_O6_to_T2.jpg,OT,layer0-5,0.0,104.0,104.0,104.0,,,,,,,,,895.7078713870142,None,1.0,2.1114788320846856,895.7078713870142,None,895.7078713870142,None,895.7078713870142,None,1,2022_Jul_11_0758,Semantic-hierachy,2021.1.2,
105,Trial # 106,layer9-17_T11_to_T2.jpg,layer9-17/layer9-17_T11_to_T2.jpg,TT,layer9-17,0.0,105.0,105.0,105.0,,,,,,,,,897.97566395998,None,2.0,1.1451420050580057,897.97566395998,None,897.97566395998,None,897.97566395998,None,1,2022_Jul_11_0758,Semantic-hierachy,2021.1.2,
106,Trial # 107,layer9-17_O12_to_O8.jpg,layer9-17/layer9-17_O12_to_O8.jpg,OO,layer9-17,0.0,106.0,106.0,106.0,,,,,,,,,899.5089977169409,None,2.0,1.365861730184406,899.5089977169409,None,899.5089977169409,None,899.5089977169409,None,1,2022_Jul_11_0758,Semantic-hierachy,2021.1.2,
107,Trial # 108,layer0-5_T12_to_T3.jpg,layer0-5/layer0-5_T12_to_T3.jpg,TT,layer0-5,0.0,107.0,107.0,107.0,,,,,,,,,901.1423320709728,None,1.0,1.7493241131305697,901.1423320709728,None,901.1423320709728,None,901.1423320709728,None,1,2022_Jul_11_0758,Semantic-hierachy,2021.1.2,
108,Trial # 109,layer0-5_T1_to_T10.jpg,layer0-5/layer0-5_T1_to_T10.jpg,TT,layer0-5,0.0,108.0,108.0,108.0,,,,,,,,,903.1110030580312,None,1.0,1.1595789710991085,903.1110030580312,None,903.1110030580312,None,903.1110030580312,None,1,2022_Jul_11_0758,Semantic-hierachy,2021.1.2,
109,Trial # 110,layer6-8_O4_to_T5.jpg,layer6-8/layer6-8_O4_to_T5.jpg,OT,layer6-8,0.0,109.0,109.0,109.0,,,,,,,,,904.5602073490154,None,3.0,1.9437573731411248,904.5602073490154,None,904.5602073490154,None,904.5602073490154,None,1,2022_Jul_11_0758,Semantic-hierachy,2021.1.2,
110,Trial # 111,layer9-17_O11_to_O7.jpg,layer9-17/layer9-17_O11_to_O7.jpg,OO,layer9-17,0.0,110.0,110.0,110.0,,,,,,,,,906.7107485460584,None,2.0,2.0998993231914937,906.7107485460584,None,906.7107485460584,None,906.7107485460584,None,1,2022_Jul_11_0758,Semantic-hierachy,2021.1.2,
111,Trial # 112,layer0-5_O5_to_O8.jpg,layer0-5/layer0-5_O5_to_O8.jpg,OO,layer0-5,0.0,111.0,111.0,111.0,,,,,,,,,908.97865132289,None,1.0,2.06020819908008,908.97865132289,None,908.97865132289,None,908.97865132289,None,1,2022_Jul_11_0758,Semantic-hierachy,2021.1.2,
112,Trial # 113,layer0-5_O10_to_O4.jpg,layer0-5/layer0-5_O10_to_O4.jpg,OO,layer0-5,0.0,112.0,112.0,112.0,,,,,,,,,911.2621412740556,None,1.0,2.094704726943746,911.2621412740556,None,911.2621412740556,None,911.2621412740556,None,1,2022_Jul_11_0758,Semantic-hierachy,2021.1.2,
113,Trial # 114,layer9-17_O4_to_O8.jpg,layer9-17/layer9-17_O4_to_O8.jpg,OO,layer9-17,0.0,113.0,113.0,113.0,,,,,,,,,913.5971016159748,None,4.0,2.164111782098189,913.5971016159748,None,913.5971016159748,None,913.5971016159748,None,1,2022_Jul_11_0758,Semantic-hierachy,2021.1.2,
114,Trial # 115,layer0-5_O2_to_T8.jpg,layer0-5/layer0-5_O2_to_T8.jpg,OT,layer0-5,0.0,114.0,114.0,114.0,,,,,,,,,915.9636256010272,None,1.0,1.927332340972498,915.9636256010272,None,915.9636256010272,None,915.9636256010272,None,1,2022_Jul_11_0758,Semantic-hierachy,2021.1.2,
115,Trial # 116,layer9-17_T2_to_T3.jpg,layer9-17/layer9-17_T2_to_T3.jpg,TT,layer9-17,0.0,115.0,115.0,115.0,,,,,,,,,918.1155880950392,None,2.0,1.831484595779329,918.1155880950392,None,918.1155880950392,None,918.1155880950392,None,1,2022_Jul_11_0758,Semantic-hierachy,2021.1.2,
116,Trial # 117,layer6-8_O1_to_T10.jpg,layer6-8/layer6-8_O1_to_T10.jpg,OT,layer6-8,0.0,116.0,116.0,116.0,,,,,,,,,920.0985338538884,None,3.0,2.779953663935885,920.0985338538884,None,920.0985338538884,None,920.0985338538884,None,1,2022_Jul_11_0758,Semantic-hierachy,2021.1.2,
117,Trial # 118,layer0-5_T3_to_T7.jpg,layer0-5/layer0-5_T3_to_T7.jpg,TT,layer0-5,0.0,117.0,117.0,117.0,,,,,,,,,923.1496926408728,None,1.0,1.893632116029039,923.1496926408728,None,923.1496926408728,None,923.1496926408728,None,1,2022_Jul_11_0758,Semantic-hierachy,2021.1.2,
118,Trial # 119,layer9-17_O1_to_O12.jpg,layer9-17/layer9-17_O1_to_O12.jpg,OO,layer9-17,0.0,118.0,118.0,118.0,,,,,,,,,925.18309631804,None,2.0,2.6189763059373945,925.18309631804,None,925.18309631804,None,925.18309631804,None,1,2022_Jul_11_0758,Semantic-hierachy,2021.1.2,
119,Trial # 120,layer6-8_O12_to_O2.jpg,layer6-8/layer6-8_O12_to_O2.jpg,OO,layer6-8,0.0,119.0,119.0,119.0,,,,,,,,,927.985498850001,None,3.0,2.881691007874906,927.985498850001,None,927.985498850001,None,927.985498850001,None,1,2022_Jul_11_0758,Semantic-hierachy,2021.1.2,
120,Trial # 121,layer9-17_O10_to_O9.jpg,layer9-17/layer9-17_O10_to_O9.jpg,OO,layer9-17,0.0,120.0,120.0,120.0,,,,,,,,,931.1022235378624,None,2.0,1.4246182371862233,931.1022235378624,None,931.1022235378624,None,931.1022235378624,None,1,2022_Jul_11_0758,Semantic-hierachy,2021.1.2,
121,Trial # 122,layer6-8_O4_to_T10.jpg,layer6-8/layer6-8_O4_to_T10.jpg,OT,layer6-8,0.0,121.0,121.0,121.0,,,,,,,,,932.7034571089316,None,3.0,3.310045493999496,932.7034571089316,None,932.7034571089316,None,932.7034571089316,None,1,2022_Jul_11_0758,Semantic-hierachy,2021.1.2,
122,Trial # 123,layer6-8_O2_to_T3.jpg,layer6-8/layer6-8_O2_to_T3.jpg,OT,layer6-8,0.0,122.0,122.0,122.0,,,,,,,,,936.3699497329072,None,3.0,1.7377383089624343,936.3699497329072,None,936.3699497329072,None,936.3699497329072,None,1,2022_Jul_11_0758,Semantic-hierachy,2021.1.2,
123,Trial # 124,layer0-5_O1_to_O7.jpg,layer0-5/layer0-5_O1_to_O7.jpg,OO,layer0-5,0.0,123.0,123.0,123.0,,,,,,,,,938.255027228035,None,1.0,2.24800138710998,938.255027228035,None,938.255027228035,None,938.255027228035,None,1,2022_Jul_11_0758,Semantic-hierachy,2021.1.2,
124,Trial # 125,layer0-5_T8_to_T9.jpg,layer0-5/layer0-5_T8_to_T9.jpg,TT,layer0-5,0.0,124.0,124.0,124.0,,,,,,,,,940.7216026869136,None,1.0,2.5400319369509816,940.7216026869136,None,940.7216026869136,None,940.7216026869136,None,1,2022_Jul_11_0758,Semantic-hierachy,2021.1.2,
125,Trial # 126,layer0-5_O12_to_T8.jpg,layer0-5/layer0-5_O12_to_T8.jpg,OT,layer0-5,0.0,125.0,125.0,125.0,,,,,,,,,943.5230500539764,None,1.0,1.0949569959193468,943.5230500539764,None,943.5230500539764,None,943.5230500539764,None,1,2022_Jul_11_0758,Semantic-hierachy,2021.1.2,
126,Trial # 127,layer9-17_O4_to_O6.jpg,layer9-17/layer9-17_O4_to_O6.jpg,OO,layer9-17,0.0,126.0,126.0,126.0,,,,,,,,,944.7902563260868,None,2.0,2.4623325779102743,944.7902563260868,None,944.7902563260868,None,944.7902563260868,None,1,2022_Jul_11_0758,Semantic-hierachy,2021.1.2,
127,Trial # 128,layer6-8_O12_to_O6.jpg,layer6-8/layer6-8_O12_to_O6.jpg,OO,layer6-8,0.0,127.0,127.0,127.0,,,,,,,,,947.4744064379483,None,3.0,2.248309407848865,947.4744064379483,None,947.4744064379483,None,947.4744064379483,None,1,2022_Jul_11_0758,Semantic-hierachy,2021.1.2,
128,Trial # 129,layer0-5_T4_to_T6.jpg,layer0-5/layer0-5_T4_to_T6.jpg,TT,layer0-5,0.0,128.0,128.0,128.0,,,,,,,,,950.007695025066,None,1.0,1.5607528670225292,950.007695025066,None,950.007695025066,None,950.007695025066,None,1,2022_Jul_11_0758,Semantic-hierachy,2021.1.2,
129,Trial # 130,layer9-17_O1_to_O3.jpg,layer9-17/layer9-17_O1_to_O3.jpg,OO,layer9-17,0.0,129.0,129.0,129.0,,,,,,,,,952.0247654728591,None,2.0,2.0122900288552046,952.0247654728591,None,952.0247654728591,None,952.0247654728591,None,1,2022_Jul_11_0758,Semantic-hierachy,2021.1.2,
130,Trial # 131,layer9-17_O10_to_O3.jpg,layer9-17/layer9-17_O10_to_O3.jpg,OO,layer9-17,0.0,130.0,130.0,130.0,,,,,,,,,954.2756191899534,None,2.0,1.4424945111386478,954.2756191899534,None,954.2756191899534,None,954.2756191899534,None,1,2022_Jul_11_0758,Semantic-hierachy,2021.1.2,
131,Trial # 132,layer9-17_O12_to_O3.jpg,layer9-17/layer9-17_O12_to_O3.jpg,OO,layer9-17,0.0,131.0,131.0,131.0,,,,,,,,,955.9090546900406,None,2.0,0.9493752950802444,955.9090546900406,None,955.9090546900406,None,955.9090546900406,None,1,2022_Jul_11_0758,Semantic-hierachy,2021.1.2,
132,Trial # 133,layer9-17_O11_to_O4.jpg,layer9-17/layer9-17_O11_to_O4.jpg,OO,layer9-17,0.0,132.0,132.0,132.0,,,,,,,,,957.0930863078684,None,3.0,3.197870145086199,957.0930863078684,None,957.0930863078684,None,957.0930863078684,None,1,2022_Jul_11_0758,Semantic-hierachy,2021.1.2,
133,Trial # 134,layer9-17_T4_to_T7.jpg,layer9-17/layer9-17_T4_to_T7.jpg,TT,layer9-17,0.0,133.0,133.0,133.0,,,,,,,,,960.510737350909,None,2.0,1.2811181761790067,960.510737350909,None,960.510737350909,None,960.510737350909,None,1,2022_Jul_11_0758,Semantic-hierachy,2021.1.2,
134,Trial # 135,layer9-17_O1_to_T1.jpg,layer9-17/layer9-17_O1_to_T1.jpg,OT,layer9-17,0.0,134.0,134.0,134.0,,,,,,,,,962.028217287967,None,2.0,3.70978644490242,962.028217287967,None,962.028217287967,None,962.028217287967,None,1,2022_Jul_11_0758,Semantic-hierachy,2021.1.2,
135,Trial # 136,layer6-8_T2_to_T5.jpg,layer6-8/layer6-8_T2_to_T5.jpg,TT,layer6-8,0.0,135.0,135.0,135.0,,,,,,,,,965.895776214078,None,3.0,2.611776396865025,965.895776214078,None,965.895776214078,None,965.895776214078,None,1,2022_Jul_11_0758,Semantic-hierachy,2021.1.2,
136,Trial # 137,layer9-17_T11_to_T7.jpg,layer9-17/layer9-17_T11_to_T7.jpg,TT,layer9-17,0.0,136.0,136.0,136.0,,,,,,,,,969.8304171739146,None,2.0,1.5622484888881445,969.8304171739146,None,969.8304171739146,None,969.8304171739146,None,1,2022_Jul_11_0758,Semantic-hierachy,2021.1.2,
137,Trial # 138,layer6-8_O3_to_O8.jpg,layer6-8/layer6-8_O3_to_O8.jpg,OO,layer6-8,0.0,137.0,137.0,137.0,,,,,,,,,971.8146587270312,None,4.0,3.779756419826299,971.8146587270312,None,971.8146587270312,None,971.8146587270312,None,1,2022_Jul_11_0758,Semantic-hierachy,2021.1.2,
138,Trial # 139,layer6-8_O1_to_T7.jpg,layer6-8/layer6-8_O1_to_T7.jpg,OT,layer6-8,0.0,138.0,138.0,138.0,,,,,,,,,975.9322103760204,None,3.0,2.1782437809742987,975.9322103760204,None,975.9322103760204,None,975.9322103760204,None,1,2022_Jul_11_0758,Semantic-hierachy,2021.1.2,
139,Trial # 140,layer9-17_T1_to_T3.jpg,layer9-17/layer9-17_T1_to_T3.jpg,TT,layer9-17,0.0,139.0,139.0,139.0,,,,,,,,,978.4341355948708,None,3.0,3.943673475179821,978.4341355948708,None,978.4341355948708,None,978.4341355948708,None,1,2022_Jul_11_0758,Semantic-hierachy,2021.1.2,
140,Trial # 141,layer6-8_O10_to_O12.jpg,layer6-8/layer6-8_O10_to_O12.jpg,OO,layer6-8,0.0,140.0,140.0,140.0,,,,,,,,,982.7687429538928,None,2.0,4.243555688066408,982.7687429538928,None,982.7687429538928,None,982.7687429538928,None,1,2022_Jul_11_0758,Semantic-hierachy,2021.1.2,
141,Trial # 142,layer6-8_O12_to_T11.jpg,layer6-8/layer6-8_O12_to_T11.jpg,OT,layer6-8,0.0,141.0,141.0,141.0,,,,,,,,,987.1524339080788,None,4.0,4.530472985003144,987.1524339080788,None,987.1524339080788,None,987.1524339080788,None,1,2022_Jul_11_0758,Semantic-hierachy,2021.1.2,
142,Trial # 143,layer0-5_O11_to_O5.jpg,layer0-5/layer0-5_O11_to_O5.jpg,OO,layer0-5,0.0,142.0,142.0,142.0,,,,,,,,,991.8866031069774,None,1.0,4.167651718948036,991.8866031069774,None,991.8866031069774,None,991.8866031069774,None,1,2022_Jul_11_0758,Semantic-hierachy,2021.1.2,
143,Trial # 144,layer6-8_O1_to_O8.jpg,layer6-8/layer6-8_O1_to_O8.jpg,OO,layer6-8,0.0,143.0,143.0,143.0,,,,,,,,,996.3386053519788,None,2.0,1.5315297110937536,996.3386053519788,None,996.3386053519788,None,996.3386053519788,None,1,2022_Jul_11_0758,Semantic-hierachy,2021.1.2,
144,Trial # 145,layer0-5_T2_to_T5.jpg,layer0-5/layer0-5_T2_to_T5.jpg,TT,layer0-5,0.0,144.0,144.0,144.0,,,,,,,,,998.0568870569114,None,1.0,3.005182013148442,998.0568870569114,None,998.0568870569114,None,998.0568870569114,None,1,2022_Jul_11_0758,Semantic-hierachy,2021.1.2,
145,Trial # 146,layer9-17_O8_to_T3.jpg,layer9-17/layer9-17_O8_to_T3.jpg,OT,layer9-17,0.0,145.0,145.0,145.0,,,,,,,,,1001.5569288600236,None,2.0,1.647383056115359,1001.5569288600236,None,1001.5569288600236,None,1001.5569288600236,None,1,2022_Jul_11_0758,Semantic-hierachy,2021.1.2,
146,Trial # 147,layer9-17_O8_to_T4.jpg,layer9-17/layer9-17_O8_to_T4.jpg,OT,layer9-17,0.0,146.0,146.0,146.0,,,,,,,,,1003.3418588589412,None,4.0,2.516921385191381,1003.3418588589412,None,1003.3418588589412,None,1003.3418588589412,None,1,2022_Jul_11_0758,Semantic-hierachy,2021.1.2,
147,Trial # 148,layer9-17_O4_to_T9.jpg,layer9-17/layer9-17_O4_to_T9.jpg,OT,layer9-17,0.0,147.0,147.0,147.0,,,,,,,,,1006.3250916809776,None,2.0,1.682134028058499,1006.3250916809776,None,1006.3250916809776,None,1006.3250916809776,None,1,2022_Jul_11_0758,Semantic-hierachy,2021.1.2,
148,Trial # 149,layer6-8_O4_to_O8.jpg,layer6-8/layer6-8_O4_to_O8.jpg,OO,layer6-8,0.0,148.0,148.0,148.0,,,,,,,,,1008.1924101170152,None,2.0,1.7884889328852296,1008.1924101170152,None,1008.1924101170152,None,1008.1924101170152,None,1,2022_Jul_11_0758,Semantic-hierachy,2021.1.2,
149,Trial # 150,layer0-5_O12_to_T7.jpg,layer0-5/layer0-5_O12_to_T7.jpg,OT,layer0-5,0.0,149.0,149.0,149.0,,,,,,,,,1010.2096225640272,None,1.0,1.6135692070238292,1010.2096225640272,None,1010.2096225640272,None,1010.2096225640272,None,1,2022_Jul_11_0758,Semantic-hierachy,2021.1.2,
150,Trial # 151,layer6-8_T1_to_T3.jpg,layer6-8/layer6-8_T1_to_T3.jpg,TT,layer6-8,,,,,0.0,0.0,0.0,0.0,,,,,1014.1120402400848,None,3.0,5.853553275112063,1014.1120402400848,None,1014.1120402400848,None,1014.1120402400848,None,1,2022_Jul_11_0758,Semantic-hierachy,2021.1.2,
151,Trial # 152,layer0-5_O8_to_O9.jpg,layer0-5/layer0-5_O8_to_O9.jpg,OO,layer0-5,,,,,0.0,1.0,1.0,1.0,,,,,1020.1961827799678,None,1.0,1.95658555906266,1020.1961827799678,None,1020.1961827799678,None,1020.1961827799678,None,1,2022_Jul_11_0758,Semantic-hierachy,2021.1.2,
152,Trial # 153,layer9-17_T1_to_T5.jpg,layer9-17/layer9-17_T1_to_T5.jpg,TT,layer9-17,,,,,0.0,2.0,2.0,2.0,,,,,1022.5806783048902,None,2.0,1.679919513175264,1022.5806783048902,None,1022.5806783048902,None,1022.5806783048902,None,1,2022_Jul_11_0758,Semantic-hierachy,2021.1.2,
153,Trial # 154,layer6-8_T7_to_T9.jpg,layer6-8/layer6-8_T7_to_T9.jpg,TT,layer6-8,,,,,0.0,3.0,3.0,3.0,,,,,1024.5306220538914,None,3.0,2.357012583874166,1024.5306220538914,None,1024.5306220538914,None,1024.5306220538914,None,1,2022_Jul_11_0758,Semantic-hierachy,2021.1.2,
154,Trial # 155,layer9-17_T12_to_T7.jpg,layer9-17/layer9-17_T12_to_T7.jpg,TT,layer9-17,,,,,0.0,4.0,4.0,4.0,,,,,1027.0310686570592,None,2.0,1.4958717341069132,1027.0310686570592,None,1027.0310686570592,None,1027.0310686570592,None,1,2022_Jul_11_0758,Semantic-hierachy,2021.1.2,
155,Trial # 156,layer0-5_O8_to_T11.jpg,layer0-5/layer0-5_O8_to_T11.jpg,OT,layer0-5,,,,,0.0,5.0,5.0,5.0,,,,,1028.9331602179443,None,1.0,1.8425960901658984,1028.9331602179443,None,1028.9331602179443,None,1028.9331602179443,None,1,2022_Jul_11_0758,Semantic-hierachy,2021.1.2,
156,Trial # 157,layer0-5_O1_to_O9.jpg,layer0-5/layer0-5_O1_to_O9.jpg,OO,layer0-5,,,,,0.0,6.0,6.0,6.0,,,,,1031.049005273031,None,1.0,1.7284268450457605,1031.049005273031,None,1031.049005273031,None,1031.049005273031,None,1,2022_Jul_11_0758,Semantic-hierachy,2021.1.2,
157,Trial # 158,layer0-5_O10_to_O12.jpg,layer0-5/layer0-5_O10_to_O12.jpg,OO,layer0-5,,,,,0.0,7.0,7.0,7.0,,,,,1033.0837375710253,None,1.0,1.8122480898164213,1033.0837375710253,None,1033.0837375710253,None,1033.0837375710253,None,1,2022_Jul_11_0758,Semantic-hierachy,2021.1.2,
158,Trial # 159,layer6-8_O10_to_T5.jpg,layer6-8/layer6-8_O10_to_T5.jpg,OT,layer6-8,,,,,0.0,8.0,8.0,8.0,,,,,1035.1505476168822,None,3.0,2.0926006871741265,1035.1505476168822,None,1035.1505476168822,None,1035.1505476168822,None,1,2022_Jul_11_0758,Semantic-hierachy,2021.1.2,
159,Trial # 160,layer6-8_O5_to_O6.jpg,layer6-8/layer6-8_O5_to_O6.jpg,OO,layer6-8,,,,,0.0,9.0,9.0,9.0,,,,,1037.4530228960791,None,2.0,2.2441002181731164,1037.4530228960791,None,1037.4530228960791,None,1037.4530228960791,None,1,2022_Jul_11_0758,Semantic-hierachy,2021.1.2,
160,Trial # 161,layer6-8_O6_to_T11.jpg,layer6-8/layer6-8_O6_to_T11.jpg,OT,layer6-8,,,,,0.0,10.0,10.0,10.0,,,,,1040.3358060619794,None,2.0,1.7953228650148958,1040.3358060619794,None,1040.3358060619794,None,1040.3358060619794,None,1,2022_Jul_11_0758,Semantic-hierachy,2021.1.2,
161,Trial # 162,layer9-17_O12_to_O9.jpg,layer9-17/layer9-17_O12_to_O9.jpg,OO,layer9-17,,,,,0.0,11.0,11.0,11.0,,,,,1042.3875916700345,None,2.0,2.4646351630799472,1042.3875916700345,None,1042.3875916700345,None,1042.3875916700345,None,1,2022_Jul_11_0758,Semantic-hierachy,2021.1.2,
162,Trial # 163,layer6-8_O12_to_T6.jpg,layer6-8/layer6-8_O12_to_T6.jpg,OT,layer6-8,,,,,0.0,12.0,12.0,12.0,,,,,1045.0870148949325,None,4.0,1.9292318518273528,1045.0870148949325,None,1045.0870148949325,None,1045.0870148949325,None,1,2022_Jul_11_0758,Semantic-hierachy,2021.1.2,
163,Trial # 164,layer0-5_T11_to_T7.jpg,layer0-5/layer0-5_T11_to_T7.jpg,TT,layer0-5,,,,,0.0,13.0,13.0,13.0,,,,,1047.204892536858,None,1.0,2.213963408954441,1047.204892536858,None,1047.204892536858,None,1047.204892536858,None,1,2022_Jul_11_0758,Semantic-hierachy,2021.1.2,
164,Trial # 165,layer9-17_O10_to_T5.jpg,layer9-17/layer9-17_O10_to_T5.jpg,OT,layer9-17,,,,,0.0,14.0,14.0,14.0,,,,,1049.6220569009893,None,4.0,4.651318794116378,1049.6220569009893,None,1049.6220569009893,None,1049.6220569009893,None,1,2022_Jul_11_0758,Semantic-hierachy,2021.1.2,
165,Trial # 166,layer9-17_T1_to_T6.jpg,layer9-17/layer9-17_T1_to_T6.jpg,TT,layer9-17,,,,,0.0,15.0,15.0,15.0,,,,,1054.4903654020743,None,2.0,1.811203724006191,1054.4903654020743,None,1054.4903654020743,None,1054.4903654020743,None,1,2022_Jul_11_0758,Semantic-hierachy,2021.1.2,
166,Trial # 167,layer0-5_T1_to_T3.jpg,layer0-5/layer0-5_T1_to_T3.jpg,TT,layer0-5,,,,,0.0,16.0,16.0,16.0,,,,,1056.490804974921,None,1.0,2.7258733559865505,1056.490804974921,None,1056.490804974921,None,1056.490804974921,None,1,2022_Jul_11_0758,Semantic-hierachy,2021.1.2,
167,Trial # 168,layer0-5_O2_to_O9.jpg,layer0-5/layer0-5_O2_to_O9.jpg,OO,layer0-5,,,,,0.0,17.0,17.0,17.0,,,,,1059.3758049248718,None,1.0,2.961587131023407,1059.3758049248718,None,1059.3758049248718,None,1059.3758049248718,None,1,2022_Jul_11_0758,Semantic-hierachy,2021.1.2,
168,Trial # 169,layer9-17_O3_to_T4.jpg,layer9-17/layer9-17_O3_to_T4.jpg,OT,layer9-17,,,,,0.0,18.0,18.0,18.0,,,,,1062.5269389110615,None,2.0,1.397116811014712,1062.5269389110615,None,1062.5269389110615,None,1062.5269389110615,None,1,2022_Jul_11_0758,Semantic-hierachy,2021.1.2,
169,Trial # 170,layer6-8_O11_to_O9.jpg,layer6-8/layer6-8_O11_to_O9.jpg,OO,layer6-8,,,,,0.0,19.0,19.0,19.0,,,,,1064.1104951740708,None,2.0,2.4997222190722823,1064.1104951740708,None,1064.1104951740708,None,1064.1104951740708,None,1,2022_Jul_11_0758,Semantic-hierachy,2021.1.2,
170,Trial # 171,layer9-17_O1_to_O7.jpg,layer9-17/layer9-17_O1_to_O7.jpg,OO,layer9-17,,,,,0.0,20.0,20.0,20.0,,,,,1066.8438075480517,None,4.0,3.913610015995801,1066.8438075480517,None,1066.8438075480517,None,1066.8438075480517,None,1,2022_Jul_11_0758,Semantic-hierachy,2021.1.2,
171,Trial # 172,layer0-5_T12_to_T4.jpg,layer0-5/layer0-5_T12_to_T4.jpg,TT,layer0-5,,,,,0.0,21.0,21.0,21.0,,,,,1071.2619358170778,None,1.0,3.350391285959631,1071.2619358170778,None,1071.2619358170778,None,1071.2619358170778,None,1,2022_Jul_11_0758,Semantic-hierachy,2021.1.2,
172,Trial # 173,layer0-5_O4_to_T4.jpg,layer0-5/layer0-5_O4_to_T4.jpg,OT,layer0-5,,,,,0.0,22.0,22.0,22.0,,,,,1074.8128309228923,None,1.0,2.462065544910729,1074.8128309228923,None,1074.8128309228923,None,1074.8128309228923,None,1,2022_Jul_11_0758,Semantic-hierachy,2021.1.2,
173,Trial # 174,layer6-8_T12_to_T5.jpg,layer6-8/layer6-8_T12_to_T5.jpg,TT,layer6-8,,,,,0.0,23.0,23.0,23.0,,,,,1077.4483776069246,None,4.0,7.1303661740385,1077.4483776069246,None,1077.4483776069246,None,1077.4483776069246,None,1,2022_Jul_11_0758,Semantic-hierachy,2021.1.2,
174,Trial # 175,layer6-8_O11_to_T1.jpg,layer6-8/layer6-8_O11_to_T1.jpg,OT,layer6-8,,,,,0.0,24.0,24.0,24.0,,,,,1084.8504610520322,None,4.0,2.6774995180312544,1084.8504610520322,None,1084.8504610520322,None,1084.8504610520322,None,1,2022_Jul_11_0758,Semantic-hierachy,2021.1.2,
175,Trial # 176,layer0-5_O7_to_T8.jpg,layer0-5/layer0-5_O7_to_T8.jpg,OT,layer0-5,,,,,0.0,25.0,25.0,25.0,,,,,1087.751866362989,None,1.0,2.014299151021987,1087.751866362989,None,1087.751866362989,None,1087.751866362989,None,1,2022_Jul_11_0758,Semantic-hierachy,2021.1.2,
176,Trial # 177,layer0-5_O11_to_T5.jpg,layer0-5/layer0-5_O11_to_T5.jpg,OT,layer0-5,,,,,0.0,26.0,26.0,26.0,,,,,1089.967401908012,None,1.0,2.1259964660275728,1089.967401908012,None,1089.967401908012,None,1089.967401908012,None,1,2022_Jul_11_0758,Semantic-hierachy,2021.1.2,
177,Trial # 178,layer9-17_O2_to_T2.jpg,layer9-17/layer9-17_O2_to_T2.jpg,OT,layer9-17,,,,,0.0,27.0,27.0,27.0,,,,,1092.402959727915,None,2.0,2.727375122020021,1092.402959727915,None,1092.402959727915,None,1092.402959727915,None,1,2022_Jul_11_0758,Semantic-hierachy,2021.1.2,
178,Trial # 179,layer0-5_O4_to_T9.jpg,layer0-5/layer0-5_O4_to_T9.jpg,OT,layer0-5,,,,,0.0,28.0,28.0,28.0,,,,,1095.3193453110289,None,1.0,3.330596253974363,1095.3193453110289,None,1095.3193453110289,None,1095.3193453110289,None,1,2022_Jul_11_0758,Semantic-hierachy,2021.1.2,
179,Trial # 180,layer9-17_T6_to_T8.jpg,layer9-17/layer9-17_T6_to_T8.jpg,TT,layer9-17,,,,,0.0,29.0,29.0,29.0,,,,,1098.9048923319206,None,2.0,1.7459344130475074,1098.9048923319206,None,1098.9048923319206,None,1098.9048923319206,None,1,2022_Jul_11_0758,Semantic-hierachy,2021.1.2,
180,Trial # 181,layer9-17_O12_to_O5.jpg,layer9-17/layer9-17_O12_to_O5.jpg,OO,layer9-17,,,,,0.0,30.0,30.0,30.0,,,,,1100.8212061419615,None,2.0,1.0747828150633725,1100.8212061419615,None,1100.8212061419615,None,1100.8212061419615,None,1,2022_Jul_11_0758,Semantic-hierachy,2021.1.2,
181,Trial # 182,layer6-8_O1_to_O7.jpg,layer6-8/layer6-8_O1_to_O7.jpg,OO,layer6-8,,,,,0.0,31.0,31.0,31.0,,,,,1102.0715152078774,None,4.0,1.893220593919977,1102.0715152078774,None,1102.0715152078774,None,1102.0715152078774,None,1,2022_Jul_11_0758,Semantic-hierachy,2021.1.2,
182,Trial # 183,layer6-8_O3_to_T10.jpg,layer6-8/layer6-8_O3_to_T10.jpg,OT,layer6-8,,,,,0.0,32.0,32.0,32.0,,,,,1105.039058761904,None,3.0,2.533148457994685,1105.039058761904,None,1105.039058761904,None,1105.039058761904,None,1,2022_Jul_11_0758,Semantic-hierachy,2021.1.2,
183,Trial # 184,layer0-5_O1_to_T11.jpg,layer0-5/layer0-5_O1_to_T11.jpg,OT,layer0-5,,,,,0.0,33.0,33.0,33.0,,,,,1107.7899727618787,None,1.0,2.1418798558879644,1107.7899727618787,None,1107.7899727618787,None,1107.7899727618787,None,1,2022_Jul_11_0758,Semantic-hierachy,2021.1.2,
184,Trial # 185,layer6-8_O8_to_O9.jpg,layer6-8/layer6-8_O8_to_O9.jpg,OO,layer6-8,,,,,0.0,34.0,34.0,34.0,,,,,1110.090677950997,None,3.0,2.13424046500586,1110.090677950997,None,1110.090677950997,None,1110.090677950997,None,1,2022_Jul_11_0758,Semantic-hierachy,2021.1.2,
185,Trial # 186,layer9-17_O4_to_O9.jpg,layer9-17/layer9-17_O4_to_O9.jpg,OO,layer9-17,,,,,0.0,35.0,35.0,35.0,,,,,1112.441694984911,None,4.0,2.6230916469357908,1112.441694984911,None,1112.441694984911,None,1112.441694984911,None,1,2022_Jul_11_0758,Semantic-hierachy,2021.1.2,
186,Trial # 187,layer0-5_O12_to_O5.jpg,layer0-5/layer0-5_O12_to_O5.jpg,OO,layer0-5,,,,,0.0,36.0,36.0,36.0,,,,,1115.2253615530208,None,1.0,3.3780066519975662,1115.2253615530208,None,1115.2253615530208,None,1115.2253615530208,None,1,2022_Jul_11_0758,Semantic-hierachy,2021.1.2,
187,Trial # 188,layer6-8_T12_to_T4.jpg,layer6-8/layer6-8_T12_to_T4.jpg,TT,layer6-8,,,,,0.0,37.0,37.0,37.0,,,,,1118.7446582738776,None,4.0,2.0606359229423106,1118.7446582738776,None,1118.7446582738776,None,1118.7446582738776,None,1,2022_Jul_11_0758,Semantic-hierachy,2021.1.2,
188,Trial # 189,layer0-5_T6_to_T8.jpg,layer0-5/layer0-5_T6_to_T8.jpg,TT,layer0-5,,,,,0.0,38.0,38.0,38.0,,,,,1121.02785002999,None,3.0,3.200023136101663,1121.02785002999,None,1121.02785002999,None,1121.02785002999,None,1,2022_Jul_11_0758,Semantic-hierachy,2021.1.2,
189,Trial # 190,layer6-8_O11_to_T2.jpg,layer6-8/layer6-8_O11_to_T2.jpg,OT,layer6-8,,,,,0.0,39.0,39.0,39.0,,,,,1124.5450419450644,None,1.0,2.628717154962942,1124.5450419450644,None,1124.5450419450644,None,1124.5450419450644,None,1,2022_Jul_11_0758,Semantic-hierachy,2021.1.2,
190,Trial # 191,layer6-8_O1_to_O3.jpg,layer6-8/layer6-8_O1_to_O3.jpg,OO,layer6-8,,,,,0.0,40.0,40.0,40.0,,,,,1127.3798185868654,None,4.0,2.429657220141962,1127.3798185868654,None,1127.3798185868654,None,1127.3798185868654,None,1,2022_Jul_11_0758,Semantic-hierachy,2021.1.2,
191,Trial # 192,layer0-5_O7_to_T1.jpg,layer0-5/layer0-5_O7_to_T1.jpg,OT,layer0-5,,,,,0.0,41.0,41.0,41.0,,,,,1129.9810094519053,None,1.0,2.0230245429556817,1129.9810094519053,None,1129.9810094519053,None,1129.9810094519053,None,1,2022_Jul_11_0758,Semantic-hierachy,2021.1.2,
192,Trial # 193,layer6-8_O3_to_T7.jpg,layer6-8/layer6-8_O3_to_T7.jpg,OT,layer6-8,,,,,0.0,42.0,42.0,42.0,,,,,1132.2147607819643,None,3.0,1.7946851409506053,1132.2147607819643,None,1132.2147607819643,None,1132.2147607819643,None,1,2022_Jul_11_0758,Semantic-hierachy,2021.1.2,
193,Trial # 194,layer9-17_T10_to_T6.jpg,layer9-17/layer9-17_T10_to_T6.jpg,TT,layer9-17,,,,,0.0,43.0,43.0,43.0,,,,,1134.182496146066,None,2.0,1.7804003721103072,1134.182496146066,None,1134.182496146066,None,1134.182496146066,None,1,2022_Jul_11_0758,Semantic-hierachy,2021.1.2,
194,Trial # 195,layer6-8_T2_to_T9.jpg,layer6-8/layer6-8_T2_to_T9.jpg,TT,layer6-8,,,,,0.0,44.0,44.0,44.0,,,,,1136.1154276118614,None,4.0,3.703929668990895,1136.1154276118614,None,1136.1154276118614,None,1136.1154276118614,None,1,2022_Jul_11_0758,Semantic-hierachy,2021.1.2,
195,Trial # 196,layer0-5_O3_to_T3.jpg,layer0-5/layer0-5_O3_to_T3.jpg,OT,layer0-5,,,,,0.0,45.0,45.0,45.0,,,,,1139.9999185260383,None,4.0,3.396130028180778,1139.9999185260383,None,1139.9999185260383,None,1139.9999185260383,None,1,2022_Jul_11_0758,Semantic-hierachy,2021.1.2,
196,Trial # 197,layer9-17_O1_to_O2.jpg,layer9-17/layer9-17_O1_to_O2.jpg,OO,layer9-17,,,,,0.0,46.0,46.0,46.0,,,,,1143.9356811260805,None,4.0,8.181990209035575,1143.9356811260805,None,1143.9356811260805,None,1143.9356811260805,None,1,2022_Jul_11_0758,Semantic-hierachy,2021.1.2,
197,Trial # 198,layer9-17_T2_to_T9.jpg,layer9-17/layer9-17_T2_to_T9.jpg,TT,layer9-17,,,,,0.0,47.0,47.0,47.0,,,,,1152.3880167398602,None,2.0,1.2733689120505003,1152.3880167398602,None,1152.3880167398602,None,1152.3880167398602,None,1,2022_Jul_11_0758,Semantic-hierachy,2021.1.2,
198,Trial # 199,layer9-17_O6_to_T10.jpg,layer9-17/layer9-17_O6_to_T10.jpg,OT,layer9-17,,,,,0.0,48.0,48.0,48.0,,,,,1153.8722204579972,None,2.0,0.9919448329601436,1153.8722204579972,None,1153.8722204579972,None,1153.8722204579972,None,1,2022_Jul_11_0758,Semantic-hierachy,2021.1.2,
199,Trial # 200,layer0-5_T12_to_T5.jpg,layer0-5/layer0-5_T12_to_T5.jpg,TT,layer0-5,,,,,0.0,49.0,49.0,49.0,,,,,1155.087939743884,None,1.0,1.6594581198878586,1155.087939743884,None,1155.087939743884,None,1155.087939743884,None,1,2022_Jul_11_0758,Semantic-hierachy,2021.1.2,
200,Trial # 201,layer0-5_O10_to_T10.jpg,layer0-5/layer0-5_O10_to_T10.jpg,OT,layer0-5,,,,,0.0,50.0,50.0,50.0,,,,,1156.9053567440717,None,1.0,1.9778876090422275,1156.9053567440717,None,1156.9053567440717,None,1156.9053567440717,None,1,2022_Jul_11_0758,Semantic-hierachy,2021.1.2,
201,Trial # 202,layer9-17_T11_to_T12.jpg,layer9-17/layer9-17_T11_to_T12.jpg,TT,layer9-17,,,,,0.0,51.0,51.0,51.0,,,,,1159.0236527558882,None,2.0,1.8261094260960813,1159.0236527558882,None,1159.0236527558882,None,1159.0236527558882,None,1,2022_Jul_11_0758,Semantic-hierachy,2021.1.2,
202,Trial # 203,layer6-8_T3_to_T5.jpg,layer6-8/layer6-8_T3_to_T5.jpg,TT,layer6-8,,,,,0.0,52.0,52.0,52.0,,,,,1160.9900976929348,None,3.0,3.178977804025635,1160.9900976929348,None,1160.9900976929348,None,1160.9900976929348,None,1,2022_Jul_11_0758,Semantic-hierachy,2021.1.2,
203,Trial # 204,layer0-5_O5_to_T10.jpg,layer0-5/layer0-5_O5_to_T10.jpg,OT,layer0-5,,,,,0.0,53.0,53.0,53.0,,,,,1164.3408316969872,None,1.0,3.126696740044281,1164.3408316969872,None,1164.3408316969872,None,1164.3408316969872,None,1,2022_Jul_11_0758,Semantic-hierachy,2021.1.2,
204,Trial # 205,layer0-5_O10_to_O5.jpg,layer0-5/layer0-5_O10_to_O5.jpg,OO,layer0-5,,,,,0.0,54.0,54.0,54.0,,,,,1167.6098158799578,None,1.0,1.8155183799099173,1167.6098158799578,None,1167.6098158799578,None,1167.6098158799578,None,1,2022_Jul_11_0758,Semantic-hierachy,2021.1.2,
205,Trial # 206,layer0-5_O5_to_O7.jpg,layer0-5/layer0-5_O5_to_O7.jpg,OO,layer0-5,,,,,0.0,55.0,55.0,55.0,,,,,1169.5755526779683,None,1.0,1.2777994310017675,1169.5755526779683,None,1169.5755526779683,None,1169.5755526779683,None,1,2022_Jul_11_0758,Semantic-hierachy,2021.1.2,
206,Trial # 207,layer0-5_O3_to_T10.jpg,layer0-5/layer0-5_O3_to_T10.jpg,OT,layer0-5,,,,,0.0,56.0,56.0,56.0,,,,,1172.076702394057,None,1.0,3.2820728379301727,1172.076702394057,None,1172.076702394057,None,1172.076702394057,None,1,2022_Jul_11_0758,Semantic-hierachy,2021.1.2,
207,Trial # 208,layer0-5_O4_to_O5.jpg,layer0-5/layer0-5_O4_to_O5.jpg,OO,layer0-5,,,,,0.0,57.0,57.0,57.0,,,,,1175.5608248510398,None,1.0,1.7413865560665729,1175.5608248510398,None,1175.5608248510398,None,1175.5608248510398,None,1,2022_Jul_11_0758,Semantic-hierachy,2021.1.2,
208,Trial # 209,layer6-8_T12_to_T3.jpg,layer6-8/layer6-8_T12_to_T3.jpg,TT,layer6-8,,,,,0.0,58.0,58.0,58.0,,,,,1177.546163088875,None,4.0,4.731401129858568,1177.546163088875,None,1177.546163088875,None,1177.546163088875,None,1,2022_Jul_11_0758,Semantic-hierachy,2021.1.2,
209,Trial # 210,layer6-8_O7_to_T9.jpg,layer6-8/layer6-8_O7_to_T9.jpg,OT,layer6-8,,,,,0.0,59.0,59.0,59.0,,,,,1182.4307898229454,None,3.0,4.129435479873791,1182.4307898229454,None,1182.4307898229454,None,1182.4307898229454,None,1,2022_Jul_11_0758,Semantic-hierachy,2021.1.2,
210,Trial # 211,layer6-8_O1_to_O11.jpg,layer6-8/layer6-8_O1_to_O11.jpg,OO,layer6-8,,,,,0.0,60.0,60.0,60.0,,,,,1186.797945335973,None,2.0,2.1826903561595827,1186.797945335973,None,1186.797945335973,None,1186.797945335973,None,1,2022_Jul_11_0758,Semantic-hierachy,2021.1.2,
211,Trial # 212,layer6-8_T2_to_T6.jpg,layer6-8/layer6-8_T2_to_T6.jpg,TT,layer6-8,,,,,0.0,61.0,61.0,61.0,,,,,1189.36624217988,None,3.0,2.274925966979936,1189.36624217988,None,1189.36624217988,None,1189.36624217988,None,1,2022_Jul_11_0758,Semantic-hierachy,2021.1.2,
212,Trial # 213,layer6-8_O10_to_O6.jpg,layer6-8/layer6-8_O10_to_O6.jpg,OO,layer6-8,,,,,0.0,62.0,62.0,62.0,,,,,1191.8330048818607,None,2.0,1.562342684948817,1191.8330048818607,None,1191.8330048818607,None,1191.8330048818607,None,1,2022_Jul_11_0758,Semantic-hierachy,2021.1.2,
213,Trial # 214,layer9-17_T5_to_T8.jpg,layer9-17/layer9-17_T5_to_T8.jpg,TT,layer9-17,,,,,0.0,63.0,63.0,63.0,,,,,1193.70041021402,None,2.0,1.347669746959582,1193.70041021402,None,1193.70041021402,None,1193.70041021402,None,1,2022_Jul_11_0758,Semantic-hierachy,2021.1.2,
214,Trial # 215,layer9-17_O3_to_T10.jpg,layer9-17/layer9-17_O3_to_T10.jpg,OT,layer9-17,,,,,0.0,64.0,64.0,64.0,,,,,1195.250136911869,None,2.0,2.960852292133495,1195.250136911869,None,1195.250136911869,None,1195.250136911869,None,1,2022_Jul_11_0758,Semantic-hierachy,2021.1.2,
215,Trial # 216,layer6-8_O12_to_O3.jpg,layer6-8/layer6-8_O12_to_O3.jpg,OO,layer6-8,,,,,0.0,65.0,65.0,65.0,,,,,1198.3857434429228,None,3.0,2.2419601890724152,1198.3857434429228,None,1198.3857434429228,None,1198.3857434429228,None,1,2022_Jul_11_0758,Semantic-hierachy,2021.1.2,
216,Trial # 217,layer0-5_T10_to_T2.jpg,layer0-5/layer0-5_T10_to_T2.jpg,TT,layer0-5,,,,,0.0,66.0,66.0,66.0,,,,,1200.7523580628913,None,1.0,2.5481086070649326,1200.7523580628913,None,1200.7523580628913,None,1200.7523580628913,None,1,2022_Jul_11_0758,Semantic-hierachy,2021.1.2,
217,Trial # 218,layer9-17_O10_to_O6.jpg,layer9-17/layer9-17_O10_to_O6.jpg,OO,layer9-17,,,,,0.0,67.0,67.0,67.0,,,,,1203.469955904875,None,4.0,5.351033519022167,1203.469955904875,None,1203.469955904875,None,1203.469955904875,None,1,2022_Jul_11_0758,Semantic-hierachy,2021.1.2,
218,Trial # 219,layer6-8_O6_to_O9.jpg,layer6-8/layer6-8_O6_to_O9.jpg,OO,layer6-8,,,,,0.0,68.0,68.0,68.0,,,,,1209.0889949558768,None,3.0,1.828592001926154,1209.0889949558768,None,1209.0889949558768,None,1209.0889949558768,None,1,2022_Jul_11_0758,Semantic-hierachy,2021.1.2,
219,Trial # 220,layer0-5_O7_to_T2.jpg,layer0-5/layer0-5_O7_to_T2.jpg,OT,layer0-5,,,,,0.0,69.0,69.0,69.0,,,,,1211.1218627700582,None,1.0,1.7806153930723667,1211.1218627700582,None,1211.1218627700582,None,1211.1218627700582,None,1,2022_Jul_11_0758,Semantic-hierachy,2021.1.2,
220,Trial # 221,layer9-17_T12_to_T2.jpg,layer9-17/layer9-17_T12_to_T2.jpg,TT,layer9-17,,,,,0.0,70.0,70.0,70.0,,,,,1213.089797993889,None,3.0,2.2738775520119816,1213.089797993889,None,1213.089797993889,None,1213.089797993889,None,1,2022_Jul_11_0758,Semantic-hierachy,2021.1.2,
221,Trial # 222,layer9-17_O8_to_T11.jpg,layer9-17/layer9-17_O8_to_T11.jpg,OT,layer9-17,,,,,0.0,71.0,71.0,71.0,,,,,1216.4233591549564,None,4.0,2.814115835120901,1216.4233591549564,None,1216.4233591549564,None,1216.4233591549564,None,1,2022_Jul_11_0758,Semantic-hierachy,2021.1.2,
222,Trial # 223,layer6-8_O3_to_T9.jpg,layer6-8/layer6-8_O3_to_T9.jpg,OT,layer6-8,,,,,0.0,72.0,72.0,72.0,,,,,1219.6411693159023,None,2.0,1.3816106671001762,1219.6411693159023,None,1219.6411693159023,None,1219.6411693159023,None,1,2022_Jul_11_0758,Semantic-hierachy,2021.1.2,
223,Trial # 224,layer0-5_O6_to_O9.jpg,layer0-5/layer0-5_O6_to_O9.jpg,OO,layer0-5,,,,,0.0,73.0,73.0,73.0,,,,,1221.1758280410431,None,1.0,2.10128835006617,1221.1758280410431,None,1221.1758280410431,None,1221.1758280410431,None,1,2022_Jul_11_0758,Semantic-hierachy,2021.1.2,
224,Trial # 225,layer0-5_O12_to_T1.jpg,layer0-5/layer0-5_O12_to_T1.jpg,OT,layer0-5,,,,,0.0,74.0,74.0,74.0,,,,,1223.875949152978,None,1.0,2.076753147877753,1223.875949152978,None,1223.875949152978,None,1223.875949152978,None,1,2022_Jul_11_0758,Semantic-hierachy,2021.1.2,
225,Trial # 226,layer9-17_O2_to_T8.jpg,layer9-17/layer9-17_O2_to_T8.jpg,OT,layer9-17,,,,,0.0,75.0,75.0,75.0,,,,,1226.076681264909,None,2.0,1.895259172888473,1226.076681264909,None,1226.076681264909,None,1226.076681264909,None,1,2022_Jul_11_0758,Semantic-hierachy,2021.1.2,
226,Trial # 227,layer0-5_T4_to_T8.jpg,layer0-5/layer0-5_T4_to_T8.jpg,TT,layer0-5,,,,,0.0,76.0,76.0,76.0,,,,,1228.145181488013,None,1.0,2.0082708708941936,1228.145181488013,None,1228.145181488013,None,1228.145181488013,None,1,2022_Jul_11_0758,Semantic-hierachy,2021.1.2,
227,Trial # 228,layer9-17_O2_to_T1.jpg,layer9-17/layer9-17_O2_to_T1.jpg,OT,layer9-17,,,,,0.0,77.0,77.0,77.0,,,,,1230.3286212668754,None,4.0,1.787404806818813,1230.3286212668754,None,1230.3286212668754,None,1230.3286212668754,None,1,2022_Jul_11_0758,Semantic-hierachy,2021.1.2,
228,Trial # 229,layer0-5_O11_to_O7.jpg,layer0-5/layer0-5_O11_to_O7.jpg,OO,layer0-5,,,,,0.0,78.0,78.0,78.0,,,,,1232.262022604933,None,1.0,1.4357926559168843,1232.262022604933,None,1232.262022604933,None,1232.262022604933,None,1,2022_Jul_11_0758,Semantic-hierachy,2021.1.2,
229,Trial # 230,layer6-8_T2_to_T8.jpg,layer6-8/layer6-8_T2_to_T8.jpg,TT,layer6-8,,,,,0.0,79.0,79.0,79.0,,,,,1233.9125964660195,None,3.0,3.07303113094531,1233.9125964660195,None,1233.9125964660195,None,1233.9125964660195,None,1,2022_Jul_11_0758,Semantic-hierachy,2021.1.2,
230,Trial # 231,layer9-17_T4_to_T8.jpg,layer9-17/layer9-17_T4_to_T8.jpg,TT,layer9-17,,,,,0.0,80.0,80.0,80.0,,,,,1237.981378698023,None,2.0,1.697300230152905,1237.981378698023,None,1237.981378698023,None,1237.981378698023,None,1,2022_Jul_11_0758,Semantic-hierachy,2021.1.2,
231,Trial # 232,layer9-17_T11_to_T3.jpg,layer9-17/layer9-17_T11_to_T3.jpg,TT,layer9-17,,,,,0.0,81.0,81.0,81.0,,,,,1239.847210424021,None,2.0,1.4347004229202869,1239.847210424021,None,1239.847210424021,None,1239.847210424021,None,1,2022_Jul_11_0758,Semantic-hierachy,2021.1.2,
232,Trial # 233,layer0-5_O3_to_T9.jpg,layer0-5/layer0-5_O3_to_T9.jpg,OT,layer0-5,,,,,0.0,82.0,82.0,82.0,,,,,1241.4651417790446,None,1.0,1.8141934431623667,1241.4651417790446,None,1241.4651417790446,None,1241.4651417790446,None,1,2022_Jul_11_0758,Semantic-hierachy,2021.1.2,
233,Trial # 234,layer9-17_T7_to_T8.jpg,layer9-17/layer9-17_T7_to_T8.jpg,TT,layer9-17,,,,,0.0,83.0,83.0,83.0,,,,,1244.115855275886,None,2.0,4.10939778899774,1244.115855275886,None,1244.115855275886,None,1244.115855275886,None,1,2022_Jul_11_0758,Semantic-hierachy,2021.1.2,
234,Trial # 235,layer9-17_O3_to_O4.jpg,layer9-17/layer9-17_O3_to_O4.jpg,OO,layer9-17,,,,,0.0,84.0,84.0,84.0,,,,,1249.3670596310403,None,2.0,1.5790194808505476,1249.3670596310403,None,1249.3670596310403,None,1249.3670596310403,None,1,2022_Jul_11_0758,Semantic-hierachy,2021.1.2,
235,Trial # 236,layer6-8_O8_to_T6.jpg,layer6-8/layer6-8_O8_to_T6.jpg,OT,layer6-8,,,,,0.0,85.0,85.0,85.0,,,,,1251.617835548008,None,3.0,1.7132139259483663,1251.617835548008,None,1251.617835548008,None,1251.617835548008,None,1,2022_Jul_11_0758,Semantic-hierachy,2021.1.2,
236,Trial # 237,layer9-17_T6_to_T7.jpg,layer9-17/layer9-17_T6_to_T7.jpg,TT,layer9-17,,,,,0.0,86.0,86.0,86.0,,,,,1253.61883447296,None,2.0,1.4323068021330982,1253.61883447296,None,1253.61883447296,None,1253.61883447296,None,1,2022_Jul_11_0758,Semantic-hierachy,2021.1.2,
237,Trial # 238,layer0-5_T2_to_T9.jpg,layer0-5/layer0-5_T2_to_T9.jpg,TT,layer0-5,,,,,0.0,87.0,87.0,87.0,,,,,1255.8858492569998,None,1.0,1.9280956089496613,1255.8858492569998,None,1255.8858492569998,None,1255.8858492569998,None,1,2022_Jul_11_0758,Semantic-hierachy,2021.1.2,
238,Trial # 239,layer0-5_O2_to_O5.jpg,layer0-5/layer0-5_O2_to_O5.jpg,OO,layer0-5,,,,,0.0,88.0,88.0,88.0,,,,,1258.0040195879992,None,1.0,2.721815836150199,1258.0040195879992,None,1258.0040195879992,None,1258.0040195879992,None,1,2022_Jul_11_0758,Semantic-hierachy,2021.1.2,
239,Trial # 240,layer6-8_O1_to_O5.jpg,layer6-8/layer6-8_O1_to_O5.jpg,OO,layer6-8,,,,,0.0,89.0,89.0,89.0,,,,,1260.936906412011,None,4.0,1.9643938180524856,1260.936906412011,None,1260.936906412011,None,1260.936906412011,None,1,2022_Jul_11_0758,Semantic-hierachy,2021.1.2,
240,Trial # 241,layer9-17_O3_to_O7.jpg,layer9-17/layer9-17_O3_to_O7.jpg,OO,layer9-17,,,,,0.0,90.0,90.0,90.0,,,,,1263.4560752040709,None,2.0,1.314991872059181,1263.4560752040709,None,1263.4560752040709,None,1263.4560752040709,None,1,2022_Jul_11_0758,Semantic-hierachy,2021.1.2,
241,Trial # 242,layer6-8_O11_to_O8.jpg,layer6-8/layer6-8_O11_to_O8.jpg,OO,layer6-8,,,,,0.0,91.0,91.0,91.0,,,,,1264.9386548870243,None,4.0,3.609696137951687,1264.9386548870243,None,1264.9386548870243,None,1264.9386548870243,None,1,2022_Jul_11_0758,Semantic-hierachy,2021.1.2,
242,Trial # 243,layer9-17_T1_to_T12.jpg,layer9-17/layer9-17_T1_to_T12.jpg,TT,layer9-17,,,,,0.0,92.0,92.0,92.0,,,,,1268.6904933729677,None,2.0,1.3000503280200064,1268.6904933729677,None,1268.6904933729677,None,1268.6904933729677,None,1,2022_Jul_11_0758,Semantic-hierachy,2021.1.2,
243,Trial # 244,layer9-17_O6_to_O8.jpg,layer9-17/layer9-17_O6_to_O8.jpg,OO,layer9-17,,,,,0.0,93.0,93.0,93.0,,,,,1270.1407397820149,None,4.0,2.373772718012333,1270.1407397820149,None,1270.1407397820149,None,1270.1407397820149,None,1,2022_Jul_11_0758,Semantic-hierachy,2021.1.2,
244,Trial # 245,layer6-8_O4_to_T11.jpg,layer6-8/layer6-8_O4_to_T11.jpg,OT,layer6-8,,,,,0.0,94.0,94.0,94.0,,,,,1272.6746298619546,None,3.0,1.799935894086957,1272.6746298619546,None,1272.6746298619546,None,1272.6746298619546,None,1,2022_Jul_11_0758,Semantic-hierachy,2021.1.2,
245,Trial # 246,layer9-17_T10_to_T3.jpg,layer9-17/layer9-17_T10_to_T3.jpg,TT,layer9-17,,,,,0.0,95.0,95.0,95.0,,,,,1274.7083886060864,None,2.0,1.827895327005536,1274.7083886060864,None,1274.7083886060864,None,1274.7083886060864,None,1,2022_Jul_11_0758,Semantic-hierachy,2021.1.2,
246,Trial # 247,layer0-5_O10_to_O8.jpg,layer0-5/layer0-5_O10_to_O8.jpg,OO,layer0-5,,,,,0.0,96.0,96.0,96.0,,,,,1276.7091893260367,None,1.0,1.8827309887856245,1276.7091893260367,None,1276.7091893260367,None,1276.7091893260367,None,1,2022_Jul_11_0758,Semantic-hierachy,2021.1.2,
247,Trial # 248,layer6-8_O3_to_T12.jpg,layer6-8/layer6-8_O3_to_T12.jpg,OT,layer6-8,,,,,0.0,97.0,97.0,97.0,,,,,1278.8104913129937,None,3.0,1.7544098431244493,1278.8104913129937,None,1278.8104913129937,None,1278.8104913129937,None,1,2022_Jul_11_0758,Semantic-hierachy,2021.1.2,
248,Trial # 249,layer0-5_O12_to_T9.jpg,layer0-5/layer0-5_O12_to_T9.jpg,OT,layer0-5,,,,,0.0,98.0,98.0,98.0,,,,,1280.72679616604,None,1.0,2.61493556201458,1280.72679616604,None,1280.72679616604,None,1280.72679616604,None,1,2022_Jul_11_0758,Semantic-hierachy,2021.1.2,
249,Trial # 250,layer9-17_T1_to_T9.jpg,layer9-17/layer9-17_T1_to_T9.jpg,TT,layer9-17,,,,,0.0,99.0,99.0,99.0,,,,,1283.5278711600697,None,3.0,3.1847755960188806,1283.5278711600697,None,1283.5278711600697,None,1283.5278711600697,None,1,2022_Jul_11_0758,Semantic-hierachy,2021.1.2,
250,Trial # 251,layer9-17_T11_to_T8.jpg,layer9-17/layer9-17_T11_to_T8.jpg,TT,layer9-17,,,,,0.0,100.0,100.0,100.0,,,,,1286.862070725998,None,2.0,1.646857008105144,1286.862070725998,None,1286.862070725998,None,1286.862070725998,None,1,2022_Jul_11_0758,Semantic-hierachy,2021.1.2,
251,Trial # 252,layer9-17_T11_to_T5.jpg,layer9-17/layer9-17_T11_to_T5.jpg,TT,layer9-17,,,,,0.0,101.0,101.0,101.0,,,,,1288.7135238409974,None,3.0,2.230828947154805,1288.7135238409974,None,1288.7135238409974,None,1288.7135238409974,None,1,2022_Jul_11_0758,Semantic-hierachy,2021.1.2,
252,Trial # 253,layer6-8_T10_to_T12.jpg,layer6-8/layer6-8_T10_to_T12.jpg,TT,layer6-8,,,,,0.0,102.0,102.0,102.0,,,,,1291.1130117049906,None,4.0,4.444044246803969,1291.1130117049906,None,1291.1130117049906,None,1291.1130117049906,None,1,2022_Jul_11_0758,Semantic-hierachy,2021.1.2,
253,Trial # 254,layer9-17_O5_to_T1.jpg,layer9-17/layer9-17_O5_to_T1.jpg,OT,layer9-17,,,,,0.0,103.0,103.0,103.0,,,,,1295.8147233119234,None,2.0,1.8090751480776817,1295.8147233119234,None,1295.8147233119234,None,1295.8147233119234,None,1,2022_Jul_11_0758,Semantic-hierachy,2021.1.2,
254,Trial # 255,layer6-8_T2_to_T3.jpg,layer6-8/layer6-8_T2_to_T3.jpg,TT,layer6-8,,,,,0.0,104.0,104.0,104.0,,,,,1297.7998830669094,None,1.0,2.1476791370660067,1297.7998830669094,None,1297.7998830669094,None,1297.7998830669094,None,1,2022_Jul_11_0758,Semantic-hierachy,2021.1.2,
255,Trial # 256,layer6-8_O2_to_T6.jpg,layer6-8/layer6-8_O2_to_T6.jpg,OT,layer6-8,,,,,0.0,105.0,105.0,105.0,,,,,1300.1660859039985,None,3.0,2.184034725883976,1300.1660859039985,None,1300.1660859039985,None,1300.1660859039985,None,1,2022_Jul_11_0758,Semantic-hierachy,2021.1.2,
256,Trial # 257,layer6-8_T11_to_T9.jpg,layer6-8/layer6-8_T11_to_T9.jpg,TT,layer6-8,,,,,0.0,106.0,106.0,106.0,,,,,1302.4846794719342,None,3.0,4.782836098922417,1302.4846794719342,None,1302.4846794719342,None,1302.4846794719342,None,1,2022_Jul_11_0758,Semantic-hierachy,2021.1.2,
257,Trial # 258,layer6-8_O5_to_T9.jpg,layer6-8/layer6-8_O5_to_T9.jpg,OT,layer6-8,,,,,0.0,107.0,107.0,107.0,,,,,1307.4687337579671,None,3.0,2.974071479868144,1307.4687337579671,None,1307.4687337579671,None,1307.4687337579671,None,1,2022_Jul_11_0758,Semantic-hierachy,2021.1.2,
258,Trial # 259,layer6-8_O9_to_T8.jpg,layer6-8/layer6-8_O9_to_T8.jpg,OT,layer6-8,,,,,0.0,108.0,108.0,108.0,,,,,1310.5858123130165,None,3.0,2.0408128041308373,1310.5858123130165,None,1310.5858123130165,None,1310.5858123130165,None,1,2022_Jul_11_0758,Semantic-hierachy,2021.1.2,
259,Trial # 260,layer6-8_T1_to_T5.jpg,layer6-8/layer6-8_T1_to_T5.jpg,TT,layer6-8,,,,,0.0,109.0,109.0,109.0,,,,,1312.7881066470873,None,3.0,1.9752577759791168,1312.7881066470873,None,1312.7881066470873,None,1312.7881066470873,None,1,2022_Jul_11_0758,Semantic-hierachy,2021.1.2,
260,Trial # 261,layer0-5_O11_to_T2.jpg,layer0-5/layer0-5_O11_to_T2.jpg,OT,layer0-5,,,,,0.0,110.0,110.0,110.0,,,,,1315.787507662084,None,2.0,2.487341630971059,1315.787507662084,None,1315.787507662084,None,1315.787507662084,None,1,2022_Jul_11_0758,Semantic-hierachy,2021.1.2,
261,Trial # 262,layer0-5_O7_to_T4.jpg,layer0-5/layer0-5_O7_to_T4.jpg,OT,layer0-5,,,,,0.0,111.0,111.0,111.0,,,,,1318.5897493818777,None,1.0,1.5681228819303217,1318.5897493818777,None,1318.5897493818777,None,1318.5897493818777,None,1,2022_Jul_11_0758,Semantic-hierachy,2021.1.2,
262,Trial # 263,layer6-8_T12_to_T8.jpg,layer6-8/layer6-8_T12_to_T8.jpg,TT,layer6-8,,,,,0.0,112.0,112.0,112.0,,,,,1320.4560301920865,None,4.0,3.0073644830845296,1320.4560301920865,None,1320.4560301920865,None,1320.4560301920865,None,1,2022_Jul_11_0758,Semantic-hierachy,2021.1.2,
263,Trial # 264,layer6-8_O4_to_O9.jpg,layer6-8/layer6-8_O4_to_O9.jpg,OO,layer6-8,,,,,0.0,113.0,113.0,113.0,,,,,1323.640367622953,None,3.0,1.5885323358234018,1323.640367622953,None,1323.640367622953,None,1323.640367622953,None,1,2022_Jul_11_0758,Semantic-hierachy,2021.1.2,
264,Trial # 265,layer0-5_T1_to_T5.jpg,layer0-5/layer0-5_T1_to_T5.jpg,TT,layer0-5,,,,,0.0,114.0,114.0,114.0,,,,,1325.5909303219523,None,1.0,1.9265585420653224,1325.5909303219523,None,1325.5909303219523,None,1325.5909303219523,None,1,2022_Jul_11_0758,Semantic-hierachy,2021.1.2,
265,Trial # 266,layer0-5_O12_to_O7.jpg,layer0-5/layer0-5_O12_to_O7.jpg,OO,layer0-5,,,,,0.0,115.0,115.0,115.0,,,,,1327.6585747438949,None,1.0,1.5464521369431168,1327.6585747438949,None,1327.6585747438949,None,1327.6585747438949,None,1,2022_Jul_11_0758,Semantic-hierachy,2021.1.2,
266,Trial # 267,layer6-8_T8_to_T9.jpg,layer6-8/layer6-8_T8_to_T9.jpg,TT,layer6-8,,,,,0.0,116.0,116.0,116.0,,,,,1329.3925864710473,None,3.0,1.9898677680175751,1329.3925864710473,None,1329.3925864710473,None,1329.3925864710473,None,1,2022_Jul_11_0758,Semantic-hierachy,2021.1.2,
267,Trial # 268,layer9-17_O11_to_T10.jpg,layer9-17/layer9-17_O11_to_T10.jpg,OT,layer9-17,,,,,0.0,117.0,117.0,117.0,,,,,1331.525659790961,None,2.0,1.42941535403952,1331.525659790961,None,1331.525659790961,None,1331.525659790961,None,1,2022_Jul_11_0758,Semantic-hierachy,2021.1.2,
268,Trial # 269,layer0-5_O8_to_T9.jpg,layer0-5/layer0-5_O8_to_T9.jpg,OT,layer0-5,,,,,0.0,118.0,118.0,118.0,,,,,1333.0774196339771,None,1.0,2.2328770288731903,1333.0774196339771,None,1333.0774196339771,None,1333.0774196339771,None,1,2022_Jul_11_0758,Semantic-hierachy,2021.1.2,
269,Trial # 270,layer9-17_O10_to_O11.jpg,layer9-17/layer9-17_O10_to_O11.jpg,OO,layer9-17,,,,,0.0,119.0,119.0,119.0,,,,,1335.5112114390358,None,4.0,1.8901389869861305,1335.5112114390358,None,1335.5112114390358,None,1335.5112114390358,None,1,2022_Jul_11_0758,Semantic-hierachy,2021.1.2,
270,Trial # 271,layer0-5_T1_to_T9.jpg,layer0-5/layer0-5_T1_to_T9.jpg,TT,layer0-5,,,,,0.0,120.0,120.0,120.0,,,,,1337.59567586286,None,1.0,1.9310137908905745,1337.59567586286,None,1337.59567586286,None,1337.59567586286,None,1,2022_Jul_11_0758,Semantic-hierachy,2021.1.2,
271,Trial # 272,layer6-8_T11_to_T8.jpg,layer6-8/layer6-8_T11_to_T8.jpg,TT,layer6-8,,,,,0.0,121.0,121.0,121.0,,,,,1339.728593993001,None,4.0,4.578341132029891,1339.728593993001,None,1339.728593993001,None,1339.728593993001,None,1,2022_Jul_11_0758,Semantic-hierachy,2021.1.2,
272,Trial # 273,layer9-17_O10_to_O12.jpg,layer9-17/layer9-17_O10_to_O12.jpg,OO,layer9-17,,,,,0.0,122.0,122.0,122.0,,,,,1344.4634675360285,None,2.0,4.161124401027337,1344.4634675360285,None,1344.4634675360285,None,1344.4634675360285,None,1,2022_Jul_11_0758,Semantic-hierachy,2021.1.2,
273,Trial # 274,layer0-5_T12_to_T6.jpg,layer0-5/layer0-5_T12_to_T6.jpg,TT,layer0-5,,,,,0.0,123.0,123.0,123.0,,,,,1348.8157373128925,None,1.0,1.5625975062139332,1348.8157373128925,None,1348.8157373128925,None,1348.8157373128925,None,1,2022_Jul_11_0758,Semantic-hierachy,2021.1.2,
274,Trial # 275,layer9-17_O11_to_O5.jpg,layer9-17/layer9-17_O11_to_O5.jpg,OO,layer9-17,,,,,0.0,124.0,124.0,124.0,,,,,1350.5318154450506,None,2.0,1.7615726618096232,1350.5318154450506,None,1350.5318154450506,None,1350.5318154450506,None,1,2022_Jul_11_0758,Semantic-hierachy,2021.1.2,
275,Trial # 276,layer9-17_O1_to_O4.jpg,layer9-17/layer9-17_O1_to_O4.jpg,OO,layer9-17,,,,,0.0,125.0,125.0,125.0,,,,,1352.4329788230823,None,3.0,2.5481568900868297,1352.4329788230823,None,1352.4329788230823,None,1352.4329788230823,None,1,2022_Jul_11_0758,Semantic-hierachy,2021.1.2,
276,Trial # 277,layer6-8_O11_to_O3.jpg,layer6-8/layer6-8_O11_to_O3.jpg,OO,layer6-8,,,,,0.0,126.0,126.0,126.0,,,,,1355.184089282062,None,2.0,1.844634247943759,1355.184089282062,None,1355.184089282062,None,1355.184089282062,None,1,2022_Jul_11_0758,Semantic-hierachy,2021.1.2,
277,Trial # 278,layer6-8_T10_to_T11.jpg,layer6-8/layer6-8_T10_to_T11.jpg,TT,layer6-8,,,,,0.0,127.0,127.0,127.0,,,,,1357.1843095289078,None,4.0,2.1109078410081565,1357.1843095289078,None,1357.1843095289078,None,1357.1843095289078,None,1,2022_Jul_11_0758,Semantic-hierachy,2021.1.2,
278,Trial # 279,layer0-5_O7_to_T3.jpg,layer0-5/layer0-5_O7_to_T3.jpg,OT,layer0-5,,,,,0.0,128.0,128.0,128.0,,,,,1359.468938251026,None,1.0,1.4834050238132477,1359.468938251026,None,1359.468938251026,None,1359.468938251026,None,1,2022_Jul_11_0758,Semantic-hierachy,2021.1.2,
279,Trial # 280,layer9-17_T1_to_T10.jpg,layer9-17/layer9-17_T1_to_T10.jpg,TT,layer9-17,,,,,0.0,129.0,129.0,129.0,,,,,1361.1348705049604,None,3.0,2.33886483986862,1361.1348705049604,None,1361.1348705049604,None,1361.1348705049604,None,1,2022_Jul_11_0758,Semantic-hierachy,2021.1.2,
280,Trial # 281,layer9-17_O6_to_T7.jpg,layer9-17/layer9-17_O6_to_T7.jpg,OT,layer9-17,,,,,0.0,130.0,130.0,130.0,,,,,1363.6199478229971,None,2.0,1.2379521999973804,1363.6199478229971,None,1363.6199478229971,None,1363.6199478229971,None,1,2022_Jul_11_0758,Semantic-hierachy,2021.1.2,
281,Trial # 282,layer0-5_O10_to_O7.jpg,layer0-5/layer0-5_O10_to_O7.jpg,OO,layer0-5,,,,,0.0,131.0,131.0,131.0,,,,,1365.036296092905,None,1.0,4.001809298060834,1365.036296092905,None,1365.036296092905,None,1365.036296092905,None,1,2022_Jul_11_0758,Semantic-hierachy,2021.1.2,
282,Trial # 283,layer0-5_O1_to_O11.jpg,layer0-5/layer0-5_O1_to_O11.jpg,OO,layer0-5,,,,,0.0,132.0,132.0,132.0,,,,,1369.1716483859343,None,1.0,1.019152124878019,1369.1716483859343,None,1369.1716483859343,None,1369.1716483859343,None,1,2022_Jul_11_0758,Semantic-hierachy,2021.1.2,
283,Trial # 284,layer6-8_O7_to_O8.jpg,layer6-8/layer6-8_O7_to_O8.jpg,OO,layer6-8,,,,,0.0,133.0,133.0,133.0,,,,,1370.3716953189578,None,2.0,2.570090578868985,1370.3716953189578,None,1370.3716953189578,None,1370.3716953189578,None,1,2022_Jul_11_0758,Semantic-hierachy,2021.1.2,
284,Trial # 285,layer0-5_T7_to_T8.jpg,layer0-5/layer0-5_T7_to_T8.jpg,TT,layer0-5,,,,,0.0,134.0,134.0,134.0,,,,,1373.98925220198,None,1.0,1.594042289070785,1373.98925220198,None,1373.98925220198,None,1373.98925220198,None,1,2022_Jul_11_0758,Semantic-hierachy,2021.1.2,
285,Trial # 286,layer9-17_T11_to_T6.jpg,layer9-17/layer9-17_T11_to_T6.jpg,TT,layer9-17,,,,,0.0,135.0,135.0,135.0,,,,,1375.7893045919482,None,3.0,3.1148548568598926,1375.7893045919482,None,1375.7893045919482,None,1375.7893045919482,None,1,2022_Jul_11_0758,Semantic-hierachy,2021.1.2,
286,Trial # 287,layer0-5_T2_to_T7.jpg,layer0-5/layer0-5_T2_to_T7.jpg,TT,layer0-5,,,,,0.0,136.0,136.0,136.0,,,,,1379.224495230941,None,1.0,1.9702988869976248,1379.224495230941,None,1379.224495230941,None,1379.224495230941,None,1,2022_Jul_11_0758,Semantic-hierachy,2021.1.2,
287,Trial # 288,layer9-17_O10_to_O2.jpg,layer9-17/layer9-17_O10_to_O2.jpg,OO,layer9-17,,,,,0.0,137.0,137.0,137.0,,,,,1381.441223982023,None,2.0,1.559354912955314,1381.441223982023,None,1381.441223982023,None,1381.441223982023,None,1,2022_Jul_11_0758,Semantic-hierachy,2021.1.2,
288,Trial # 289,layer0-5_T10_to_T9.jpg,layer0-5/layer0-5_T10_to_T9.jpg,TT,layer0-5,,,,,0.0,138.0,138.0,138.0,,,,,1383.1263316159602,None,1.0,2.287530320929364,1383.1263316159602,None,1383.1263316159602,None,1383.1263316159602,None,1,2022_Jul_11_0758,Semantic-hierachy,2021.1.2,
289,Trial # 290,layer6-8_O11_to_O5.jpg,layer6-8/layer6-8_O11_to_O5.jpg,OO,layer6-8,,,,,0.0,139.0,139.0,139.0,,,,,1385.7255184950773,None,2.0,1.836670837830752,1385.7255184950773,None,1385.7255184950773,None,1385.7255184950773,None,1,2022_Jul_11_0758,Semantic-hierachy,2021.1.2,
290,Trial # 291,layer6-8_O3_to_O7.jpg,layer6-8/layer6-8_O3_to_O7.jpg,OO,layer6-8,,,,,0.0,140.0,140.0,140.0,,,,,1387.8435666370206,None,2.0,1.330991722876206,1387.8435666370206,None,1387.8435666370206,None,1387.8435666370206,None,1,2022_Jul_11_0758,Semantic-hierachy,2021.1.2,
291,Trial # 292,layer9-17_O12_to_T11.jpg,layer9-17/layer9-17_O12_to_T11.jpg,OT,layer9-17,,,,,0.0,141.0,141.0,141.0,,,,,1389.394787242869,None,2.0,1.2144810690078884,1389.394787242869,None,1389.394787242869,None,1389.394787242869,None,1,2022_Jul_11_0758,Semantic-hierachy,2021.1.2,
292,Trial # 293,layer9-17_O2_to_O4.jpg,layer9-17/layer9-17_O2_to_O4.jpg,OO,layer9-17,,,,,0.0,142.0,142.0,142.0,,,,,1390.8606484108604,None,4.0,3.7928922020364553,1390.8606484108604,None,1390.8606484108604,None,1390.8606484108604,None,1,2022_Jul_11_0758,Semantic-hierachy,2021.1.2,
293,Trial # 294,layer6-8_O1_to_T12.jpg,layer6-8/layer6-8_O1_to_T12.jpg,OT,layer6-8,,,,,0.0,143.0,143.0,143.0,,,,,1394.8629159489649,None,3.0,2.3428393159993,1394.8629159489649,None,1394.8629159489649,None,1394.8629159489649,None,1,2022_Jul_11_0758,Semantic-hierachy,2021.1.2,
294,Trial # 295,layer9-17_O11_to_T5.jpg,layer9-17/layer9-17_O11_to_T5.jpg,OT,layer9-17,,,,,0.0,144.0,144.0,144.0,,,,,1397.4130731569603,None,3.0,2.0718865420203656,1397.4130731569603,None,1397.4130731569603,None,1397.4130731569603,None,1,2022_Jul_11_0758,Semantic-hierachy,2021.1.2,
295,Trial # 296,layer0-5_O10_to_O9.jpg,layer0-5/layer0-5_O10_to_O9.jpg,OO,layer0-5,,,,,0.0,145.0,145.0,145.0,,,,,1399.6635093910154,None,1.0,2.019541447982192,1399.6635093910154,None,1399.6635093910154,None,1399.6635093910154,None,1,2022_Jul_11_0758,Semantic-hierachy,2021.1.2,
296,Trial # 297,layer6-8_O12_to_T10.jpg,layer6-8/layer6-8_O12_to_T10.jpg,OT,layer6-8,,,,,0.0,146.0,146.0,146.0,,,,,1401.863976848079,None,3.0,1.7681819389108568,1401.863976848079,None,1401.863976848079,None,1401.863976848079,None,1,2022_Jul_11_0758,Semantic-hierachy,2021.1.2,
297,Trial # 298,layer6-8_O3_to_T2.jpg,layer6-8/layer6-8_O3_to_T2.jpg,OT,layer6-8,,,,,0.0,147.0,147.0,147.0,,,,,1403.799218385946,None,2.0,1.420101384166628,1403.799218385946,None,1403.799218385946,None,1403.799218385946,None,1,2022_Jul_11_0758,Semantic-hierachy,2021.1.2,
298,Trial # 299,layer9-17_O2_to_T5.jpg,layer9-17/layer9-17_O2_to_T5.jpg,OT,layer9-17,,,,,0.0,148.0,148.0,148.0,,,,,1405.4494522379246,None,4.0,2.215383837930858,1405.4494522379246,None,1405.4494522379246,None,1405.4494522379246,None,1,2022_Jul_11_0758,Semantic-hierachy,2021.1.2,
299,Trial # 300,layer0-5_O3_to_T7.jpg,layer0-5/layer0-5_O3_to_T7.jpg,OT,layer0-5,,,,,0.0,149.0,149.0,149.0,,,,,1407.85049620294,None,1.0,2.338683918118477,1407.85049620294,None,1407.85049620294,None,1407.85049620294,None,1,2022_Jul_11_0758,Semantic-hierachy,2021.1.2,
300,Trial # 301,layer9-17_O11_to_O6.jpg,layer9-17/layer9-17_O11_to_O6.jpg,OO,layer9-17,,,,,,,,,0.0,0.0,0.0,0.0,1412.468440678902,None,2.0,2.4457905520685017,1412.468440678902,None,1412.468440678902,None,1412.468440678902,None,1,2022_Jul_11_0758,Semantic-hierachy,2021.1.2,
301,Trial # 302,layer0-5_O3_to_O7.jpg,layer0-5/layer0-5_O3_to_O7.jpg,OO,layer0-5,,,,,,,,,0.0,1.0,1.0,1.0,1415.101591963088,None,1.0,1.8056697889696809,1415.101591963088,None,1415.101591963088,None,1415.101591963088,None,1,2022_Jul_11_0758,Semantic-hierachy,2021.1.2,
302,Trial # 303,layer6-8_O11_to_T3.jpg,layer6-8/layer6-8_O11_to_T3.jpg,OT,layer6-8,,,,,,,,,0.0,2.0,2.0,2.0,1417.0359599520452,None,3.0,2.418213316006586,1417.0359599520452,None,1417.0359599520452,None,1417.0359599520452,None,1,2022_Jul_11_0758,Semantic-hierachy,2021.1.2,
303,Trial # 304,layer6-8_O2_to_T7.jpg,layer6-8/layer6-8_O2_to_T7.jpg,OT,layer6-8,,,,,,,,,0.0,3.0,3.0,3.0,1419.670728614088,None,3.0,1.6829369999468329,1419.670728614088,None,1419.670728614088,None,1419.670728614088,None,1,2022_Jul_11_0758,Semantic-hierachy,2021.1.2,
304,Trial # 305,layer0-5_T1_to_T7.jpg,layer0-5/layer0-5_T1_to_T7.jpg,TT,layer0-5,,,,,,,,,0.0,4.0,4.0,4.0,1421.7372525969986,None,1.0,3.1064119581133127,1421.7372525969986,None,1421.7372525969986,None,1421.7372525969986,None,1,2022_Jul_11_0758,Semantic-hierachy,2021.1.2,
305,Trial # 306,layer6-8_O7_to_T11.jpg,layer6-8/layer6-8_O7_to_T11.jpg,OT,layer6-8,,,,,,,,,0.0,5.0,5.0,5.0,1425.8883958428632,None,3.0,1.725437241140753,1425.8883958428632,None,1425.8883958428632,None,1425.8883958428632,None,1,2022_Jul_11_0758,Semantic-hierachy,2021.1.2,
306,Trial # 307,layer9-17_O5_to_T5.jpg,layer9-17/layer9-17_O5_to_T5.jpg,OT,layer9-17,,,,,,,,,0.0,6.0,6.0,6.0,1427.772639635019,None,2.0,1.440762456972152,1427.772639635019,None,1427.772639635019,None,1427.772639635019,None,1,2022_Jul_11_0758,Semantic-hierachy,2021.1.2,
307,Trial # 308,layer9-17_T12_to_T5.jpg,layer9-17/layer9-17_T12_to_T5.jpg,TT,layer9-17,,,,,,,,,0.0,7.0,7.0,7.0,1429.4225488309748,None,3.0,1.4582140070851892,1429.4225488309748,None,1429.4225488309748,None,1429.4225488309748,None,1,2022_Jul_11_0758,Semantic-hierachy,2021.1.2,
308,Trial # 309,layer6-8_O11_to_O2.jpg,layer6-8/layer6-8_O11_to_O2.jpg,OO,layer6-8,,,,,,,,,0.0,8.0,8.0,8.0,1431.9233650979586,None,2.0,2.4363541989587247,1431.9233650979586,None,1431.9233650979586,None,1431.9233650979586,None,1,2022_Jul_11_0758,Semantic-hierachy,2021.1.2,
309,Trial # 310,layer6-8_O10_to_O7.jpg,layer6-8/layer6-8_O10_to_O7.jpg,OO,layer6-8,,,,,,,,,0.0,9.0,9.0,9.0,1434.67439436703,None,3.0,2.7990634068846703,1434.67439436703,None,1434.67439436703,None,1434.67439436703,None,1,2022_Jul_11_0758,Semantic-hierachy,2021.1.2,
310,Trial # 311,layer9-17_O10_to_T11.jpg,layer9-17/layer9-17_O10_to_T11.jpg,OT,layer9-17,,,,,,,,,0.0,10.0,10.0,10.0,1437.792306053918,None,4.0,2.8691772629972547,1437.792306053918,None,1437.792306053918,None,1437.792306053918,None,1,2022_Jul_11_0758,Semantic-hierachy,2021.1.2,
311,Trial # 312,layer6-8_O11_to_O12.jpg,layer6-8/layer6-8_O11_to_O12.jpg,OO,layer6-8,,,,,,,,,0.0,11.0,11.0,11.0,1440.8767042020336,None,4.0,3.298592435894534,1440.8767042020336,None,1440.8767042020336,None,1440.8767042020336,None,1,2022_Jul_11_0758,Semantic-hierachy,2021.1.2,
312,Trial # 313,layer9-17_O9_to_T8.jpg,layer9-17/layer9-17_O9_to_T8.jpg,OT,layer9-17,,,,,,,,,0.0,12.0,12.0,12.0,1444.4607219230384,None,3.0,1.5911817741580307,1444.4607219230384,None,1444.4607219230384,None,1444.4607219230384,None,1,2022_Jul_11_0758,Semantic-hierachy,2021.1.2,
313,Trial # 314,layer0-5_O3_to_T2.jpg,layer0-5/layer0-5_O3_to_T2.jpg,OT,layer0-5,,,,,,,,,0.0,13.0,13.0,13.0,1446.2116923038848,None,1.0,2.0123693600762635,1446.2116923038848,None,1446.2116923038848,None,1446.2116923038848,None,1,2022_Jul_11_0758,Semantic-hierachy,2021.1.2,
314,Trial # 315,layer9-17_T1_to_T11.jpg,layer9-17/layer9-17_T1_to_T11.jpg,TT,layer9-17,,,,,,,,,0.0,14.0,14.0,14.0,1448.562512879027,None,2.0,1.4182458519935608,1448.562512879027,None,1448.562512879027,None,1448.562512879027,None,1,2022_Jul_11_0758,Semantic-hierachy,2021.1.2,
315,Trial # 316,layer6-8_T10_to_T7.jpg,layer6-8/layer6-8_T10_to_T7.jpg,TT,layer6-8,,,,,,,,,0.0,15.0,15.0,15.0,1450.2459103609435,None,4.0,2.792654698016122,1450.2459103609435,None,1450.2459103609435,None,1450.2459103609435,None,1,2022_Jul_11_0758,Semantic-hierachy,2021.1.2,
316,Trial # 317,layer0-5_T6_to_T7.jpg,layer0-5/layer0-5_T6_to_T7.jpg,TT,layer0-5,,,,,,,,,0.0,16.0,16.0,16.0,1453.2313473599495,None,1.0,1.7824480088893324,1453.2313473599495,None,1453.2313473599495,None,1453.2313473599495,None,1,2022_Jul_11_0758,Semantic-hierachy,2021.1.2,
317,Trial # 318,layer9-17_O1_to_T3.jpg,layer9-17/layer9-17_O1_to_T3.jpg,OT,layer9-17,,,,,,,,,0.0,17.0,17.0,17.0,1455.214078936959,None,2.0,1.6120951331686229,1455.214078936959,None,1455.214078936959,None,1455.214078936959,None,1,2022_Jul_11_0758,Semantic-hierachy,2021.1.2,
318,Trial # 319,layer0-5_O2_to_T5.jpg,layer0-5/layer0-5_O2_to_T5.jpg,OT,layer0-5,,,,,,,,,0.0,18.0,18.0,18.0,1456.981706219958,None,4.0,2.241808267077431,1456.981706219958,None,1456.981706219958,None,1456.981706219958,None,1,2022_Jul_11_0758,Semantic-hierachy,2021.1.2,
319,Trial # 320,layer6-8_O7_to_T10.jpg,layer6-8/layer6-8_O7_to_T10.jpg,OT,layer6-8,,,,,,,,,0.0,19.0,19.0,19.0,1459.51573887188,None,1.0,2.07816368015483,1459.51573887188,None,1459.51573887188,None,1459.51573887188,None,1,2022_Jul_11_0758,Semantic-hierachy,2021.1.2,
320,Trial # 321,layer0-5_O5_to_O6.jpg,layer0-5/layer0-5_O5_to_O6.jpg,OO,layer0-5,,,,,,,,,0.0,20.0,20.0,20.0,1461.783094923012,None,1.0,1.8356154488865288,1461.783094923012,None,1461.783094923012,None,1461.783094923012,None,1,2022_Jul_11_0758,Semantic-hierachy,2021.1.2,
321,Trial # 322,layer9-17_O5_to_T4.jpg,layer9-17/layer9-17_O5_to_T4.jpg,OT,layer9-17,,,,,,,,,0.0,21.0,21.0,21.0,1463.884645007085,None,2.0,1.5730398558080196,1463.884645007085,None,1463.884645007085,None,1463.884645007085,None,1,2022_Jul_11_0758,Semantic-hierachy,2021.1.2,
322,Trial # 323,layer0-5_T12_to_T2.jpg,layer0-5/layer0-5_T12_to_T2.jpg,TT,layer0-5,,,,,,,,,0.0,22.0,22.0,22.0,1465.7840883750468,None,1.0,2.7852821578271687,1465.7840883750468,None,1465.7840883750468,None,1465.7840883750468,None,1,2022_Jul_11_0758,Semantic-hierachy,2021.1.2,
323,Trial # 324,layer0-5_O2_to_O4.jpg,layer0-5/layer0-5_O2_to_O4.jpg,OO,layer0-5,,,,,,,,,0.0,23.0,23.0,23.0,1468.9017720930278,None,1.0,1.527871639933437,1468.9017720930278,None,1468.9017720930278,None,1468.9017720930278,None,1,2022_Jul_11_0758,Semantic-hierachy,2021.1.2,
324,Trial # 325,layer6-8_O1_to_O9.jpg,layer6-8/layer6-8_O1_to_O9.jpg,OO,layer6-8,,,,,,,,,0.0,24.0,24.0,24.0,1470.651765788905,None,4.0,1.9164490499533715,1470.651765788905,None,1470.651765788905,None,1470.651765788905,None,1,2022_Jul_11_0758,Semantic-hierachy,2021.1.2,
325,Trial # 326,layer0-5_T3_to_T5.jpg,layer0-5/layer0-5_T3_to_T5.jpg,TT,layer0-5,,,,,,,,,0.0,25.0,25.0,25.0,1472.770473432029,None,1.0,2.416187671944499,1472.770473432029,None,1472.770473432029,None,1472.770473432029,None,1,2022_Jul_11_0758,Semantic-hierachy,2021.1.2,
326,Trial # 327,layer6-8_O8_to_T12.jpg,layer6-8/layer6-8_O8_to_T12.jpg,OT,layer6-8,,,,,,,,,0.0,26.0,26.0,26.0,1476.1207386499736,None,2.0,1.5983476350083947,1476.1207386499736,None,1476.1207386499736,None,1476.1207386499736,None,1,2022_Jul_11_0758,Semantic-hierachy,2021.1.2,
327,Trial # 328,layer9-17_T11_to_T4.jpg,layer9-17/layer9-17_T11_to_T4.jpg,TT,layer9-17,,,,,,,,,0.0,27.0,27.0,27.0,1477.9213917839809,None,2.0,1.3260836221743375,1477.9213917839809,None,1477.9213917839809,None,1477.9213917839809,None,1,2022_Jul_11_0758,Semantic-hierachy,2021.1.2,
328,Trial # 329,layer9-17_O6_to_T2.jpg,layer9-17/layer9-17_O6_to_T2.jpg,OT,layer9-17,,,,,,,,,0.0,28.0,28.0,28.0,1479.4545937709045,None,2.0,0.9603924909606576,1479.4545937709045,None,1479.4545937709045,None,1479.4545937709045,None,1,2022_Jul_11_0758,Semantic-hierachy,2021.1.2,
329,Trial # 330,layer9-17_T10_to_T9.jpg,layer9-17/layer9-17_T10_to_T9.jpg,TT,layer9-17,,,,,,,,,0.0,29.0,29.0,29.0,1480.6051961178891,None,2.0,2.240415145177394,1480.6051961178891,None,1480.6051961178891,None,1480.6051961178891,None,1,2022_Jul_11_0758,Semantic-hierachy,2021.1.2,
330,Trial # 331,layer0-5_O2_to_O3.jpg,layer0-5/layer0-5_O2_to_O3.jpg,OO,layer0-5,,,,,,,,,0.0,30.0,30.0,30.0,1483.0567977109458,None,1.0,2.0928116908762604,1483.0567977109458,None,1483.0567977109458,None,1483.0567977109458,None,1,2022_Jul_11_0758,Semantic-hierachy,2021.1.2,
331,Trial # 332,layer6-8_O1_to_O12.jpg,layer6-8/layer6-8_O1_to_O12.jpg,OO,layer6-8,,,,,,,,,0.0,31.0,31.0,31.0,1485.3233851399273,None,2.0,1.5662882269825786,1485.3233851399273,None,1485.3233851399273,None,1485.3233851399273,None,1,2022_Jul_11_0758,Semantic-hierachy,2021.1.2,
332,Trial # 333,layer0-5_O5_to_T12.jpg,layer0-5/layer0-5_O5_to_T12.jpg,OT,layer0-5,,,,,,,,,0.0,32.0,32.0,32.0,1487.0739715979437,None,1.0,1.7449184879660606,1487.0739715979437,None,1487.0739715979437,None,1487.0739715979437,None,1,2022_Jul_11_0758,Semantic-hierachy,2021.1.2,
333,Trial # 334,layer9-17_O11_to_T6.jpg,layer9-17/layer9-17_O11_to_T6.jpg,OT,layer9-17,,,,,,,,,0.0,33.0,33.0,33.0,1489.024856379954,None,4.0,3.915898310951889,1489.024856379954,None,1489.024856379954,None,1489.024856379954,None,1,2022_Jul_11_0758,Semantic-hierachy,2021.1.2,
334,Trial # 335,layer0-5_O4_to_T1.jpg,layer0-5/layer0-5_O4_to_T1.jpg,OT,layer0-5,,,,,,,,,0.0,34.0,34.0,34.0,1493.1271924618632,None,1.0,1.998303255066276,1493.1271924618632,None,1493.1271924618632,None,1493.1271924618632,None,1,2022_Jul_11_0758,Semantic-hierachy,2021.1.2,
335,Trial # 336,layer6-8_T1_to_T6.jpg,layer6-8/layer6-8_T1_to_T6.jpg,TT,layer6-8,,,,,,,,,0.0,35.0,35.0,35.0,1495.3271571539808,None,3.0,2.348084019962698,1495.3271571539808,None,1495.3271571539808,None,1495.3271571539808,None,1,2022_Jul_11_0758,Semantic-hierachy,2021.1.2,
336,Trial # 337,layer0-5_O12_to_O6.jpg,layer0-5/layer0-5_O12_to_O6.jpg,OO,layer0-5,,,,,,,,,0.0,36.0,36.0,36.0,1497.8449352460448,None,1.0,1.9843079219572248,1497.8449352460448,None,1497.8449352460448,None,1497.8449352460448,None,1,2022_Jul_11_0758,Semantic-hierachy,2021.1.2,
337,Trial # 338,layer0-5_O1_to_O10.jpg,layer0-5/layer0-5_O1_to_O10.jpg,OO,layer0-5,,,,,,,,,0.0,37.0,37.0,37.0,1499.9946802910415,None,1.0,2.234419882996008,1499.9946802910415,None,1499.9946802910415,None,1499.9946802910415,None,1,2022_Jul_11_0758,Semantic-hierachy,2021.1.2,
338,Trial # 339,layer0-5_O9_to_T9.jpg,layer0-5/layer0-5_O9_to_T9.jpg,OT,layer0-5,,,,,,,,,0.0,38.0,38.0,38.0,1502.395703837974,None,1.0,1.877214100910351,1502.395703837974,None,1502.395703837974,None,1502.395703837974,None,1,2022_Jul_11_0758,Semantic-hierachy,2021.1.2,
339,Trial # 340,layer6-8_O6_to_T10.jpg,layer6-8/layer6-8_O6_to_T10.jpg,OT,layer6-8,,,,,,,,,0.0,39.0,39.0,39.0,1504.4639016380534,None,2.0,1.582254626089707,1504.4639016380534,None,1504.4639016380534,None,1504.4639016380534,None,1,2022_Jul_11_0758,Semantic-hierachy,2021.1.2,
340,Trial # 341,layer9-17_O3_to_T3.jpg,layer9-17/layer9-17_O3_to_T3.jpg,OT,layer9-17,,,,,,,,,0.0,40.0,40.0,40.0,1506.2631241609342,None,2.0,1.2231891111005098,1506.2631241609342,None,1506.2631241609342,None,1506.2631241609342,None,1,2022_Jul_11_0758,Semantic-hierachy,2021.1.2,
341,Trial # 342,layer0-5_O8_to_T8.jpg,layer0-5/layer0-5_O8_to_T8.jpg,OT,layer0-5,,,,,,,,,0.0,41.0,41.0,41.0,1507.6470199238977,None,1.0,2.8631066200323403,1507.6470199238977,None,1507.6470199238977,None,1507.6470199238977,None,1,2022_Jul_11_0758,Semantic-hierachy,2021.1.2,
342,Trial # 343,layer9-17_O11_to_O3.jpg,layer9-17/layer9-17_O11_to_O3.jpg,OO,layer9-17,,,,,,,,,0.0,42.0,42.0,42.0,1510.7644188869745,None,2.0,1.808440506923944,1510.7644188869745,None,1510.7644188869745,None,1510.7644188869745,None,1,2022_Jul_11_0758,Semantic-hierachy,2021.1.2,
343,Trial # 344,layer9-17_O10_to_T12.jpg,layer9-17/layer9-17_O10_to_T12.jpg,OT,layer9-17,,,,,,,,,0.0,43.0,43.0,43.0,1512.7330614069942,None,2.0,1.0490307919681072,1512.7330614069942,None,1512.7330614069942,None,1512.7330614069942,None,1,2022_Jul_11_0758,Semantic-hierachy,2021.1.2,
344,Trial # 345,layer6-8_T3_to_T6.jpg,layer6-8/layer6-8_T3_to_T6.jpg,TT,layer6-8,,,,,,,,,0.0,44.0,44.0,44.0,1513.966657225974,None,3.0,2.5295199709944427,1513.966657225974,None,1513.966657225974,None,1513.966657225974,None,1,2022_Jul_11_0758,Semantic-hierachy,2021.1.2,
345,Trial # 346,layer6-8_O1_to_O4.jpg,layer6-8/layer6-8_O1_to_O4.jpg,OO,layer6-8,,,,,,,,,0.0,45.0,45.0,45.0,1516.8837037670892,None,4.0,2.014317075023428,1516.8837037670892,None,1516.8837037670892,None,1516.8837037670892,None,1,2022_Jul_11_0758,Semantic-hierachy,2021.1.2,
346,Trial # 347,layer0-5_O8_to_T3.jpg,layer0-5/layer0-5_O8_to_T3.jpg,OT,layer0-5,,,,,,,,,0.0,46.0,46.0,46.0,1519.867794934893,None,1.0,1.8355216158088297,1519.867794934893,None,1519.867794934893,None,1519.867794934893,None,1,2022_Jul_11_0758,Semantic-hierachy,2021.1.2,
347,Trial # 348,layer9-17_T2_to_T7.jpg,layer9-17/layer9-17_T2_to_T7.jpg,TT,layer9-17,,,,,,,,,0.0,47.0,47.0,47.0,1521.8677656140644,None,2.0,1.2634604419581592,1521.8677656140644,None,1521.8677656140644,None,1521.8677656140644,None,1,2022_Jul_11_0758,Semantic-hierachy,2021.1.2,
348,Trial # 349,layer0-5_O9_to_T4.jpg,layer0-5/layer0-5_O9_to_T4.jpg,OT,layer0-5,,,,,,,,,0.0,48.0,48.0,48.0,1523.402704284992,None,3.0,1.3759210279677063,1523.402704284992,None,1523.402704284992,None,1523.402704284992,None,1,2022_Jul_11_0758,Semantic-hierachy,2021.1.2,
349,Trial # 350,layer9-17_T12_to_T9.jpg,layer9-17/layer9-17_T12_to_T9.jpg,TT,layer9-17,,,,,,,,,0.0,49.0,49.0,49.0,1525.1191360850353,None,2.0,1.3557902059983462,1525.1191360850353,None,1525.1191360850353,None,1525.1191360850353,None,1,2022_Jul_11_0758,Semantic-hierachy,2021.1.2,
350,Trial # 351,layer6-8_O11_to_O6.jpg,layer6-8/layer6-8_O11_to_O6.jpg,OO,layer6-8,,,,,,,,,0.0,50.0,50.0,50.0,1526.6860604379326,None,2.0,0.978361768880859,1526.6860604379326,None,1526.6860604379326,None,1526.6860604379326,None,1,2022_Jul_11_0758,Semantic-hierachy,2021.1.2,
351,Trial # 352,layer0-5_O10_to_O11.jpg,layer0-5/layer0-5_O10_to_O11.jpg,OO,layer0-5,,,,,,,,,0.0,51.0,51.0,51.0,1527.904386082897,None,2.0,1.06070232600905,1527.904386082897,None,1527.904386082897,None,1527.904386082897,None,1,2022_Jul_11_0758,Semantic-hierachy,2021.1.2,
352,Trial # 353,layer9-17_O4_to_T7.jpg,layer9-17/layer9-17_O4_to_T7.jpg,OT,layer9-17,,,,,,,,,0.0,52.0,52.0,52.0,1529.321452710079,None,2.0,1.3174171808641404,1529.321452710079,None,1529.321452710079,None,1529.321452710079,None,1,2022_Jul_11_0758,Semantic-hierachy,2021.1.2,
353,Trial # 354,layer0-5_O2_to_T11.jpg,layer0-5/layer0-5_O2_to_T11.jpg,OT,layer0-5,,,,,,,,,0.0,53.0,53.0,53.0,1530.8540540800896,None,1.0,1.6777965109795332,1530.8540540800896,None,1530.8540540800896,None,1530.8540540800896,None,1,2022_Jul_11_0758,Semantic-hierachy,2021.1.2,
354,Trial # 355,layer9-17_O5_to_O6.jpg,layer9-17/layer9-17_O5_to_O6.jpg,OO,layer9-17,,,,,,,,,0.0,54.0,54.0,54.0,1532.6726355759893,None,2.0,1.6898200549185276,1532.6726355759893,None,1532.6726355759893,None,1532.6726355759893,None,1,2022_Jul_11_0758,Semantic-hierachy,2021.1.2,
355,Trial # 356,layer6-8_O5_to_T10.jpg,layer6-8/layer6-8_O5_to_T10.jpg,OT,layer6-8,,,,,,,,,0.0,55.0,55.0,55.0,1534.6219689028803,None,2.0,1.0921089057810605,1534.6219689028803,None,1534.6219689028803,None,1534.6219689028803,None,1,2022_Jul_11_0758,Semantic-hierachy,2021.1.2,
356,Trial # 357,layer6-8_T3_to_T4.jpg,layer6-8/layer6-8_T3_to_T4.jpg,TT,layer6-8,,,,,,,,,0.0,56.0,56.0,56.0,1535.9890873089898,None,2.0,2.867924700956792,1535.9890873089898,None,1535.9890873089898,None,1535.9890873089898,None,1,2022_Jul_11_0758,Semantic-hierachy,2021.1.2,
357,Trial # 358,layer6-8_T4_to_T8.jpg,layer6-8/layer6-8_T4_to_T8.jpg,TT,layer6-8,,,,,,,,,0.0,57.0,57.0,57.0,1539.056950862985,None,4.0,2.1805759388953447,1539.056950862985,None,1539.056950862985,None,1539.056950862985,None,1,2022_Jul_11_0758,Semantic-hierachy,2021.1.2,
358,Trial # 359,layer0-5_O2_to_T4.jpg,layer0-5/layer0-5_O2_to_T4.jpg,OT,layer0-5,,,,,,,,,0.0,58.0,58.0,58.0,1541.608052500058,None,1.0,1.5141385891474783,1541.608052500058,None,1541.608052500058,None,1541.608052500058,None,1,2022_Jul_11_0758,Semantic-hierachy,2021.1.2,
359,Trial # 360,layer0-5_O4_to_O7.jpg,layer0-5/layer0-5_O4_to_O7.jpg,OO,layer0-5,,,,,,,,,0.0,59.0,59.0,59.0,1543.442515875911,None,2.0,1.2612482861150056,1543.442515875911,None,1543.442515875911,None,1543.442515875911,None,1,2022_Jul_11_0758,Semantic-hierachy,2021.1.2,
360,Trial # 361,layer9-17_O12_to_T7.jpg,layer9-17/layer9-17_O12_to_T7.jpg,OT,layer9-17,,,,,,,,,0.0,60.0,60.0,60.0,1545.0085118568968,None,2.0,0.9782372880727052,1545.0085118568968,None,1545.0085118568968,None,1545.0085118568968,None,1,2022_Jul_11_0758,Semantic-hierachy,2021.1.2,
361,Trial # 362,layer6-8_O11_to_T8.jpg,layer6-8/layer6-8_O11_to_T8.jpg,OT,layer6-8,,,,,,,,,0.0,61.0,61.0,61.0,1546.2753405650146,None,3.0,1.6024698989931494,1546.2753405650146,None,1546.2753405650146,None,1546.2753405650146,None,1,2022_Jul_11_0758,Semantic-hierachy,2021.1.2,
362,Trial # 363,layer9-17_O10_to_T6.jpg,layer9-17/layer9-17_O10_to_T6.jpg,OT,layer9-17,,,,,,,,,0.0,62.0,62.0,62.0,1548.0262221049052,None,4.0,2.6635137430857867,1548.0262221049052,None,1548.0262221049052,None,1548.0262221049052,None,1,2022_Jul_11_0758,Semantic-hierachy,2021.1.2,
363,Trial # 364,layer0-5_O5_to_T7.jpg,layer0-5/layer0-5_O5_to_T7.jpg,OT,layer0-5,,,,,,,,,0.0,63.0,63.0,63.0,1550.8940777268726,None,1.0,1.549267980037257,1550.8940777268726,None,1550.8940777268726,None,1550.8940777268726,None,1,2022_Jul_11_0758,Semantic-hierachy,2021.1.2,
