,Trial_num,image_name,image_path,pair_type,layers,block1.thisRepN,block1.thisTrialN,block1.thisN,block1.thisIndex,block2.thisRepN,block2.thisTrialN,block2.thisN,block2.thisIndex,block3.thisRepN,block3.thisTrialN,block3.thisN,block3.thisIndex,image_8.started,image_8.stopped,selected_semantic.response,selected_semantic.rt,selected_semantic.started,selected_semantic.stopped,Instruction.started,Instruction.stopped,Trial_number.started,Trial_number.stopped,session,date,expName,psychopyVersion,Unnamed: 33
0,Trial # 1,layer0-5_O2_to_T1.jpg,layer0-5/layer0-5_O2_to_T1.jpg,OT,layer0-5,0.0,0.0,0.0,0.0,,,,,,,,,100.42618889600271,None,1.0,24.170897227013484,100.42618889600271,None,100.42618889600271,None,100.42618889600271,None,1,2022_Jun_27_1600,Semantic-hierachy,2021.1.2,
1,Trial # 2,layer0-5_O11_to_T7.jpg,layer0-5/layer0-5_O11_to_T7.jpg,OT,layer0-5,0.0,1.0,1.0,1.0,,,,,,,,,125.83367709303276,None,1.0,8.262653600017074,125.83367709303276,None,125.83367709303276,None,125.83367709303276,None,1,2022_Jun_27_1600,Semantic-hierachy,2021.1.2,
2,Trial # 3,layer6-8_O3_to_O5.jpg,layer6-8/layer6-8_O3_to_O5.jpg,OO,layer6-8,0.0,2.0,2.0,2.0,,,,,,,,,138.7372798100114,None,4.0,5.384151505015325,138.7372798100114,None,138.7372798100114,None,138.7372798100114,None,1,2022_Jun_27_1600,Semantic-hierachy,2021.1.2,
3,Trial # 4,layer6-8_O11_to_O4.jpg,layer6-8/layer6-8_O11_to_O4.jpg,OO,layer6-8,0.0,3.0,3.0,3.0,,,,,,,,,146.89090267999563,None,3.0,5.562099965987727,146.89090267999563,None,146.89090267999563,None,146.89090267999563,None,1,2022_Jun_27_1600,Semantic-hierachy,2021.1.2,
4,Trial # 5,layer6-8_O8_to_T8.jpg,layer6-8/layer6-8_O8_to_T8.jpg,OT,layer6-8,0.0,4.0,4.0,4.0,,,,,,,,,153.4262590589933,None,3.0,3.1285724420449696,153.4262590589933,None,153.4262590589933,None,153.4262590589933,None,1,2022_Jun_27_1600,Semantic-hierachy,2021.1.2,
5,Trial # 6,layer0-5_O11_to_O8.jpg,layer0-5/layer0-5_O11_to_O8.jpg,OO,layer0-5,0.0,5.0,5.0,5.0,,,,,,,,,156.9441272970289,None,1.0,5.223383939999621,156.9441272970289,None,156.9441272970289,None,156.9441272970289,None,1,2022_Jun_27_1600,Semantic-hierachy,2021.1.2,
6,Trial # 7,layer0-5_T10_to_T11.jpg,layer0-5/layer0-5_T10_to_T11.jpg,TT,layer0-5,0.0,6.0,6.0,6.0,,,,,,,,,163.7294961750158,None,1.0,4.342208442976698,163.7294961750158,None,163.7294961750158,None,163.7294961750158,None,1,2022_Jun_27_1600,Semantic-hierachy,2021.1.2,
7,Trial # 8,layer9-17_O6_to_O9.jpg,layer9-17/layer9-17_O6_to_O9.jpg,OO,layer9-17,0.0,7.0,7.0,7.0,,,,,,,,,168.58114363998175,None,2.0,2.8585639109951444,168.58114363998175,None,168.58114363998175,None,168.58114363998175,None,1,2022_Jun_27_1600,Semantic-hierachy,2021.1.2,
8,Trial # 9,layer6-8_O12_to_O9.jpg,layer6-8/layer6-8_O12_to_O9.jpg,OO,layer6-8,0.0,8.0,8.0,8.0,,,,,,,,,171.88171893701656,None,4.0,3.2707560419803485,171.88171893701656,None,171.88171893701656,None,171.88171893701656,None,1,2022_Jun_27_1600,Semantic-hierachy,2021.1.2,
9,Trial # 10,layer0-5_O10_to_T2.jpg,layer0-5/layer0-5_O10_to_T2.jpg,OT,layer0-5,0.0,9.0,9.0,9.0,,,,,,,,,175.49870539002586,None,4.0,4.6877709469990805,175.49870539002586,None,175.49870539002586,None,175.49870539002586,None,1,2022_Jun_27_1600,Semantic-hierachy,2021.1.2,
10,Trial # 11,layer9-17_T10_to_T2.jpg,layer9-17/layer9-17_T10_to_T2.jpg,TT,layer9-17,0.0,10.0,10.0,10.0,,,,,,,,,182.76875437702984,None,3.0,45.238499263999984,182.76875437702984,None,182.76875437702984,None,182.76875437702984,None,1,2022_Jun_27_1600,Semantic-hierachy,2021.1.2,
11,Trial # 12,layer6-8_T6_to_T7.jpg,layer6-8/layer6-8_T6_to_T7.jpg,TT,layer6-8,0.0,11.0,11.0,11.0,,,,,,,,,234.7336946889991,None,3.0,16.415428620006423,234.7336946889991,None,234.7336946889991,None,234.7336946889991,None,1,2022_Jun_27_1600,Semantic-hierachy,2021.1.2,
12,Trial # 13,layer9-17_O10_to_T2.jpg,layer9-17/layer9-17_O10_to_T2.jpg,OT,layer9-17,0.0,12.0,12.0,12.0,,,,,,,,,252.10692492401,None,2.0,2.108106986968778,252.10692492401,None,252.10692492401,None,252.10692492401,None,1,2022_Jun_27_1600,Semantic-hierachy,2021.1.2,
13,Trial # 14,layer6-8_T4_to_T7.jpg,layer6-8/layer6-8_T4_to_T7.jpg,TT,layer6-8,0.0,13.0,13.0,13.0,,,,,,,,,254.590486178,None,3.0,6.805146115017124,254.590486178,None,254.590486178,None,254.590486178,None,1,2022_Jun_27_1600,Semantic-hierachy,2021.1.2,
14,Trial # 15,layer9-17_O8_to_T2.jpg,layer9-17/layer9-17_O8_to_T2.jpg,OT,layer9-17,0.0,14.0,14.0,14.0,,,,,,,,,262.3600416260306,None,2.0,2.609014346031472,262.3600416260306,None,262.3600416260306,None,262.3600416260306,None,1,2022_Jun_27_1600,Semantic-hierachy,2021.1.2,
15,Trial # 16,layer0-5_T6_to_T9.jpg,layer0-5/layer0-5_T6_to_T9.jpg,TT,layer0-5,0.0,15.0,15.0,15.0,,,,,,,,,265.409851199016,None,1.0,2.3066829379531555,265.409851199016,None,265.409851199016,None,265.409851199016,None,1,2022_Jun_27_1600,Semantic-hierachy,2021.1.2,
16,Trial # 17,layer0-5_O11_to_O12.jpg,layer0-5/layer0-5_O11_to_O12.jpg,OO,layer0-5,0.0,16.0,16.0,16.0,,,,,,,,,269.560852953,None,1.0,2.3375181989977136,269.560852953,None,269.560852953,None,269.560852953,None,1,2022_Jun_27_1600,Semantic-hierachy,2021.1.2,
17,Trial # 18,layer0-5_T11_to_T5.jpg,layer0-5/layer0-5_T11_to_T5.jpg,TT,layer0-5,0.0,17.0,17.0,17.0,,,,,,,,,272.2130949390121,None,1.0,1.7087388709769584,272.2130949390121,None,272.2130949390121,None,272.2130949390121,None,1,2022_Jun_27_1600,Semantic-hierachy,2021.1.2,
18,Trial # 19,layer0-5_O6_to_T12.jpg,layer0-5/layer0-5_O6_to_T12.jpg,OT,layer0-5,0.0,18.0,18.0,18.0,,,,,,,,,274.1292109609931,None,1.0,2.825456570019014,274.1292109609931,None,274.1292109609931,None,274.1292109609931,None,1,2022_Jun_27_1600,Semantic-hierachy,2021.1.2,
19,Trial # 20,layer6-8_T6_to_T8.jpg,layer6-8/layer6-8_T6_to_T8.jpg,TT,layer6-8,0.0,19.0,19.0,19.0,,,,,,,,,277.4147022680263,None,3.0,4.431319324008655,277.4147022680263,None,277.4147022680263,None,277.4147022680263,None,1,2022_Jun_27_1600,Semantic-hierachy,2021.1.2,
20,Trial # 21,layer9-17_T2_to_T5.jpg,layer9-17/layer9-17_T2_to_T5.jpg,TT,layer9-17,0.0,20.0,20.0,20.0,,,,,,,,,282.33300207799766,None,2.0,2.45995289698476,282.33300207799766,None,282.33300207799766,None,282.33300207799766,None,1,2022_Jun_27_1600,Semantic-hierachy,2021.1.2,
21,Trial # 22,layer6-8_O2_to_O6.jpg,layer6-8/layer6-8_O2_to_O6.jpg,OO,layer6-8,0.0,21.0,21.0,21.0,,,,,,,,,285.41603621299146,None,4.0,3.541806199005805,285.41603621299146,None,285.41603621299146,None,285.41603621299146,None,1,2022_Jun_27_1600,Semantic-hierachy,2021.1.2,
22,Trial # 23,layer9-17_O3_to_T12.jpg,layer9-17/layer9-17_O3_to_T12.jpg,OT,layer9-17,0.0,22.0,22.0,22.0,,,,,,,,,289.4177198050311,None,2.0,2.7730748979956843,289.4177198050311,None,289.4177198050311,None,289.4177198050311,None,1,2022_Jun_27_1600,Semantic-hierachy,2021.1.2,
23,Trial # 24,layer0-5_O11_to_O3.jpg,layer0-5/layer0-5_O11_to_O3.jpg,OO,layer0-5,0.0,23.0,23.0,23.0,,,,,,,,,292.5361371000181,None,1.0,4.326593142002821,292.5361371000181,None,292.5361371000181,None,292.5361371000181,None,1,2022_Jun_27_1600,Semantic-hierachy,2021.1.2,
24,Trial # 25,layer6-8_O2_to_O9.jpg,layer6-8/layer6-8_O2_to_O9.jpg,OO,layer6-8,0.0,24.0,24.0,24.0,,,,,,,,,297.3375349129783,None,4.0,2.309194369998295,297.3375349129783,None,297.3375349129783,None,297.3375349129783,None,1,2022_Jun_27_1600,Semantic-hierachy,2021.1.2,
25,Trial # 26,layer9-17_O10_to_O8.jpg,layer9-17/layer9-17_O10_to_O8.jpg,OO,layer9-17,0.0,25.0,25.0,25.0,,,,,,,,,299.97032642702106,None,3.0,7.042517622001469,299.97032642702106,None,299.97032642702106,None,299.97032642702106,None,1,2022_Jun_27_1600,Semantic-hierachy,2021.1.2,
26,Trial # 27,layer9-17_T4_to_T6.jpg,layer9-17/layer9-17_T4_to_T6.jpg,TT,layer9-17,0.0,26.0,26.0,26.0,,,,,,,,,307.90762708801776,None,2.0,1.8246621430153027,307.90762708801776,None,307.90762708801776,None,307.90762708801776,None,1,2022_Jun_27_1600,Semantic-hierachy,2021.1.2,
27,Trial # 28,layer6-8_O7_to_T8.jpg,layer6-8/layer6-8_O7_to_T8.jpg,OT,layer6-8,0.0,27.0,27.0,27.0,,,,,,,,,310.0906174789998,None,3.0,2.724828131031245,310.0906174789998,None,310.0906174789998,None,310.0906174789998,None,1,2022_Jun_27_1600,Semantic-hierachy,2021.1.2,
28,Trial # 29,layer6-8_T4_to_T5.jpg,layer6-8/layer6-8_T4_to_T5.jpg,TT,layer6-8,0.0,28.0,28.0,28.0,,,,,,,,,313.242312411021,None,3.0,6.089083480008412,313.242312411021,None,313.242312411021,None,313.242312411021,None,1,2022_Jun_27_1600,Semantic-hierachy,2021.1.2,
29,Trial # 30,layer6-8_T10_to_T9.jpg,layer6-8/layer6-8_T10_to_T9.jpg,TT,layer6-8,0.0,29.0,29.0,29.0,,,,,,,,,319.9101118189865,None,3.0,4.874873575987294,319.9101118189865,None,319.9101118189865,None,319.9101118189865,None,1,2022_Jun_27_1600,Semantic-hierachy,2021.1.2,
30,Trial # 31,layer9-17_O1_to_O8.jpg,layer9-17/layer9-17_O1_to_O8.jpg,OO,layer9-17,0.0,30.0,30.0,30.0,,,,,,,,,325.16151186299976,None,2.0,4.241667770955246,325.16151186299976,None,325.16151186299976,None,325.16151186299976,None,1,2022_Jun_27_1600,Semantic-hierachy,2021.1.2,
31,Trial # 32,layer9-17_O12_to_O7.jpg,layer9-17/layer9-17_O12_to_O7.jpg,OO,layer9-17,0.0,31.0,31.0,31.0,,,,,,,,,330.02955521299737,None,2.0,8.039872143999673,330.02955521299737,None,330.02955521299737,None,330.02955521299737,None,1,2022_Jun_27_1600,Semantic-hierachy,2021.1.2,
32,Trial # 33,layer9-17_T10_to_T12.jpg,layer9-17/layer9-17_T10_to_T12.jpg,TT,layer9-17,0.0,32.0,32.0,32.0,,,,,,,,,338.38340584002435,None,3.0,2.588651087018661,338.38340584002435,None,338.38340584002435,None,338.38340584002435,None,1,2022_Jun_27_1600,Semantic-hierachy,2021.1.2,
33,Trial # 34,layer0-5_T2_to_T6.jpg,layer0-5/layer0-5_T2_to_T6.jpg,TT,layer0-5,0.0,33.0,33.0,33.0,,,,,,,,,342.26810827403096,None,1.0,4.358117059979122,342.26810827403096,None,342.26810827403096,None,342.26810827403096,None,1,2022_Jun_27_1600,Semantic-hierachy,2021.1.2,
34,Trial # 35,layer6-8_T11_to_T2.jpg,layer6-8/layer6-8_T11_to_T2.jpg,TT,layer6-8,0.0,34.0,34.0,34.0,,,,,,,,,347.0530555439764,None,4.0,3.5735792019986548,347.0530555439764,None,347.0530555439764,None,347.0530555439764,None,1,2022_Jun_27_1600,Semantic-hierachy,2021.1.2,
35,Trial # 36,layer6-8_O4_to_T3.jpg,layer6-8/layer6-8_O4_to_T3.jpg,OT,layer6-8,0.0,35.0,35.0,35.0,,,,,,,,,351.0529332809965,None,3.0,2.156532088993117,351.0529332809965,None,351.0529332809965,None,351.0529332809965,None,1,2022_Jun_27_1600,Semantic-hierachy,2021.1.2,
36,Trial # 37,layer6-8_O3_to_T11.jpg,layer6-8/layer6-8_O3_to_T11.jpg,OT,layer6-8,0.0,36.0,36.0,36.0,,,,,,,,,353.55382467998425,None,3.0,4.325769837014377,353.55382467998425,None,353.55382467998425,None,353.55382467998425,None,1,2022_Jun_27_1600,Semantic-hierachy,2021.1.2,
37,Trial # 38,layer6-8_T1_to_T2.jpg,layer6-8/layer6-8_T1_to_T2.jpg,TT,layer6-8,0.0,37.0,37.0,37.0,,,,,,,,,358.3231489440077,None,3.0,4.3252578949905,358.3231489440077,None,358.3231489440077,None,358.3231489440077,None,1,2022_Jun_27_1600,Semantic-hierachy,2021.1.2,
38,Trial # 39,layer9-17_O2_to_O6.jpg,layer9-17/layer9-17_O2_to_O6.jpg,OO,layer9-17,0.0,38.0,38.0,38.0,,,,,,,,,365.55734157603,None,4.0,7.977476622036193,365.55734157603,None,365.55734157603,None,365.55734157603,None,1,2022_Jun_27_1600,Semantic-hierachy,2021.1.2,
39,Trial # 40,layer9-17_O4_to_T2.jpg,layer9-17/layer9-17_O4_to_T2.jpg,OT,layer9-17,0.0,39.0,39.0,39.0,,,,,,,,,373.92660630098544,None,2.0,2.8435714750085026,373.92660630098544,None,373.92660630098544,None,373.92660630098544,None,1,2022_Jun_27_1600,Semantic-hierachy,2021.1.2,
40,Trial # 41,layer6-8_O5_to_T3.jpg,layer6-8/layer6-8_O5_to_T3.jpg,OT,layer6-8,0.0,40.0,40.0,40.0,,,,,,,,,377.0952569069923,None,3.0,1.7764487129752524,377.0952569069923,None,377.0952569069923,None,377.0952569069923,None,1,2022_Jun_27_1600,Semantic-hierachy,2021.1.2,
41,Trial # 42,layer6-8_O2_to_O3.jpg,layer6-8/layer6-8_O2_to_O3.jpg,OO,layer6-8,0.0,41.0,41.0,41.0,,,,,,,,,379.1785340519855,None,4.0,2.181505327986088,379.1785340519855,None,379.1785340519855,None,379.1785340519855,None,1,2022_Jun_27_1600,Semantic-hierachy,2021.1.2,
42,Trial # 43,layer6-8_O1_to_T6.jpg,layer6-8/layer6-8_O1_to_T6.jpg,OT,layer6-8,0.0,42.0,42.0,42.0,,,,,,,,,382.0470421810169,None,3.0,1.7457118880120106,382.0470421810169,None,382.0470421810169,None,382.0470421810169,None,1,2022_Jun_27_1600,Semantic-hierachy,2021.1.2,
43,Trial # 44,layer6-8_O2_to_T12.jpg,layer6-8/layer6-8_O2_to_T12.jpg,OT,layer6-8,0.0,43.0,43.0,43.0,,,,,,,,,384.179785432003,None,3.0,1.9081420629518109,384.179785432003,None,384.179785432003,None,384.179785432003,None,1,2022_Jun_27_1600,Semantic-hierachy,2021.1.2,
44,Trial # 45,layer9-17_O2_to_O8.jpg,layer9-17/layer9-17_O2_to_O8.jpg,OO,layer9-17,0.0,44.0,44.0,44.0,,,,,,,,,386.3309958220343,None,4.0,3.104932497022673,386.3309958220343,None,386.3309958220343,None,386.3309958220343,None,1,2022_Jun_27_1600,Semantic-hierachy,2021.1.2,
45,Trial # 46,layer9-17_O10_to_O4.jpg,layer9-17/layer9-17_O10_to_O4.jpg,OO,layer9-17,0.0,45.0,45.0,45.0,,,,,,,,,389.7484940700233,None,2.0,4.639605859003495,389.7484940700233,None,389.7484940700233,None,389.7484940700233,None,1,2022_Jun_27_1600,Semantic-hierachy,2021.1.2,
46,Trial # 47,layer0-5_O1_to_O4.jpg,layer0-5/layer0-5_O1_to_O4.jpg,OO,layer0-5,0.0,46.0,46.0,46.0,,,,,,,,,394.933497163991,None,1.0,2.459686517016962,394.933497163991,None,394.933497163991,None,394.933497163991,None,1,2022_Jun_27_1600,Semantic-hierachy,2021.1.2,
47,Trial # 48,layer0-5_T4_to_T5.jpg,layer0-5/layer0-5_T4_to_T5.jpg,TT,layer0-5,0.0,47.0,47.0,47.0,,,,,,,,,397.7844960850198,None,1.0,3.5900817420333624,397.7844960850198,None,397.7844960850198,None,397.7844960850198,None,1,2022_Jun_27_1600,Semantic-hierachy,2021.1.2,
48,Trial # 49,layer9-17_T12_to_T8.jpg,layer9-17/layer9-17_T12_to_T8.jpg,TT,layer9-17,0.0,48.0,48.0,48.0,,,,,,,,,401.9032318490208,None,2.0,3.1198429060168564,401.9032318490208,None,401.9032318490208,None,401.9032318490208,None,1,2022_Jun_27_1600,Semantic-hierachy,2021.1.2,
49,Trial # 50,layer0-5_T10_to_T5.jpg,layer0-5/layer0-5_T10_to_T5.jpg,TT,layer0-5,0.0,49.0,49.0,49.0,,,,,,,,,405.3366208390216,None,1.0,2.347760652017314,405.3366208390216,None,405.3366208390216,None,405.3366208390216,None,1,2022_Jun_27_1600,Semantic-hierachy,2021.1.2,
50,Trial # 51,layer6-8_O10_to_O8.jpg,layer6-8/layer6-8_O10_to_O8.jpg,OO,layer6-8,0.0,50.0,50.0,50.0,,,,,,,,,408.02092111401726,None,3.0,3.988521291990765,408.02092111401726,None,408.02092111401726,None,408.02092111401726,None,1,2022_Jun_27_1600,Semantic-hierachy,2021.1.2,
51,Trial # 52,layer9-17_O3_to_O5.jpg,layer9-17/layer9-17_O3_to_O5.jpg,OO,layer9-17,0.0,51.0,51.0,51.0,,,,,,,,,413.5065370600205,None,2.0,2.600564545020461,413.5065370600205,None,413.5065370600205,None,413.5065370600205,None,1,2022_Jun_27_1600,Semantic-hierachy,2021.1.2,
52,Trial # 53,layer6-8_T1_to_T12.jpg,layer6-8/layer6-8_T1_to_T12.jpg,TT,layer6-8,0.0,52.0,52.0,52.0,,,,,,,,,416.5233906080248,None,3.0,2.2790916499798186,416.5233906080248,None,416.5233906080248,None,416.5233906080248,None,1,2022_Jun_27_1600,Semantic-hierachy,2021.1.2,
53,Trial # 54,layer0-5_O4_to_O9.jpg,layer0-5/layer0-5_O4_to_O9.jpg,OO,layer0-5,0.0,53.0,53.0,53.0,,,,,,,,,419.1239232239896,None,1.0,1.8612290890305303,419.1239232239896,None,419.1239232239896,None,419.1239232239896,None,1,2022_Jun_27_1600,Semantic-hierachy,2021.1.2,
54,Trial # 55,layer0-5_O5_to_O9.jpg,layer0-5/layer0-5_O5_to_O9.jpg,OO,layer0-5,0.0,54.0,54.0,54.0,,,,,,,,,421.3918119639857,None,1.0,2.683736726990901,421.3918119639857,None,421.3918119639857,None,421.3918119639857,None,1,2022_Jun_27_1600,Semantic-hierachy,2021.1.2,
55,Trial # 56,layer0-5_O1_to_O2.jpg,layer0-5/layer0-5_O1_to_O2.jpg,OO,layer0-5,0.0,55.0,55.0,55.0,,,,,,,,,424.4423989310162,None,1.0,2.1786538789747283,424.4423989310162,None,424.4423989310162,None,424.4423989310162,None,1,2022_Jun_27_1600,Semantic-hierachy,2021.1.2,
56,Trial # 57,layer9-17_T12_to_T3.jpg,layer9-17/layer9-17_T12_to_T3.jpg,TT,layer9-17,0.0,56.0,56.0,56.0,,,,,,,,,426.9442450979841,None,2.0,2.1936954440316185,426.9442450979841,None,426.9442450979841,None,426.9442450979841,None,1,2022_Jun_27_1600,Semantic-hierachy,2021.1.2,
57,Trial # 58,layer0-5_O7_to_O9.jpg,layer0-5/layer0-5_O7_to_O9.jpg,OO,layer0-5,0.0,57.0,57.0,57.0,,,,,,,,,429.76144838298205,None,1.0,1.6117130840430036,429.76144838298205,None,429.76144838298205,None,429.76144838298205,None,1,2022_Jun_27_1600,Semantic-hierachy,2021.1.2,
58,Trial # 59,layer0-5_T5_to_T9.jpg,layer0-5/layer0-5_T5_to_T9.jpg,TT,layer0-5,0.0,58.0,58.0,58.0,,,,,,,,,431.7439426810015,None,1.0,1.9271381860016843,431.7439426810015,None,431.7439426810015,None,431.7439426810015,None,1,2022_Jun_27_1600,Semantic-hierachy,2021.1.2,
59,Trial # 60,layer9-17_O1_to_O9.jpg,layer9-17/layer9-17_O1_to_O9.jpg,OO,layer9-17,0.0,59.0,59.0,59.0,,,,,,,,,434.3116516540176,None,4.0,5.027696648030542,434.3116516540176,None,434.3116516540176,None,434.3116516540176,None,1,2022_Jun_27_1600,Semantic-hierachy,2021.1.2,
60,Trial # 61,layer0-5_O6_to_O7.jpg,layer0-5/layer0-5_O6_to_O7.jpg,OO,layer0-5,0.0,60.0,60.0,60.0,,,,,,,,,439.73017109400826,None,1.0,2.8253824429702945,439.73017109400826,None,439.73017109400826,None,439.73017109400826,None,1,2022_Jun_27_1600,Semantic-hierachy,2021.1.2,
61,Trial # 62,layer9-17_T5_to_T6.jpg,layer9-17/layer9-17_T5_to_T6.jpg,TT,layer9-17,0.0,61.0,61.0,61.0,,,,,,,,,442.9151374810026,None,2.0,5.629373576957732,442.9151374810026,None,442.9151374810026,None,442.9151374810026,None,1,2022_Jun_27_1600,Semantic-hierachy,2021.1.2,
62,Trial # 63,layer9-17_T4_to_T9.jpg,layer9-17/layer9-17_T4_to_T9.jpg,TT,layer9-17,0.0,62.0,62.0,62.0,,,,,,,,,450.2003921319847,None,2.0,1.6641784540261142,450.2003921319847,None,450.2003921319847,None,450.2003921319847,None,1,2022_Jun_27_1600,Semantic-hierachy,2021.1.2,
63,Trial # 64,layer0-5_O11_to_T1.jpg,layer0-5/layer0-5_O11_to_T1.jpg,OT,layer0-5,0.0,63.0,63.0,63.0,,,,,,,,,452.2176319590071,None,1.0,1.8485189499915573,452.2176319590071,None,452.2176319590071,None,452.2176319590071,None,1,2022_Jun_27_1600,Semantic-hierachy,2021.1.2,
64,Trial # 65,layer6-8_T5_to_T9.jpg,layer6-8/layer6-8_T5_to_T9.jpg,TT,layer6-8,0.0,64.0,64.0,64.0,,,,,,,,,454.3348016000237,None,2.0,13.73501008801395,454.3348016000237,None,454.3348016000237,None,454.3348016000237,None,1,2022_Jun_27_1600,Semantic-hierachy,2021.1.2,
65,Trial # 66,layer0-5_T4_to_T7.jpg,layer0-5/layer0-5_T4_to_T7.jpg,TT,layer0-5,0.0,65.0,65.0,65.0,,,,,,,,,468.3238434660016,None,1.0,1.5806643010000698,468.3238434660016,None,468.3238434660016,None,468.3238434660016,None,1,2022_Jun_27_1600,Semantic-hierachy,2021.1.2,
66,Trial # 67,layer0-5_O2_to_O6.jpg,layer0-5/layer0-5_O2_to_O6.jpg,OO,layer0-5,0.0,66.0,66.0,66.0,,,,,,,,,470.1895274359849,None,1.0,1.4276877450174652,470.1895274359849,None,470.1895274359849,None,470.1895274359849,None,1,2022_Jun_27_1600,Semantic-hierachy,2021.1.2,
67,Trial # 68,layer9-17_O12_to_T3.jpg,layer9-17/layer9-17_O12_to_T3.jpg,OT,layer9-17,0.0,67.0,67.0,67.0,,,,,,,,,471.9246273409808,None,2.0,1.51011265598936,471.9246273409808,None,471.9246273409808,None,471.9246273409808,None,1,2022_Jun_27_1600,Semantic-hierachy,2021.1.2,
68,Trial # 69,layer9-17_O7_to_O9.jpg,layer9-17/layer9-17_O7_to_O9.jpg,OO,layer9-17,0.0,68.0,68.0,68.0,,,,,,,,,473.72408421,None,2.0,11.263071946974378,473.72408421,None,473.72408421,None,473.72408421,None,1,2022_Jun_27_1600,Semantic-hierachy,2021.1.2,
69,Trial # 70,layer9-17_T1_to_T8.jpg,layer9-17/layer9-17_T1_to_T8.jpg,TT,layer9-17,0.0,69.0,69.0,69.0,,,,,,,,,489.2301671640016,None,2.0,12.99922100699041,489.2301671640016,None,489.2301671640016,None,489.2301671640016,None,1,2022_Jun_27_1600,Semantic-hierachy,2021.1.2,
70,Trial # 71,layer0-5_O3_to_T8.jpg,layer0-5/layer0-5_O3_to_T8.jpg,OT,layer0-5,0.0,70.0,70.0,70.0,,,,,,,,,502.5008864459815,None,1.0,2.377367403008975,502.5008864459815,None,502.5008864459815,None,502.5008864459815,None,1,2022_Jun_27_1600,Semantic-hierachy,2021.1.2,
71,Trial # 72,layer9-17_O9_to_T2.jpg,layer9-17/layer9-17_O9_to_T2.jpg,OT,layer9-17,0.0,71.0,71.0,71.0,,,,,,,,,505.2345528390142,None,3.0,2.2450873130001128,505.2345528390142,None,505.2345528390142,None,505.2345528390142,None,1,2022_Jun_27_1600,Semantic-hierachy,2021.1.2,
72,Trial # 73,layer9-17_O5_to_O7.jpg,layer9-17/layer9-17_O5_to_O7.jpg,OO,layer9-17,0.0,72.0,72.0,72.0,,,,,,,,,507.8025957319769,None,2.0,1.931475828983821,507.8025957319769,None,507.8025957319769,None,507.8025957319769,None,1,2022_Jun_27_1600,Semantic-hierachy,2021.1.2,
73,Trial # 74,layer0-5_T11_to_T9.jpg,layer0-5/layer0-5_T11_to_T9.jpg,TT,layer0-5,0.0,73.0,73.0,73.0,,,,,,,,,510.1193921919912,None,1.0,5.499625967990141,510.1193921919912,None,510.1193921919912,None,510.1193921919912,None,1,2022_Jun_27_1600,Semantic-hierachy,2021.1.2,
74,Trial # 75,layer0-5_O11_to_T12.jpg,layer0-5/layer0-5_O11_to_T12.jpg,OT,layer0-5,0.0,74.0,74.0,74.0,,,,,,,,,515.8871587309986,None,1.0,1.379541082016658,515.8871587309986,None,515.8871587309986,None,515.8871587309986,None,1,2022_Jun_27_1600,Semantic-hierachy,2021.1.2,
75,Trial # 76,layer9-17_T7_to_T9.jpg,layer9-17/layer9-17_T7_to_T9.jpg,TT,layer9-17,0.0,75.0,75.0,75.0,,,,,,,,,517.6389578480157,None,4.0,2.6756840309826657,517.6389578480157,None,517.6389578480157,None,517.6389578480157,None,1,2022_Jun_27_1600,Semantic-hierachy,2021.1.2,
76,Trial # 77,layer6-8_O6_to_T2.jpg,layer6-8/layer6-8_O6_to_T2.jpg,OT,layer6-8,0.0,76.0,76.0,76.0,,,,,,,,,520.6721244750079,None,4.0,1.9088868689723315,520.6721244750079,None,520.6721244750079,None,520.6721244750079,None,1,2022_Jun_27_1600,Semantic-hierachy,2021.1.2,
77,Trial # 78,layer9-17_T4_to_T5.jpg,layer9-17/layer9-17_T4_to_T5.jpg,TT,layer9-17,0.0,77.0,77.0,77.0,,,,,,,,,523.1071919469978,None,2.0,1.7585419220267795,523.1071919469978,None,523.1071919469978,None,523.1071919469978,None,1,2022_Jun_27_1600,Semantic-hierachy,2021.1.2,
78,Trial # 79,layer0-5_T2_to_T4.jpg,layer0-5/layer0-5_T2_to_T4.jpg,TT,layer0-5,0.0,78.0,78.0,78.0,,,,,,,,,525.1733070730115,None,1.0,2.691861836006865,525.1733070730115,None,525.1733070730115,None,525.1733070730115,None,1,2022_Jun_27_1600,Semantic-hierachy,2021.1.2,
79,Trial # 80,layer0-5_T2_to_T8.jpg,layer0-5/layer0-5_T2_to_T8.jpg,TT,layer0-5,0.0,79.0,79.0,79.0,,,,,,,,,528.1088697119849,None,1.0,1.348153867002111,528.1088697119849,None,528.1088697119849,None,528.1088697119849,None,1,2022_Jun_27_1600,Semantic-hierachy,2021.1.2,
80,Trial # 81,layer9-17_T3_to_T9.jpg,layer9-17/layer9-17_T3_to_T9.jpg,TT,layer9-17,0.0,80.0,80.0,80.0,,,,,,,,,529.958421126008,None,2.0,1.9589384070131928,529.958421126008,None,529.958421126008,None,529.958421126008,None,1,2022_Jun_27_1600,Semantic-hierachy,2021.1.2,
81,Trial # 82,layer9-17_O2_to_O5.jpg,layer9-17/layer9-17_O2_to_O5.jpg,OO,layer9-17,0.0,81.0,81.0,81.0,,,,,,,,,532.2259705020115,None,2.0,2.2415568900178187,532.2259705020115,None,532.2259705020115,None,532.2259705020115,None,1,2022_Jun_27_1600,Semantic-hierachy,2021.1.2,
82,Trial # 83,layer6-8_O6_to_O7.jpg,layer6-8/layer6-8_O6_to_O7.jpg,OO,layer6-8,0.0,82.0,82.0,82.0,,,,,,,,,534.8097378090024,None,4.0,2.182277303014416,534.8097378090024,None,534.8097378090024,None,534.8097378090024,None,1,2022_Jun_27_1600,Semantic-hierachy,2021.1.2,
83,Trial # 84,layer9-17_O11_to_T1.jpg,layer9-17/layer9-17_O11_to_T1.jpg,OT,layer9-17,0.0,83.0,83.0,83.0,,,,,,,,,537.3447426449857,None,2.0,1.5104360089753754,537.3447426449857,None,537.3447426449857,None,537.3447426449857,None,1,2022_Jun_27_1600,Semantic-hierachy,2021.1.2,
84,Trial # 85,layer6-8_O5_to_T12.jpg,layer6-8/layer6-8_O5_to_T12.jpg,OT,layer6-8,0.0,84.0,84.0,84.0,,,,,,,,,539.1108580789878,None,3.0,2.029664842004422,539.1108580789878,None,539.1108580789878,None,539.1108580789878,None,1,2022_Jun_27_1600,Semantic-hierachy,2021.1.2,
85,Trial # 86,layer6-8_O4_to_O7.jpg,layer6-8/layer6-8_O4_to_O7.jpg,OO,layer6-8,0.0,85.0,85.0,85.0,,,,,,,,,541.5117868020316,None,4.0,2.034434004046489,541.5117868020316,None,541.5117868020316,None,541.5117868020316,None,1,2022_Jun_27_1600,Semantic-hierachy,2021.1.2,
86,Trial # 87,layer6-8_T10_to_T8.jpg,layer6-8/layer6-8_T10_to_T8.jpg,TT,layer6-8,0.0,86.0,86.0,86.0,,,,,,,,,543.8795284709777,None,2.0,1.845305786002428,543.8795284709777,None,543.8795284709777,None,543.8795284709777,None,1,2022_Jun_27_1600,Semantic-hierachy,2021.1.2,
87,Trial # 88,layer6-8_O10_to_T3.jpg,layer6-8/layer6-8_O10_to_T3.jpg,OT,layer6-8,0.0,87.0,87.0,87.0,,,,,,,,,545.9963062090101,None,3.0,1.8099534459761344,545.9963062090101,None,545.9963062090101,None,545.9963062090101,None,1,2022_Jun_27_1600,Semantic-hierachy,2021.1.2,
88,Trial # 89,layer6-8_O5_to_O9.jpg,layer6-8/layer6-8_O5_to_O9.jpg,OO,layer6-8,0.0,88.0,88.0,88.0,,,,,,,,,548.11474679003,None,4.0,2.460260724008549,548.11474679003,None,548.11474679003,None,548.11474679003,None,1,2022_Jun_27_1600,Semantic-hierachy,2021.1.2,
89,Trial # 90,layer6-8_O10_to_O11.jpg,layer6-8/layer6-8_O10_to_O11.jpg,OO,layer6-8,0.0,89.0,89.0,89.0,,,,,,,,,550.8818674220238,None,3.0,2.4676323349704035,550.8818674220238,None,550.8818674220238,None,550.8818674220238,None,1,2022_Jun_27_1600,Semantic-hierachy,2021.1.2,
90,Trial # 91,layer0-5_O4_to_T5.jpg,layer0-5/layer0-5_O4_to_T5.jpg,OT,layer0-5,0.0,90.0,90.0,90.0,,,,,,,,,553.6822733249865,None,1.0,1.4274104359792543,553.6822733249865,None,553.6822733249865,None,553.6822733249865,None,1,2022_Jun_27_1600,Semantic-hierachy,2021.1.2,
91,Trial # 92,layer0-5_T11_to_T12.jpg,layer0-5/layer0-5_T11_to_T12.jpg,TT,layer0-5,0.0,91.0,91.0,91.0,,,,,,,,,555.399293525028,None,1.0,1.1864203489967622,555.399293525028,None,555.399293525028,None,555.399293525028,None,1,2022_Jun_27_1600,Semantic-hierachy,2021.1.2,
92,Trial # 93,layer0-5_T10_to_T3.jpg,layer0-5/layer0-5_T10_to_T3.jpg,TT,layer0-5,0.0,92.0,92.0,92.0,,,,,,,,,556.8842774290242,None,1.0,1.0720838669803925,556.8842774290242,None,556.8842774290242,None,556.8842774290242,None,1,2022_Jun_27_1600,Semantic-hierachy,2021.1.2,
93,Trial # 94,layer0-5_O2_to_O8.jpg,layer0-5/layer0-5_O2_to_O8.jpg,OO,layer0-5,0.0,93.0,93.0,93.0,,,,,,,,,558.1682106149965,None,1.0,5.298148353002034,558.1682106149965,None,558.1682106149965,None,558.1682106149965,None,1,2022_Jun_27_1600,Semantic-hierachy,2021.1.2,
94,Trial # 95,layer0-5_T3_to_T8.jpg,layer0-5/layer0-5_T3_to_T8.jpg,TT,layer0-5,0.0,94.0,94.0,94.0,,,,,,,,,563.6533043520176,None,1.0,1.4743074019788764,563.6533043520176,None,563.6533043520176,None,563.6533043520176,None,1,2022_Jun_27_1600,Semantic-hierachy,2021.1.2,
95,Trial # 96,layer0-5_O7_to_O8.jpg,layer0-5/layer0-5_O7_to_O8.jpg,OO,layer0-5,0.0,95.0,95.0,95.0,,,,,,,,,565.3523374189972,None,1.0,2.240392320032697,565.3523374189972,None,565.3523374189972,None,565.3523374189972,None,1,2022_Jun_27_1600,Semantic-hierachy,2021.1.2,
96,Trial # 97,layer6-8_T10_to_T6.jpg,layer6-8/layer6-8_T10_to_T6.jpg,TT,layer6-8,0.0,96.0,96.0,96.0,,,,,,,,,567.8706484350259,None,2.0,1.831310442998074,567.8706484350259,None,567.8706484350259,None,567.8706484350259,None,1,2022_Jun_27_1600,Semantic-hierachy,2021.1.2,
97,Trial # 98,layer0-5_O1_to_O5.jpg,layer0-5/layer0-5_O1_to_O5.jpg,OO,layer0-5,0.0,97.0,97.0,97.0,,,,,,,,,569.9704725259799,None,1.0,1.6986599980155006,569.9704725259799,None,569.9704725259799,None,569.9704725259799,None,1,2022_Jun_27_1600,Semantic-hierachy,2021.1.2,
98,Trial # 99,layer6-8_O1_to_O6.jpg,layer6-8/layer6-8_O1_to_O6.jpg,OO,layer6-8,0.0,98.0,98.0,98.0,,,,,,,,,571.9546407859889,None,4.0,5.157239060965367,571.9546407859889,None,571.9546407859889,None,571.9546407859889,None,1,2022_Jun_27_1600,Semantic-hierachy,2021.1.2,
99,Trial # 100,layer6-8_O3_to_T1.jpg,layer6-8/layer6-8_O3_to_T1.jpg,OT,layer6-8,0.0,99.0,99.0,99.0,,,,,,,,,577.7906285260106,None,3.0,1.9928053639596328,577.7906285260106,None,577.7906285260106,None,577.7906285260106,None,1,2022_Jun_27_1600,Semantic-hierachy,2021.1.2,
100,Trial # 101,layer6-8_T1_to_T9.jpg,layer6-8/layer6-8_T1_to_T9.jpg,TT,layer6-8,0.0,100.0,100.0,100.0,,,,,,,,,580.1402473570197,None,4.0,2.33920001599472,580.1402473570197,None,580.1402473570197,None,580.1402473570197,None,1,2022_Jun_27_1600,Semantic-hierachy,2021.1.2,
101,Trial # 102,layer9-17_O12_to_O6.jpg,layer9-17/layer9-17_O12_to_O6.jpg,OO,layer9-17,0.0,101.0,101.0,101.0,,,,,,,,,582.8590870649787,None,2.0,1.688305534014944,582.8590870649787,None,582.8590870649787,None,582.8590870649787,None,1,2022_Jun_27_1600,Semantic-hierachy,2021.1.2,
102,Trial # 103,layer0-5_T4_to_T9.jpg,layer0-5/layer0-5_T4_to_T9.jpg,TT,layer0-5,0.0,102.0,102.0,102.0,,,,,,,,,584.7751696199994,None,1.0,1.648236414999701,584.7751696199994,None,584.7751696199994,None,584.7751696199994,None,1,2022_Jun_27_1600,Semantic-hierachy,2021.1.2,
103,Trial # 104,layer6-8_O10_to_T1.jpg,layer6-8/layer6-8_O10_to_T1.jpg,OT,layer6-8,0.0,103.0,103.0,103.0,,,,,,,,,586.8096499349922,None,3.0,2.0471587540232576,586.8096499349922,None,586.8096499349922,None,586.8096499349922,None,1,2022_Jun_27_1600,Semantic-hierachy,2021.1.2,
104,Trial # 105,layer0-5_O6_to_T2.jpg,layer0-5/layer0-5_O6_to_T2.jpg,OT,layer0-5,0.0,104.0,104.0,104.0,,,,,,,,,589.209885334014,None,1.0,1.7517773699946702,589.209885334014,None,589.209885334014,None,589.209885334014,None,1,2022_Jun_27_1600,Semantic-hierachy,2021.1.2,
105,Trial # 106,layer9-17_T11_to_T2.jpg,layer9-17/layer9-17_T11_to_T2.jpg,TT,layer9-17,0.0,105.0,105.0,105.0,,,,,,,,,591.2771907629794,None,2.0,1.842922423966229,591.2771907629794,None,591.2771907629794,None,591.2771907629794,None,1,2022_Jun_27_1600,Semantic-hierachy,2021.1.2,
106,Trial # 107,layer9-17_O12_to_O8.jpg,layer9-17/layer9-17_O12_to_O8.jpg,OO,layer9-17,0.0,106.0,106.0,106.0,,,,,,,,,593.5278814919875,None,2.0,4.550552491040435,593.5278814919875,None,593.5278814919875,None,593.5278814919875,None,1,2022_Jun_27_1600,Semantic-hierachy,2021.1.2,
107,Trial # 108,layer0-5_T12_to_T3.jpg,layer0-5/layer0-5_T12_to_T3.jpg,TT,layer0-5,0.0,107.0,107.0,107.0,,,,,,,,,598.3806248289766,None,1.0,2.4359940940048546,598.3806248289766,None,598.3806248289766,None,598.3806248289766,None,1,2022_Jun_27_1600,Semantic-hierachy,2021.1.2,
108,Trial # 109,layer0-5_T1_to_T10.jpg,layer0-5/layer0-5_T1_to_T10.jpg,TT,layer0-5,0.0,108.0,108.0,108.0,,,,,,,,,601.1800244189799,None,1.0,3.0983955289702863,601.1800244189799,None,601.1800244189799,None,601.1800244189799,None,1,2022_Jun_27_1600,Semantic-hierachy,2021.1.2,
109,Trial # 110,layer6-8_O4_to_T5.jpg,layer6-8/layer6-8_O4_to_T5.jpg,OT,layer6-8,0.0,109.0,109.0,109.0,,,,,,,,,604.6814052180271,None,3.0,2.011928337975405,604.6814052180271,None,604.6814052180271,None,604.6814052180271,None,1,2022_Jun_27_1600,Semantic-hierachy,2021.1.2,
110,Trial # 111,layer9-17_O11_to_O7.jpg,layer9-17/layer9-17_O11_to_O7.jpg,OO,layer9-17,0.0,110.0,110.0,110.0,,,,,,,,,606.9991101379856,None,2.0,5.53440592699917,606.9991101379856,None,606.9991101379856,None,606.9991101379856,None,1,2022_Jun_27_1600,Semantic-hierachy,2021.1.2,
111,Trial # 112,layer0-5_O5_to_O8.jpg,layer0-5/layer0-5_O5_to_O8.jpg,OO,layer0-5,0.0,111.0,111.0,111.0,,,,,,,,,613.3349661119864,None,1.0,1.5461765250074675,613.3349661119864,None,613.3349661119864,None,613.3349661119864,None,1,2022_Jun_27_1600,Semantic-hierachy,2021.1.2,
112,Trial # 113,layer0-5_O10_to_O4.jpg,layer0-5/layer0-5_O10_to_O4.jpg,OO,layer0-5,0.0,112.0,112.0,112.0,,,,,,,,,615.2015259389882,None,1.0,1.6573657229891978,615.2015259389882,None,615.2015259389882,None,615.2015259389882,None,1,2022_Jun_27_1600,Semantic-hierachy,2021.1.2,
113,Trial # 114,layer9-17_O4_to_O8.jpg,layer9-17/layer9-17_O4_to_O8.jpg,OO,layer9-17,0.0,113.0,113.0,113.0,,,,,,,,,617.0697471299791,None,2.0,3.3565430900198407,617.0697471299791,None,617.0697471299791,None,617.0697471299791,None,1,2022_Jun_27_1600,Semantic-hierachy,2021.1.2,
114,Trial # 115,layer0-5_O2_to_T8.jpg,layer0-5/layer0-5_O2_to_T8.jpg,OT,layer0-5,0.0,114.0,114.0,114.0,,,,,,,,,620.6363084259792,None,1.0,1.7616433800430968,620.6363084259792,None,620.6363084259792,None,620.6363084259792,None,1,2022_Jun_27_1600,Semantic-hierachy,2021.1.2,
115,Trial # 116,layer9-17_T2_to_T3.jpg,layer9-17/layer9-17_T2_to_T3.jpg,TT,layer9-17,0.0,115.0,115.0,115.0,,,,,,,,,622.6713223750121,None,2.0,1.7648788940277882,622.6713223750121,None,622.6713223750121,None,622.6713223750121,None,1,2022_Jun_27_1600,Semantic-hierachy,2021.1.2,
116,Trial # 117,layer6-8_O1_to_T10.jpg,layer6-8/layer6-8_O1_to_T10.jpg,OT,layer6-8,0.0,116.0,116.0,116.0,,,,,,,,,624.655210225028,None,3.0,1.7445696049835533,624.655210225028,None,624.655210225028,None,624.655210225028,None,1,2022_Jun_27_1600,Semantic-hierachy,2021.1.2,
117,Trial # 118,layer0-5_T3_to_T7.jpg,layer0-5/layer0-5_T3_to_T7.jpg,TT,layer0-5,0.0,117.0,117.0,117.0,,,,,,,,,626.7044899450266,None,1.0,1.69427897001151,626.7044899450266,None,626.7044899450266,None,626.7044899450266,None,1,2022_Jun_27_1600,Semantic-hierachy,2021.1.2,
118,Trial # 119,layer9-17_O1_to_O12.jpg,layer9-17/layer9-17_O1_to_O12.jpg,OO,layer9-17,0.0,118.0,118.0,118.0,,,,,,,,,628.7222829730017,None,2.0,2.4579806940164417,628.7222829730017,None,628.7222829730017,None,628.7222829730017,None,1,2022_Jun_27_1600,Semantic-hierachy,2021.1.2,
119,Trial # 120,layer6-8_O12_to_O2.jpg,layer6-8/layer6-8_O12_to_O2.jpg,OO,layer6-8,0.0,119.0,119.0,119.0,,,,,,,,,631.655933699978,None,3.0,2.583311399037484,631.655933699978,None,631.655933699978,None,631.655933699978,None,1,2022_Jun_27_1600,Semantic-hierachy,2021.1.2,
120,Trial # 121,layer9-17_O10_to_O9.jpg,layer9-17/layer9-17_O10_to_O9.jpg,OO,layer9-17,0.0,120.0,120.0,120.0,,,,,,,,,634.5570746529847,None,2.0,1.6258729940163903,634.5570746529847,None,634.5570746529847,None,634.5570746529847,None,1,2022_Jun_27_1600,Semantic-hierachy,2021.1.2,
121,Trial # 122,layer6-8_O4_to_T10.jpg,layer6-8/layer6-8_O4_to_T10.jpg,OT,layer6-8,0.0,121.0,121.0,121.0,,,,,,,,,636.508312756021,None,3.0,2.2693441240116954,636.508312756021,None,636.508312756021,None,636.508312756021,None,1,2022_Jun_27_1600,Semantic-hierachy,2021.1.2,
122,Trial # 123,layer6-8_O2_to_T3.jpg,layer6-8/layer6-8_O2_to_T3.jpg,OT,layer6-8,0.0,122.0,122.0,122.0,,,,,,,,,639.1918348050094,None,3.0,1.4549097510171125,639.1918348050094,None,639.1918348050094,None,639.1918348050094,None,1,2022_Jun_27_1600,Semantic-hierachy,2021.1.2,
123,Trial # 124,layer0-5_O1_to_O7.jpg,layer0-5/layer0-5_O1_to_O7.jpg,OO,layer0-5,0.0,123.0,123.0,123.0,,,,,,,,,640.9261949590291,None,1.0,1.5834677740349434,640.9261949590291,None,640.9261949590291,None,640.9261949590291,None,1,2022_Jun_27_1600,Semantic-hierachy,2021.1.2,
124,Trial # 125,layer0-5_T8_to_T9.jpg,layer0-5/layer0-5_T8_to_T9.jpg,TT,layer0-5,0.0,124.0,124.0,124.0,,,,,,,,,642.8600052230177,None,1.0,1.70969512098236,642.8600052230177,None,642.8600052230177,None,642.8600052230177,None,1,2022_Jun_27_1600,Semantic-hierachy,2021.1.2,
125,Trial # 126,layer0-5_O12_to_T8.jpg,layer0-5/layer0-5_O12_to_T8.jpg,OT,layer0-5,0.0,125.0,125.0,125.0,,,,,,,,,645.177140357031,None,1.0,1.343384189007338,645.177140357031,None,645.177140357031,None,645.177140357031,None,1,2022_Jun_27_1600,Semantic-hierachy,2021.1.2,
126,Trial # 127,layer9-17_O4_to_O6.jpg,layer9-17/layer9-17_O4_to_O6.jpg,OO,layer9-17,0.0,126.0,126.0,126.0,,,,,,,,,646.8790233950131,None,2.0,3.031242724042386,646.8790233950131,None,646.8790233950131,None,646.8790233950131,None,1,2022_Jun_27_1600,Semantic-hierachy,2021.1.2,
127,Trial # 128,layer6-8_O12_to_O6.jpg,layer6-8/layer6-8_O12_to_O6.jpg,OO,layer6-8,0.0,127.0,127.0,127.0,,,,,,,,,650.245243731013,None,3.0,2.602202634967398,650.245243731013,None,650.245243731013,None,650.245243731013,None,1,2022_Jun_27_1600,Semantic-hierachy,2021.1.2,
128,Trial # 129,layer0-5_T4_to_T6.jpg,layer0-5/layer0-5_T4_to_T6.jpg,TT,layer0-5,0.0,128.0,128.0,128.0,,,,,,,,,653.1810495930258,None,1.0,3.028668904968072,653.1810495930258,None,653.1810495930258,None,653.1810495930258,None,1,2022_Jun_27_1600,Semantic-hierachy,2021.1.2,
129,Trial # 130,layer9-17_O1_to_O3.jpg,layer9-17/layer9-17_O1_to_O3.jpg,OO,layer9-17,0.0,129.0,129.0,129.0,,,,,,,,,656.4806458129897,None,2.0,2.62927730800584,656.4806458129897,None,656.4806458129897,None,656.4806458129897,None,1,2022_Jun_27_1600,Semantic-hierachy,2021.1.2,
130,Trial # 131,layer9-17_O10_to_O3.jpg,layer9-17/layer9-17_O10_to_O3.jpg,OO,layer9-17,0.0,130.0,130.0,130.0,,,,,,,,,659.448553655995,None,2.0,1.709036677959375,659.448553655995,None,659.448553655995,None,659.448553655995,None,1,2022_Jun_27_1600,Semantic-hierachy,2021.1.2,
131,Trial # 132,layer9-17_O12_to_O3.jpg,layer9-17/layer9-17_O12_to_O3.jpg,OO,layer9-17,0.0,131.0,131.0,131.0,,,,,,,,,661.4986877160263,None,2.0,1.0676990279462188,661.4986877160263,None,661.4986877160263,None,661.4986877160263,None,1,2022_Jun_27_1600,Semantic-hierachy,2021.1.2,
132,Trial # 133,layer9-17_O11_to_O4.jpg,layer9-17/layer9-17_O11_to_O4.jpg,OO,layer9-17,0.0,132.0,132.0,132.0,,,,,,,,,662.9003122809809,None,2.0,3.984303107950837,662.9003122809809,None,662.9003122809809,None,662.9003122809809,None,1,2022_Jun_27_1600,Semantic-hierachy,2021.1.2,
133,Trial # 134,layer9-17_T4_to_T7.jpg,layer9-17/layer9-17_T4_to_T7.jpg,TT,layer9-17,0.0,133.0,133.0,133.0,,,,,,,,,667.1349164050189,None,2.0,1.0987131599686109,667.1349164050189,None,667.1349164050189,None,667.1349164050189,None,1,2022_Jun_27_1600,Semantic-hierachy,2021.1.2,
134,Trial # 135,layer9-17_O1_to_T1.jpg,layer9-17/layer9-17_O1_to_T1.jpg,OT,layer9-17,0.0,134.0,134.0,134.0,,,,,,,,,668.4690073620295,None,2.0,1.158157138037495,668.4690073620295,None,668.4690073620295,None,668.4690073620295,None,1,2022_Jun_27_1600,Semantic-hierachy,2021.1.2,
135,Trial # 136,layer6-8_T2_to_T5.jpg,layer6-8/layer6-8_T2_to_T5.jpg,TT,layer6-8,0.0,135.0,135.0,135.0,,,,,,,,,671.2353082710179,None,3.0,6.313801455020439,671.2353082710179,None,671.2353082710179,None,671.2353082710179,None,1,2022_Jun_27_1600,Semantic-hierachy,2021.1.2,
136,Trial # 137,layer9-17_T11_to_T7.jpg,layer9-17/layer9-17_T11_to_T7.jpg,TT,layer9-17,0.0,136.0,136.0,136.0,,,,,,,,,679.7381952549913,None,2.0,1.5124955280334689,679.7381952549913,None,679.7381952549913,None,679.7381952549913,None,1,2022_Jun_27_1600,Semantic-hierachy,2021.1.2,
137,Trial # 138,layer6-8_O3_to_O8.jpg,layer6-8/layer6-8_O3_to_O8.jpg,OO,layer6-8,0.0,137.0,137.0,137.0,,,,,,,,,681.5716040889965,None,4.0,3.9326459519797936,681.5716040889965,None,681.5716040889965,None,681.5716040889965,None,1,2022_Jun_27_1600,Semantic-hierachy,2021.1.2,
138,Trial # 139,layer6-8_O1_to_T7.jpg,layer6-8/layer6-8_O1_to_T7.jpg,OT,layer6-8,0.0,138.0,138.0,138.0,,,,,,,,,685.8730005759862,None,3.0,3.930732214008458,685.8730005759862,None,685.8730005759862,None,685.8730005759862,None,1,2022_Jun_27_1600,Semantic-hierachy,2021.1.2,
139,Trial # 140,layer9-17_T1_to_T3.jpg,layer9-17/layer9-17_T1_to_T3.jpg,TT,layer9-17,0.0,139.0,139.0,139.0,,,,,,,,,690.0577462540241,None,2.0,4.871862931002397,690.0577462540241,None,690.0577462540241,None,690.0577462540241,None,1,2022_Jun_27_1600,Semantic-hierachy,2021.1.2,
140,Trial # 141,layer6-8_O10_to_O12.jpg,layer6-8/layer6-8_O10_to_O12.jpg,OO,layer6-8,0.0,140.0,140.0,140.0,,,,,,,,,695.175795919029,None,4.0,3.253629148995969,695.175795919029,None,695.175795919029,None,695.175795919029,None,1,2022_Jun_27_1600,Semantic-hierachy,2021.1.2,
141,Trial # 142,layer6-8_O12_to_T11.jpg,layer6-8/layer6-8_O12_to_T11.jpg,OT,layer6-8,0.0,141.0,141.0,141.0,,,,,,,,,698.6603539549978,None,3.0,12.250745283963624,698.6603539549978,None,698.6603539549978,None,698.6603539549978,None,1,2022_Jun_27_1600,Semantic-hierachy,2021.1.2,
142,Trial # 143,layer0-5_O11_to_O5.jpg,layer0-5/layer0-5_O11_to_O5.jpg,OO,layer0-5,0.0,142.0,142.0,142.0,,,,,,,,,711.2472689620336,None,1.0,2.0048788330168463,711.2472689620336,None,711.2472689620336,None,711.2472689620336,None,1,2022_Jun_27_1600,Semantic-hierachy,2021.1.2,
143,Trial # 144,layer6-8_O1_to_O8.jpg,layer6-8/layer6-8_O1_to_O8.jpg,OO,layer6-8,0.0,143.0,143.0,143.0,,,,,,,,,713.5495524069993,None,2.0,1.3424317489843816,713.5495524069993,None,713.5495524069993,None,713.5495524069993,None,1,2022_Jun_27_1600,Semantic-hierachy,2021.1.2,
144,Trial # 145,layer0-5_T2_to_T5.jpg,layer0-5/layer0-5_T2_to_T5.jpg,TT,layer0-5,0.0,144.0,144.0,144.0,,,,,,,,,715.2986533479998,None,1.0,2.978741842962336,715.2986533479998,None,715.2986533479998,None,715.2986533479998,None,1,2022_Jun_27_1600,Semantic-hierachy,2021.1.2,
145,Trial # 146,layer9-17_O8_to_T3.jpg,layer9-17/layer9-17_O8_to_T3.jpg,OT,layer9-17,0.0,145.0,145.0,145.0,,,,,,,,,718.5843321870198,None,2.0,1.4429290759726427,718.5843321870198,None,718.5843321870198,None,718.5843321870198,None,1,2022_Jun_27_1600,Semantic-hierachy,2021.1.2,
146,Trial # 147,layer9-17_O8_to_T4.jpg,layer9-17/layer9-17_O8_to_T4.jpg,OT,layer9-17,0.0,146.0,146.0,146.0,,,,,,,,,720.3338320450275,None,3.0,3.586334577004891,720.3338320450275,None,720.3338320450275,None,720.3338320450275,None,1,2022_Jun_27_1600,Semantic-hierachy,2021.1.2,
147,Trial # 148,layer9-17_O4_to_T9.jpg,layer9-17/layer9-17_O4_to_T9.jpg,OT,layer9-17,0.0,147.0,147.0,147.0,,,,,,,,,724.2516108460259,None,2.0,3.159069921995979,724.2516108460259,None,724.2516108460259,None,724.2516108460259,None,1,2022_Jun_27_1600,Semantic-hierachy,2021.1.2,
148,Trial # 149,layer6-8_O4_to_O8.jpg,layer6-8/layer6-8_O4_to_O8.jpg,OO,layer6-8,0.0,148.0,148.0,148.0,,,,,,,,,727.753920852032,None,3.0,3.808314094960224,727.753920852032,None,727.753920852032,None,727.753920852032,None,1,2022_Jun_27_1600,Semantic-hierachy,2021.1.2,
149,Trial # 150,layer0-5_O12_to_T7.jpg,layer0-5/layer0-5_O12_to_T7.jpg,OT,layer0-5,0.0,149.0,149.0,149.0,,,,,,,,,731.8718746129889,None,1.0,1.6843835409963503,731.8718746129889,None,731.8718746129889,None,731.8718746129889,None,1,2022_Jun_27_1600,Semantic-hierachy,2021.1.2,
150,Trial # 151,layer6-8_T1_to_T3.jpg,layer6-8/layer6-8_T1_to_T3.jpg,TT,layer6-8,,,,,0.0,0.0,0.0,0.0,,,,,736.1225176089793,None,4.0,4.204905582999345,736.1225176089793,None,736.1225176089793,None,736.1225176089793,None,1,2022_Jun_27_1600,Semantic-hierachy,2021.1.2,
151,Trial # 152,layer0-5_O8_to_O9.jpg,layer0-5/layer0-5_O8_to_O9.jpg,OO,layer0-5,,,,,0.0,1.0,1.0,1.0,,,,,741.2905897389865,None,1.0,2.946139875042718,741.2905897389865,None,741.2905897389865,None,741.2905897389865,None,1,2022_Jun_27_1600,Semantic-hierachy,2021.1.2,
152,Trial # 153,layer9-17_T1_to_T5.jpg,layer9-17/layer9-17_T1_to_T5.jpg,TT,layer9-17,,,,,0.0,2.0,2.0,2.0,,,,,744.5245906800264,None,2.0,1.6588112780009396,744.5245906800264,None,744.5245906800264,None,744.5245906800264,None,1,2022_Jun_27_1600,Semantic-hierachy,2021.1.2,
153,Trial # 154,layer6-8_T7_to_T9.jpg,layer6-8/layer6-8_T7_to_T9.jpg,TT,layer6-8,,,,,0.0,3.0,3.0,3.0,,,,,746.4916213329998,None,2.0,2.6942473420058377,746.4916213329998,None,746.4916213329998,None,746.4916213329998,None,1,2022_Jun_27_1600,Semantic-hierachy,2021.1.2,
154,Trial # 155,layer9-17_T12_to_T7.jpg,layer9-17/layer9-17_T12_to_T7.jpg,TT,layer9-17,,,,,0.0,4.0,4.0,4.0,,,,,751.2262036519824,None,2.0,1.2744821450323798,751.2262036519824,None,751.2262036519824,None,751.2262036519824,None,1,2022_Jun_27_1600,Semantic-hierachy,2021.1.2,
155,Trial # 156,layer0-5_O8_to_T11.jpg,layer0-5/layer0-5_O8_to_T11.jpg,OT,layer0-5,,,,,0.0,5.0,5.0,5.0,,,,,752.7282935050316,None,1.0,1.4094631469924934,752.7282935050316,None,752.7282935050316,None,752.7282935050316,None,1,2022_Jun_27_1600,Semantic-hierachy,2021.1.2,
156,Trial # 157,layer0-5_O1_to_O9.jpg,layer0-5/layer0-5_O1_to_O9.jpg,OO,layer0-5,,,,,0.0,6.0,6.0,6.0,,,,,754.4609879780328,None,1.0,1.2551173090469092,754.4609879780328,None,754.4609879780328,None,754.4609879780328,None,1,2022_Jun_27_1600,Semantic-hierachy,2021.1.2,
157,Trial # 158,layer0-5_O10_to_O12.jpg,layer0-5/layer0-5_O10_to_O12.jpg,OO,layer0-5,,,,,0.0,7.0,7.0,7.0,,,,,756.0446635480039,None,1.0,1.8334340199944563,756.0446635480039,None,756.0446635480039,None,756.0446635480039,None,1,2022_Jun_27_1600,Semantic-hierachy,2021.1.2,
158,Trial # 159,layer6-8_O10_to_T5.jpg,layer6-8/layer6-8_O10_to_T5.jpg,OT,layer6-8,,,,,0.0,8.0,8.0,8.0,,,,,758.1634644700098,None,3.0,3.613271663023625,758.1634644700098,None,758.1634644700098,None,758.1634644700098,None,1,2022_Jun_27_1600,Semantic-hierachy,2021.1.2,
159,Trial # 160,layer6-8_O5_to_O6.jpg,layer6-8/layer6-8_O5_to_O6.jpg,OO,layer6-8,,,,,0.0,9.0,9.0,9.0,,,,,762.1144675129908,None,2.0,2.2529921929817647,762.1144675129908,None,762.1144675129908,None,762.1144675129908,None,1,2022_Jun_27_1600,Semantic-hierachy,2021.1.2,
160,Trial # 161,layer6-8_O6_to_T11.jpg,layer6-8/layer6-8_O6_to_T11.jpg,OT,layer6-8,,,,,0.0,10.0,10.0,10.0,,,,,764.6141093029873,None,2.0,1.4295586529769937,764.6141093029873,None,764.6141093029873,None,764.6141093029873,None,1,2022_Jun_27_1600,Semantic-hierachy,2021.1.2,
161,Trial # 162,layer9-17_O12_to_O9.jpg,layer9-17/layer9-17_O12_to_O9.jpg,OO,layer9-17,,,,,0.0,11.0,11.0,11.0,,,,,766.2978400239954,None,2.0,3.750029190967325,766.2978400239954,None,766.2978400239954,None,766.2978400239954,None,1,2022_Jun_27_1600,Semantic-hierachy,2021.1.2,
162,Trial # 163,layer6-8_O12_to_T6.jpg,layer6-8/layer6-8_O12_to_T6.jpg,OT,layer6-8,,,,,0.0,12.0,12.0,12.0,,,,,770.8826954999822,None,4.0,2.267417368013412,770.8826954999822,None,770.8826954999822,None,770.8826954999822,None,1,2022_Jun_27_1600,Semantic-hierachy,2021.1.2,
163,Trial # 164,layer0-5_T11_to_T7.jpg,layer0-5/layer0-5_T11_to_T7.jpg,TT,layer0-5,,,,,0.0,13.0,13.0,13.0,,,,,773.418206524977,None,1.0,6.134344620979391,773.418206524977,None,773.418206524977,None,773.418206524977,None,1,2022_Jun_27_1600,Semantic-hierachy,2021.1.2,
164,Trial # 165,layer9-17_O10_to_T5.jpg,layer9-17/layer9-17_O10_to_T5.jpg,OT,layer9-17,,,,,0.0,14.0,14.0,14.0,,,,,779.952154631028,None,3.0,10.980506032996344,779.952154631028,None,779.952154631028,None,779.952154631028,None,1,2022_Jun_27_1600,Semantic-hierachy,2021.1.2,
165,Trial # 166,layer9-17_T1_to_T6.jpg,layer9-17/layer9-17_T1_to_T6.jpg,TT,layer9-17,,,,,0.0,15.0,15.0,15.0,,,,,791.2054911790183,None,2.0,1.4012426090193912,791.2054911790183,None,791.2054911790183,None,791.2054911790183,None,1,2022_Jun_27_1600,Semantic-hierachy,2021.1.2,
166,Trial # 167,layer0-5_T1_to_T3.jpg,layer0-5/layer0-5_T1_to_T3.jpg,TT,layer0-5,,,,,0.0,16.0,16.0,16.0,,,,,792.9071512320079,None,1.0,1.5413128919899464,792.9071512320079,None,792.9071512320079,None,792.9071512320079,None,1,2022_Jun_27_1600,Semantic-hierachy,2021.1.2,
167,Trial # 168,layer0-5_O2_to_O9.jpg,layer0-5/layer0-5_O2_to_O9.jpg,OO,layer0-5,,,,,0.0,17.0,17.0,17.0,,,,,794.8067719779792,None,1.0,1.397681188012939,794.8067719779792,None,794.8067719779792,None,794.8067719779792,None,1,2022_Jun_27_1600,Semantic-hierachy,2021.1.2,
168,Trial # 169,layer9-17_O3_to_T4.jpg,layer9-17/layer9-17_O3_to_T4.jpg,OT,layer9-17,,,,,0.0,18.0,18.0,18.0,,,,,796.5409362260252,None,2.0,1.7607978719752282,796.5409362260252,None,796.5409362260252,None,796.5409362260252,None,1,2022_Jun_27_1600,Semantic-hierachy,2021.1.2,
169,Trial # 170,layer6-8_O11_to_O9.jpg,layer6-8/layer6-8_O11_to_O9.jpg,OO,layer6-8,,,,,0.0,19.0,19.0,19.0,,,,,798.9913286420051,None,3.0,1.91174280596897,798.9913286420051,None,798.9913286420051,None,798.9913286420051,None,1,2022_Jun_27_1600,Semantic-hierachy,2021.1.2,
170,Trial # 171,layer9-17_O1_to_O7.jpg,layer9-17/layer9-17_O1_to_O7.jpg,OO,layer9-17,,,,,0.0,20.0,20.0,20.0,,,,,801.2257036800147,None,2.0,6.826790218008682,801.2257036800147,None,801.2257036800147,None,801.2257036800147,None,1,2022_Jun_27_1600,Semantic-hierachy,2021.1.2,
171,Trial # 172,layer0-5_T12_to_T4.jpg,layer0-5/layer0-5_T12_to_T4.jpg,TT,layer0-5,,,,,0.0,21.0,21.0,21.0,,,,,808.9778408529819,None,1.0,2.960428003047128,808.9778408529819,None,808.9778408529819,None,808.9778408529819,None,1,2022_Jun_27_1600,Semantic-hierachy,2021.1.2,
172,Trial # 173,layer0-5_O4_to_T4.jpg,layer0-5/layer0-5_O4_to_T4.jpg,OT,layer0-5,,,,,0.0,22.0,22.0,22.0,,,,,812.5291219530045,None,1.0,2.9144413000321947,812.5291219530045,None,812.5291219530045,None,812.5291219530045,None,1,2022_Jun_27_1600,Semantic-hierachy,2021.1.2,
173,Trial # 174,layer6-8_T12_to_T5.jpg,layer6-8/layer6-8_T12_to_T5.jpg,TT,layer6-8,,,,,0.0,23.0,23.0,23.0,,,,,815.896614370984,None,3.0,11.149997717991935,815.896614370984,None,815.896614370984,None,815.896614370984,None,1,2022_Jun_27_1600,Semantic-hierachy,2021.1.2,
174,Trial # 175,layer6-8_O11_to_T1.jpg,layer6-8/layer6-8_O11_to_T1.jpg,OT,layer6-8,,,,,0.0,24.0,24.0,24.0,,,,,827.4671705809887,None,2.0,3.8774277169723055,827.4671705809887,None,827.4671705809887,None,827.4671705809887,None,1,2022_Jun_27_1600,Semantic-hierachy,2021.1.2,
175,Trial # 176,layer0-5_O7_to_T8.jpg,layer0-5/layer0-5_O7_to_T8.jpg,OT,layer0-5,,,,,0.0,25.0,25.0,25.0,,,,,831.9026848810026,None,1.0,2.8022898750496097,831.9026848810026,None,831.9026848810026,None,831.9026848810026,None,1,2022_Jun_27_1600,Semantic-hierachy,2021.1.2,
176,Trial # 177,layer0-5_O11_to_T5.jpg,layer0-5/layer0-5_O11_to_T5.jpg,OT,layer0-5,,,,,0.0,26.0,26.0,26.0,,,,,835.0192617590073,None,1.0,1.296309094002936,835.0192617590073,None,835.0192617590073,None,835.0192617590073,None,1,2022_Jun_27_1600,Semantic-hierachy,2021.1.2,
177,Trial # 178,layer9-17_O2_to_T2.jpg,layer9-17/layer9-17_O2_to_T2.jpg,OT,layer9-17,,,,,0.0,27.0,27.0,27.0,,,,,836.7024543830194,None,4.0,2.8908856000052765,836.7024543830194,None,836.7024543830194,None,836.7024543830194,None,1,2022_Jun_27_1600,Semantic-hierachy,2021.1.2,
178,Trial # 179,layer0-5_O4_to_T9.jpg,layer0-5/layer0-5_O4_to_T9.jpg,OT,layer0-5,,,,,0.0,28.0,28.0,28.0,,,,,839.8705958559876,None,1.0,1.4905784080037847,839.8705958559876,None,839.8705958559876,None,839.8705958559876,None,1,2022_Jun_27_1600,Semantic-hierachy,2021.1.2,
179,Trial # 180,layer9-17_T6_to_T8.jpg,layer9-17/layer9-17_T6_to_T8.jpg,TT,layer9-17,,,,,0.0,29.0,29.0,29.0,,,,,841.737417226017,None,2.0,1.5997113789780997,841.737417226017,None,841.737417226017,None,841.737417226017,None,1,2022_Jun_27_1600,Semantic-hierachy,2021.1.2,
180,Trial # 181,layer9-17_O12_to_O5.jpg,layer9-17/layer9-17_O12_to_O5.jpg,OO,layer9-17,,,,,0.0,30.0,30.0,30.0,,,,,843.6565165559878,None,2.0,1.0804189600166865,843.6565165559878,None,843.6565165559878,None,843.6565165559878,None,1,2022_Jun_27_1600,Semantic-hierachy,2021.1.2,
181,Trial # 182,layer6-8_O1_to_O7.jpg,layer6-8/layer6-8_O1_to_O7.jpg,OO,layer6-8,,,,,0.0,31.0,31.0,31.0,,,,,845.0392340780236,None,4.0,1.7990748670417815,845.0392340780236,None,845.0392340780236,None,845.0392340780236,None,1,2022_Jun_27_1600,Semantic-hierachy,2021.1.2,
182,Trial # 183,layer6-8_O3_to_T10.jpg,layer6-8/layer6-8_O3_to_T10.jpg,OT,layer6-8,,,,,0.0,32.0,32.0,32.0,,,,,847.1070611979812,None,3.0,1.8629364729858933,847.1070611979812,None,847.1070611979812,None,847.1070611979812,None,1,2022_Jun_27_1600,Semantic-hierachy,2021.1.2,
183,Trial # 184,layer0-5_O1_to_T11.jpg,layer0-5/layer0-5_O1_to_T11.jpg,OT,layer0-5,,,,,0.0,33.0,33.0,33.0,,,,,849.2735590190277,None,1.0,1.5945405410020612,849.2735590190277,None,849.2735590190277,None,849.2735590190277,None,1,2022_Jun_27_1600,Semantic-hierachy,2021.1.2,
184,Trial # 185,layer6-8_O8_to_O9.jpg,layer6-8/layer6-8_O8_to_O9.jpg,OO,layer6-8,,,,,0.0,34.0,34.0,34.0,,,,,851.1571986140334,None,2.0,2.129653204989154,851.1571986140334,None,851.1571986140334,None,851.1571986140334,None,1,2022_Jun_27_1600,Semantic-hierachy,2021.1.2,
185,Trial # 186,layer9-17_O4_to_O9.jpg,layer9-17/layer9-17_O4_to_O9.jpg,OO,layer9-17,,,,,0.0,35.0,35.0,35.0,,,,,853.6094798510312,None,4.0,3.825234663032461,853.6094798510312,None,853.6094798510312,None,853.6094798510312,None,1,2022_Jun_27_1600,Semantic-hierachy,2021.1.2,
186,Trial # 187,layer0-5_O12_to_O5.jpg,layer0-5/layer0-5_O12_to_O5.jpg,OO,layer0-5,,,,,0.0,36.0,36.0,36.0,,,,,860.6268778709928,None,1.0,2.249854808964301,860.6268778709928,None,860.6268778709928,None,860.6268778709928,None,1,2022_Jun_27_1600,Semantic-hierachy,2021.1.2,
187,Trial # 188,layer6-8_T12_to_T4.jpg,layer6-8/layer6-8_T12_to_T4.jpg,TT,layer6-8,,,,,0.0,37.0,37.0,37.0,,,,,863.1790768339997,None,2.0,11.676894223957788,863.1790768339997,None,863.1790768339997,None,863.1790768339997,None,1,2022_Jun_27_1600,Semantic-hierachy,2021.1.2,
188,Trial # 189,layer0-5_T6_to_T8.jpg,layer0-5/layer0-5_T6_to_T8.jpg,TT,layer0-5,,,,,0.0,38.0,38.0,38.0,,,,,875.1815287399804,None,1.0,1.6463658529683016,875.1815287399804,None,875.1815287399804,None,875.1815287399804,None,1,2022_Jun_27_1600,Semantic-hierachy,2021.1.2,
189,Trial # 190,layer6-8_O11_to_T2.jpg,layer6-8/layer6-8_O11_to_T2.jpg,OT,layer6-8,,,,,0.0,39.0,39.0,39.0,,,,,877.3667558549787,None,2.0,7.740922636992764,877.3667558549787,None,877.3667558549787,None,877.3667558549787,None,1,2022_Jun_27_1600,Semantic-hierachy,2021.1.2,
190,Trial # 191,layer6-8_O1_to_O3.jpg,layer6-8/layer6-8_O1_to_O3.jpg,OO,layer6-8,,,,,0.0,40.0,40.0,40.0,,,,,885.334763816034,None,4.0,6.02898385503795,885.334763816034,None,885.334763816034,None,885.334763816034,None,1,2022_Jun_27_1600,Semantic-hierachy,2021.1.2,
191,Trial # 192,layer0-5_O7_to_T1.jpg,layer0-5/layer0-5_O7_to_T1.jpg,OT,layer0-5,,,,,0.0,41.0,41.0,41.0,,,,,893.1213297779905,None,1.0,1.8140174719737845,893.1213297779905,None,893.1213297779905,None,893.1213297779905,None,1,2022_Jun_27_1600,Semantic-hierachy,2021.1.2,
192,Trial # 193,layer6-8_O3_to_T7.jpg,layer6-8/layer6-8_O3_to_T7.jpg,OT,layer6-8,,,,,0.0,42.0,42.0,42.0,,,,,895.1719777410035,None,3.0,2.009678217000328,895.1719777410035,None,895.1719777410035,None,895.1719777410035,None,1,2022_Jun_27_1600,Semantic-hierachy,2021.1.2,
193,Trial # 194,layer9-17_T10_to_T6.jpg,layer9-17/layer9-17_T10_to_T6.jpg,TT,layer9-17,,,,,0.0,43.0,43.0,43.0,,,,,897.3729390809895,None,2.0,1.6564390300191008,897.3729390809895,None,897.3729390809895,None,897.3729390809895,None,1,2022_Jun_27_1600,Semantic-hierachy,2021.1.2,
194,Trial # 195,layer6-8_T2_to_T9.jpg,layer6-8/layer6-8_T2_to_T9.jpg,TT,layer6-8,,,,,0.0,44.0,44.0,44.0,,,,,899.2890765719931,None,4.0,3.2523534459760413,899.2890765719931,None,899.2890765719931,None,899.2890765719931,None,1,2022_Jun_27_1600,Semantic-hierachy,2021.1.2,
195,Trial # 196,layer0-5_O3_to_T3.jpg,layer0-5/layer0-5_O3_to_T3.jpg,OT,layer0-5,,,,,0.0,45.0,45.0,45.0,,,,,902.8740558120188,None,4.0,4.728322473005392,902.8740558120188,None,902.8740558120188,None,902.8740558120188,None,1,2022_Jun_27_1600,Semantic-hierachy,2021.1.2,
196,Trial # 197,layer9-17_O1_to_O2.jpg,layer9-17/layer9-17_O1_to_O2.jpg,OO,layer9-17,,,,,0.0,46.0,46.0,46.0,,,,,908.1095419580232,None,2.0,11.683489950024525,908.1095419580232,None,908.1095419580232,None,908.1095419580232,None,1,2022_Jun_27_1600,Semantic-hierachy,2021.1.2,
197,Trial # 198,layer9-17_T2_to_T9.jpg,layer9-17/layer9-17_T2_to_T9.jpg,TT,layer9-17,,,,,0.0,47.0,47.0,47.0,,,,,921.6960999239818,None,2.0,1.7058307099505328,921.6960999239818,None,921.6960999239818,None,921.6960999239818,None,1,2022_Jun_27_1600,Semantic-hierachy,2021.1.2,
198,Trial # 199,layer9-17_O6_to_T10.jpg,layer9-17/layer9-17_O6_to_T10.jpg,OT,layer9-17,,,,,0.0,48.0,48.0,48.0,,,,,923.681279479002,None,2.0,1.4437868550303392,923.681279479002,None,923.681279479002,None,923.681279479002,None,1,2022_Jun_27_1600,Semantic-hierachy,2021.1.2,
199,Trial # 200,layer0-5_T12_to_T5.jpg,layer0-5/layer0-5_T12_to_T5.jpg,TT,layer0-5,,,,,0.0,49.0,49.0,49.0,,,,,925.3302568080252,None,1.0,1.5917335349950008,925.3302568080252,None,925.3302568080252,None,925.3302568080252,None,1,2022_Jun_27_1600,Semantic-hierachy,2021.1.2,
200,Trial # 201,layer0-5_O10_to_T10.jpg,layer0-5/layer0-5_O10_to_T10.jpg,OT,layer0-5,,,,,0.0,50.0,50.0,50.0,,,,,927.1821622549904,None,1.0,1.4115037039737215,927.1821622549904,None,927.1821622549904,None,927.1821622549904,None,1,2022_Jun_27_1600,Semantic-hierachy,2021.1.2,
201,Trial # 202,layer9-17_T11_to_T12.jpg,layer9-17/layer9-17_T11_to_T12.jpg,TT,layer9-17,,,,,0.0,51.0,51.0,51.0,,,,,928.9480912170256,None,2.0,1.801878391997889,928.9480912170256,None,928.9480912170256,None,928.9480912170256,None,1,2022_Jun_27_1600,Semantic-hierachy,2021.1.2,
202,Trial # 203,layer6-8_T3_to_T5.jpg,layer6-8/layer6-8_T3_to_T5.jpg,TT,layer6-8,,,,,0.0,52.0,52.0,52.0,,,,,931.031816689996,None,2.0,1.7866537049994804,931.031816689996,None,931.031816689996,None,931.031816689996,None,1,2022_Jun_27_1600,Semantic-hierachy,2021.1.2,
203,Trial # 204,layer0-5_O5_to_T10.jpg,layer0-5/layer0-5_O5_to_T10.jpg,OT,layer0-5,,,,,0.0,53.0,53.0,53.0,,,,,933.999585737998,None,1.0,2.041841806960292,933.999585737998,None,933.999585737998,None,933.999585737998,None,1,2022_Jun_27_1600,Semantic-hierachy,2021.1.2,
204,Trial # 205,layer0-5_O10_to_O5.jpg,layer0-5/layer0-5_O10_to_O5.jpg,OO,layer0-5,,,,,0.0,54.0,54.0,54.0,,,,,936.3505606760154,None,1.0,1.4304867379833013,936.3505606760154,None,936.3505606760154,None,936.3505606760154,None,1,2022_Jun_27_1600,Semantic-hierachy,2021.1.2,
205,Trial # 206,layer0-5_O5_to_O7.jpg,layer0-5/layer0-5_O5_to_O7.jpg,OO,layer0-5,,,,,0.0,55.0,55.0,55.0,,,,,938.168989925005,None,1.0,1.0865514489705674,938.168989925005,None,938.168989925005,None,938.168989925005,None,1,2022_Jun_27_1600,Semantic-hierachy,2021.1.2,
206,Trial # 207,layer0-5_O3_to_T10.jpg,layer0-5/layer0-5_O3_to_T10.jpg,OT,layer0-5,,,,,0.0,56.0,56.0,56.0,,,,,939.5518007570064,None,4.0,2.374469542002771,939.5518007570064,None,939.5518007570064,None,939.5518007570064,None,1,2022_Jun_27_1600,Semantic-hierachy,2021.1.2,
207,Trial # 208,layer0-5_O4_to_O5.jpg,layer0-5/layer0-5_O4_to_O5.jpg,OO,layer0-5,,,,,0.0,57.0,57.0,57.0,,,,,942.3033728739828,None,1.0,3.4736035649548285,942.3033728739828,None,942.3033728739828,None,942.3033728739828,None,1,2022_Jun_27_1600,Semantic-hierachy,2021.1.2,
208,Trial # 209,layer6-8_T12_to_T3.jpg,layer6-8/layer6-8_T12_to_T3.jpg,TT,layer6-8,,,,,0.0,58.0,58.0,58.0,,,,,946.103498262004,None,2.0,3.513234468991868,946.103498262004,None,946.103498262004,None,946.103498262004,None,1,2022_Jun_27_1600,Semantic-hierachy,2021.1.2,
209,Trial # 210,layer6-8_O7_to_T9.jpg,layer6-8/layer6-8_O7_to_T9.jpg,OT,layer6-8,,,,,0.0,59.0,59.0,59.0,,,,,949.9214411979774,None,3.0,2.560858813987579,949.9214411979774,None,949.9214411979774,None,949.9214411979774,None,1,2022_Jun_27_1600,Semantic-hierachy,2021.1.2,
210,Trial # 211,layer6-8_O1_to_O11.jpg,layer6-8/layer6-8_O1_to_O11.jpg,OO,layer6-8,,,,,0.0,60.0,60.0,60.0,,,,,952.7566627539928,None,2.0,5.923787319974508,952.7566627539928,None,952.7566627539928,None,952.7566627539928,None,1,2022_Jun_27_1600,Semantic-hierachy,2021.1.2,
211,Trial # 212,layer6-8_T2_to_T6.jpg,layer6-8/layer6-8_T2_to_T6.jpg,TT,layer6-8,,,,,0.0,61.0,61.0,61.0,,,,,958.9587628809968,None,4.0,2.223241083032917,958.9587628809968,None,958.9587628809968,None,958.9587628809968,None,1,2022_Jun_27_1600,Semantic-hierachy,2021.1.2,
212,Trial # 213,layer6-8_O10_to_O6.jpg,layer6-8/layer6-8_O10_to_O6.jpg,OO,layer6-8,,,,,0.0,62.0,62.0,62.0,,,,,963.0428038620156,None,3.0,2.2112639879924245,963.0428038620156,None,963.0428038620156,None,963.0428038620156,None,1,2022_Jun_27_1600,Semantic-hierachy,2021.1.2,
213,Trial # 214,layer9-17_T5_to_T8.jpg,layer9-17/layer9-17_T5_to_T8.jpg,TT,layer9-17,,,,,0.0,63.0,63.0,63.0,,,,,965.4759224019944,None,2.0,1.546751560003031,965.4759224019944,None,965.4759224019944,None,965.4759224019944,None,1,2022_Jun_27_1600,Semantic-hierachy,2021.1.2,
214,Trial # 215,layer9-17_O3_to_T10.jpg,layer9-17/layer9-17_O3_to_T10.jpg,OT,layer9-17,,,,,0.0,64.0,64.0,64.0,,,,,967.2778654569992,None,2.0,1.0327706829993986,967.2778654569992,None,967.2778654569992,None,967.2778654569992,None,1,2022_Jun_27_1600,Semantic-hierachy,2021.1.2,
215,Trial # 216,layer6-8_O12_to_O3.jpg,layer6-8/layer6-8_O12_to_O3.jpg,OO,layer6-8,,,,,0.0,65.0,65.0,65.0,,,,,968.5616226340062,None,4.0,2.940819247043692,968.5616226340062,None,968.5616226340062,None,968.5616226340062,None,1,2022_Jun_27_1600,Semantic-hierachy,2021.1.2,
216,Trial # 217,layer0-5_T10_to_T2.jpg,layer0-5/layer0-5_T10_to_T2.jpg,TT,layer0-5,,,,,0.0,66.0,66.0,66.0,,,,,971.9957374539808,None,1.0,2.6956662380252965,971.9957374539808,None,971.9957374539808,None,971.9957374539808,None,1,2022_Jun_27_1600,Semantic-hierachy,2021.1.2,
217,Trial # 218,layer9-17_O10_to_O6.jpg,layer9-17/layer9-17_O10_to_O6.jpg,OO,layer9-17,,,,,0.0,67.0,67.0,67.0,,,,,974.995814074995,None,2.0,11.283672628982458,974.995814074995,None,974.995814074995,None,974.995814074995,None,1,2022_Jun_27_1600,Semantic-hierachy,2021.1.2,
218,Trial # 219,layer6-8_O6_to_O9.jpg,layer6-8/layer6-8_O6_to_O9.jpg,OO,layer6-8,,,,,0.0,68.0,68.0,68.0,,,,,987.0175626479904,None,3.0,1.863098228990566,987.0175626479904,None,987.0175626479904,None,987.0175626479904,None,1,2022_Jun_27_1600,Semantic-hierachy,2021.1.2,
219,Trial # 220,layer0-5_O7_to_T2.jpg,layer0-5/layer0-5_O7_to_T2.jpg,OT,layer0-5,,,,,0.0,69.0,69.0,69.0,,,,,989.2175395630184,None,1.0,3.152200655953493,989.2175395630184,None,989.2175395630184,None,989.2175395630184,None,1,2022_Jun_27_1600,Semantic-hierachy,2021.1.2,
220,Trial # 221,layer9-17_T12_to_T2.jpg,layer9-17/layer9-17_T12_to_T2.jpg,TT,layer9-17,,,,,0.0,70.0,70.0,70.0,,,,,992.752352776006,None,2.0,2.9174788420205005,992.752352776006,None,992.752352776006,None,992.752352776006,None,1,2022_Jun_27_1600,Semantic-hierachy,2021.1.2,
221,Trial # 222,layer9-17_O8_to_T11.jpg,layer9-17/layer9-17_O8_to_T11.jpg,OT,layer9-17,,,,,0.0,71.0,71.0,71.0,,,,,995.919466486026,None,2.0,6.130635810026433,995.919466486026,None,995.919466486026,None,995.919466486026,None,1,2022_Jun_27_1600,Semantic-hierachy,2021.1.2,
222,Trial # 223,layer6-8_O3_to_T9.jpg,layer6-8/layer6-8_O3_to_T9.jpg,OT,layer6-8,,,,,0.0,72.0,72.0,72.0,,,,,1002.337637302,None,2.0,2.1418774379999377,1002.337637302,None,1002.337637302,None,1002.337637302,None,1,2022_Jun_27_1600,Semantic-hierachy,2021.1.2,
223,Trial # 224,layer0-5_O6_to_O9.jpg,layer0-5/layer0-5_O6_to_O9.jpg,OO,layer0-5,,,,,0.0,73.0,73.0,73.0,,,,,1004.8219301439822,None,1.0,1.853391831973568,1004.8219301439822,None,1004.8219301439822,None,1004.8219301439822,None,1,2022_Jun_27_1600,Semantic-hierachy,2021.1.2,
224,Trial # 225,layer0-5_O12_to_T1.jpg,layer0-5/layer0-5_O12_to_T1.jpg,OT,layer0-5,,,,,0.0,74.0,74.0,74.0,,,,,1006.9900403619976,None,1.0,1.5024628459941596,1006.9900403619976,None,1006.9900403619976,None,1006.9900403619976,None,1,2022_Jun_27_1600,Semantic-hierachy,2021.1.2,
225,Trial # 226,layer9-17_O2_to_T8.jpg,layer9-17/layer9-17_O2_to_T8.jpg,OT,layer9-17,,,,,0.0,75.0,75.0,75.0,,,,,1008.8071689140052,None,2.0,1.3966462280368432,1008.8071689140052,None,1008.8071689140052,None,1008.8071689140052,None,1,2022_Jun_27_1600,Semantic-hierachy,2021.1.2,
226,Trial # 227,layer0-5_T4_to_T8.jpg,layer0-5/layer0-5_T4_to_T8.jpg,TT,layer0-5,,,,,0.0,76.0,76.0,76.0,,,,,1010.5239448309876,None,1.0,1.7085325450170783,1010.5239448309876,None,1010.5239448309876,None,1010.5239448309876,None,1,2022_Jun_27_1600,Semantic-hierachy,2021.1.2,
227,Trial # 228,layer9-17_O2_to_T1.jpg,layer9-17/layer9-17_O2_to_T1.jpg,OT,layer9-17,,,,,0.0,77.0,77.0,77.0,,,,,1012.5074375289842,None,2.0,2.615874521026853,1012.5074375289842,None,1012.5074375289842,None,1012.5074375289842,None,1,2022_Jun_27_1600,Semantic-hierachy,2021.1.2,
228,Trial # 229,layer0-5_O11_to_O7.jpg,layer0-5/layer0-5_O11_to_O7.jpg,OO,layer0-5,,,,,0.0,78.0,78.0,78.0,,,,,1015.4584549000136,None,1.0,1.542339661042206,1015.4584549000136,None,1015.4584549000136,None,1015.4584549000136,None,1,2022_Jun_27_1600,Semantic-hierachy,2021.1.2,
229,Trial # 230,layer6-8_T2_to_T8.jpg,layer6-8/layer6-8_T2_to_T8.jpg,TT,layer6-8,,,,,0.0,79.0,79.0,79.0,,,,,1017.2931639970049,None,4.0,3.132361021998804,1017.2931639970049,None,1017.2931639970049,None,1017.2931639970049,None,1,2022_Jun_27_1600,Semantic-hierachy,2021.1.2,
230,Trial # 231,layer9-17_T4_to_T8.jpg,layer9-17/layer9-17_T4_to_T8.jpg,TT,layer9-17,,,,,0.0,80.0,80.0,80.0,,,,,1021.7933654320076,None,2.0,2.1200730910059065,1021.7933654320076,None,1021.7933654320076,None,1021.7933654320076,None,1,2022_Jun_27_1600,Semantic-hierachy,2021.1.2,
231,Trial # 232,layer9-17_T11_to_T3.jpg,layer9-17/layer9-17_T11_to_T3.jpg,TT,layer9-17,,,,,0.0,81.0,81.0,81.0,,,,,1024.210848758987,None,2.0,1.6118526970385574,1024.210848758987,None,1024.210848758987,None,1024.210848758987,None,1,2022_Jun_27_1600,Semantic-hierachy,2021.1.2,
232,Trial # 233,layer0-5_O3_to_T9.jpg,layer0-5/layer0-5_O3_to_T9.jpg,OT,layer0-5,,,,,0.0,82.0,82.0,82.0,,,,,1026.060933450004,None,1.0,1.6643627270241268,1026.060933450004,None,1026.060933450004,None,1026.060933450004,None,1,2022_Jun_27_1600,Semantic-hierachy,2021.1.2,
233,Trial # 234,layer9-17_T7_to_T8.jpg,layer9-17/layer9-17_T7_to_T8.jpg,TT,layer9-17,,,,,0.0,83.0,83.0,83.0,,,,,1027.963257792988,None,2.0,2.6578419290017337,1027.963257792988,None,1027.963257792988,None,1027.963257792988,None,1,2022_Jun_27_1600,Semantic-hierachy,2021.1.2,
234,Trial # 235,layer9-17_O3_to_O4.jpg,layer9-17/layer9-17_O3_to_O4.jpg,OO,layer9-17,,,,,0.0,84.0,84.0,84.0,,,,,1031.0629902260262,None,2.0,1.2211848710430786,1031.0629902260262,None,1031.0629902260262,None,1031.0629902260262,None,1,2022_Jun_27_1600,Semantic-hierachy,2021.1.2,
235,Trial # 236,layer6-8_O8_to_T6.jpg,layer6-8/layer6-8_O8_to_T6.jpg,OT,layer6-8,,,,,0.0,85.0,85.0,85.0,,,,,1032.547364961007,None,3.0,2.503234848030843,1032.547364961007,None,1032.547364961007,None,1032.547364961007,None,1,2022_Jun_27_1600,Semantic-hierachy,2021.1.2,
236,Trial # 237,layer9-17_T6_to_T7.jpg,layer9-17/layer9-17_T6_to_T7.jpg,TT,layer9-17,,,,,0.0,86.0,86.0,86.0,,,,,1035.347485668026,None,2.0,1.5149498149985448,1035.347485668026,None,1035.347485668026,None,1035.347485668026,None,1,2022_Jun_27_1600,Semantic-hierachy,2021.1.2,
237,Trial # 238,layer0-5_T2_to_T9.jpg,layer0-5/layer0-5_T2_to_T9.jpg,TT,layer0-5,,,,,0.0,87.0,87.0,87.0,,,,,1037.082480637997,None,1.0,2.000645854976028,1037.082480637997,None,1037.082480637997,None,1037.082480637997,None,1,2022_Jun_27_1600,Semantic-hierachy,2021.1.2,
238,Trial # 239,layer0-5_O2_to_O5.jpg,layer0-5/layer0-5_O2_to_O5.jpg,OO,layer0-5,,,,,0.0,88.0,88.0,88.0,,,,,1039.2998896909994,None,1.0,1.997501823003404,1039.2998896909994,None,1039.2998896909994,None,1039.2998896909994,None,1,2022_Jun_27_1600,Semantic-hierachy,2021.1.2,
239,Trial # 240,layer6-8_O1_to_O5.jpg,layer6-8/layer6-8_O1_to_O5.jpg,OO,layer6-8,,,,,0.0,89.0,89.0,89.0,,,,,1041.5663321600296,None,4.0,2.0364749869913794,1041.5663321600296,None,1041.5663321600296,None,1041.5663321600296,None,1,2022_Jun_27_1600,Semantic-hierachy,2021.1.2,
240,Trial # 241,layer9-17_O3_to_O7.jpg,layer9-17/layer9-17_O3_to_O7.jpg,OO,layer9-17,,,,,0.0,90.0,90.0,90.0,,,,,1043.88436546101,None,2.0,1.489347800030373,1043.88436546101,None,1043.88436546101,None,1043.88436546101,None,1,2022_Jun_27_1600,Semantic-hierachy,2021.1.2,
241,Trial # 242,layer6-8_O11_to_O8.jpg,layer6-8/layer6-8_O11_to_O8.jpg,OO,layer6-8,,,,,0.0,91.0,91.0,91.0,,,,,1045.6506760899792,None,2.0,2.201286513998639,1045.6506760899792,None,1045.6506760899792,None,1045.6506760899792,None,1,2022_Jun_27_1600,Semantic-hierachy,2021.1.2,
242,Trial # 243,layer9-17_T1_to_T12.jpg,layer9-17/layer9-17_T1_to_T12.jpg,TT,layer9-17,,,,,0.0,92.0,92.0,92.0,,,,,1049.3860286150011,None,2.0,2.05391494196374,1049.3860286150011,None,1049.3860286150011,None,1049.3860286150011,None,1,2022_Jun_27_1600,Semantic-hierachy,2021.1.2,
243,Trial # 244,layer9-17_O6_to_O8.jpg,layer9-17/layer9-17_O6_to_O8.jpg,OO,layer9-17,,,,,0.0,93.0,93.0,93.0,,,,,1051.8693202540162,None,2.0,3.428283726039808,1051.8693202540162,None,1051.8693202540162,None,1051.8693202540162,None,1,2022_Jun_27_1600,Semantic-hierachy,2021.1.2,
244,Trial # 245,layer6-8_O4_to_T11.jpg,layer6-8/layer6-8_O4_to_T11.jpg,OT,layer6-8,,,,,0.0,94.0,94.0,94.0,,,,,1056.6711676929845,None,3.0,3.90482895396417,1056.6711676929845,None,1056.6711676929845,None,1056.6711676929845,None,1,2022_Jun_27_1600,Semantic-hierachy,2021.1.2,
245,Trial # 246,layer9-17_T10_to_T3.jpg,layer9-17/layer9-17_T10_to_T3.jpg,TT,layer9-17,,,,,0.0,95.0,95.0,95.0,,,,,1060.788517019013,None,2.0,1.6901950349565595,1060.788517019013,None,1060.788517019013,None,1060.788517019013,None,1,2022_Jun_27_1600,Semantic-hierachy,2021.1.2,
246,Trial # 247,layer0-5_O10_to_O8.jpg,layer0-5/layer0-5_O10_to_O8.jpg,OO,layer0-5,,,,,0.0,96.0,96.0,96.0,,,,,1062.6905417719972,None,1.0,1.6386821930063888,1062.6905417719972,None,1062.6905417719972,None,1062.6905417719972,None,1,2022_Jun_27_1600,Semantic-hierachy,2021.1.2,
247,Trial # 248,layer6-8_O3_to_T12.jpg,layer6-8/layer6-8_O3_to_T12.jpg,OT,layer6-8,,,,,0.0,97.0,97.0,97.0,,,,,1064.5571008059778,None,3.0,2.0236382899456657,1064.5571008059778,None,1064.5571008059778,None,1064.5571008059778,None,1,2022_Jun_27_1600,Semantic-hierachy,2021.1.2,
248,Trial # 249,layer0-5_O12_to_T9.jpg,layer0-5/layer0-5_O12_to_T9.jpg,OT,layer0-5,,,,,0.0,98.0,98.0,98.0,,,,,1066.9078396200202,None,1.0,1.647063305019401,1066.9078396200202,None,1066.9078396200202,None,1066.9078396200202,None,1,2022_Jun_27_1600,Semantic-hierachy,2021.1.2,
249,Trial # 250,layer9-17_T1_to_T9.jpg,layer9-17/layer9-17_T1_to_T9.jpg,TT,layer9-17,,,,,0.0,99.0,99.0,99.0,,,,,1068.8087897369987,None,4.0,3.0373573569813743,1068.8087897369987,None,1068.8087897369987,None,1068.8087897369987,None,1,2022_Jun_27_1600,Semantic-hierachy,2021.1.2,
250,Trial # 251,layer9-17_T11_to_T8.jpg,layer9-17/layer9-17_T11_to_T8.jpg,TT,layer9-17,,,,,0.0,100.0,100.0,100.0,,,,,1072.1258886869764,None,2.0,1.4159525950090028,1072.1258886869764,None,1072.1258886869764,None,1072.1258886869764,None,1,2022_Jun_27_1600,Semantic-hierachy,2021.1.2,
251,Trial # 252,layer9-17_T11_to_T5.jpg,layer9-17/layer9-17_T11_to_T5.jpg,TT,layer9-17,,,,,0.0,101.0,101.0,101.0,,,,,1073.8264335460262,None,4.0,6.926649358007126,1073.8264335460262,None,1073.8264335460262,None,1073.8264335460262,None,1,2022_Jun_27_1600,Semantic-hierachy,2021.1.2,
252,Trial # 253,layer6-8_T10_to_T12.jpg,layer6-8/layer6-8_T10_to_T12.jpg,TT,layer6-8,,,,,0.0,102.0,102.0,102.0,,,,,1081.0781815579976,None,4.0,1.516157264006324,1081.0781815579976,None,1081.0781815579976,None,1081.0781815579976,None,1,2022_Jun_27_1600,Semantic-hierachy,2021.1.2,
253,Trial # 254,layer9-17_O5_to_T1.jpg,layer9-17/layer9-17_O5_to_T1.jpg,OT,layer9-17,,,,,0.0,103.0,103.0,103.0,,,,,1083.529976153979,None,2.0,1.4476973899872974,1083.529976153979,None,1083.529976153979,None,1083.529976153979,None,1,2022_Jun_27_1600,Semantic-hierachy,2021.1.2,
254,Trial # 255,layer6-8_T2_to_T3.jpg,layer6-8/layer6-8_T2_to_T3.jpg,TT,layer6-8,,,,,0.0,104.0,104.0,104.0,,,,,1085.279735272983,None,4.0,1.9478850440355016,1085.279735272983,None,1085.279735272983,None,1085.279735272983,None,1,2022_Jun_27_1600,Semantic-hierachy,2021.1.2,
255,Trial # 256,layer6-8_O2_to_T6.jpg,layer6-8/layer6-8_O2_to_T6.jpg,OT,layer6-8,,,,,0.0,105.0,105.0,105.0,,,,,1087.48153732199,None,3.0,1.6759324449812991,1087.48153732199,None,1087.48153732199,None,1087.48153732199,None,1,2022_Jun_27_1600,Semantic-hierachy,2021.1.2,
256,Trial # 257,layer6-8_T11_to_T9.jpg,layer6-8/layer6-8_T11_to_T9.jpg,TT,layer6-8,,,,,0.0,106.0,106.0,106.0,,,,,1089.5314681159798,None,4.0,2.6562984620104544,1089.5314681159798,None,1089.5314681159798,None,1089.5314681159798,None,1,2022_Jun_27_1600,Semantic-hierachy,2021.1.2,
257,Trial # 258,layer6-8_O5_to_T9.jpg,layer6-8/layer6-8_O5_to_T9.jpg,OT,layer6-8,,,,,0.0,107.0,107.0,107.0,,,,,1092.5498986589955,None,3.0,2.3231458659865893,1092.5498986589955,None,1092.5498986589955,None,1092.5498986589955,None,1,2022_Jun_27_1600,Semantic-hierachy,2021.1.2,
258,Trial # 259,layer6-8_O9_to_T8.jpg,layer6-8/layer6-8_O9_to_T8.jpg,OT,layer6-8,,,,,0.0,108.0,108.0,108.0,,,,,1095.2503393620136,None,3.0,2.788430519984104,1095.2503393620136,None,1095.2503393620136,None,1095.2503393620136,None,1,2022_Jun_27_1600,Semantic-hierachy,2021.1.2,
259,Trial # 260,layer6-8_T1_to_T5.jpg,layer6-8/layer6-8_T1_to_T5.jpg,TT,layer6-8,,,,,0.0,109.0,109.0,109.0,,,,,1098.2849780760007,None,4.0,2.613682185008656,1098.2849780760007,None,1098.2849780760007,None,1098.2849780760007,None,1,2022_Jun_27_1600,Semantic-hierachy,2021.1.2,
260,Trial # 261,layer0-5_O11_to_T2.jpg,layer0-5/layer0-5_O11_to_T2.jpg,OT,layer0-5,,,,,0.0,110.0,110.0,110.0,,,,,1101.3177787900204,None,1.0,1.7786401359480806,1101.3177787900204,None,1101.3177787900204,None,1101.3177787900204,None,1,2022_Jun_27_1600,Semantic-hierachy,2021.1.2,
261,Trial # 262,layer0-5_O7_to_T4.jpg,layer0-5/layer0-5_O7_to_T4.jpg,OT,layer0-5,,,,,0.0,111.0,111.0,111.0,,,,,1103.3866252460284,None,1.0,2.1399409730220214,1103.3866252460284,None,1103.3866252460284,None,1103.3866252460284,None,1,2022_Jun_27_1600,Semantic-hierachy,2021.1.2,
262,Trial # 263,layer6-8_T12_to_T8.jpg,layer6-8/layer6-8_T12_to_T8.jpg,TT,layer6-8,,,,,0.0,112.0,112.0,112.0,,,,,1105.8526341349934,None,2.0,1.6671513139735907,1105.8526341349934,None,1105.8526341349934,None,1105.8526341349934,None,1,2022_Jun_27_1600,Semantic-hierachy,2021.1.2,
263,Trial # 264,layer6-8_O4_to_O9.jpg,layer6-8/layer6-8_O4_to_O9.jpg,OO,layer6-8,,,,,0.0,113.0,113.0,113.0,,,,,1107.754285893985,None,4.0,2.5639141490100883,1107.754285893985,None,1107.754285893985,None,1107.754285893985,None,1,2022_Jun_27_1600,Semantic-hierachy,2021.1.2,
264,Trial # 265,layer0-5_T1_to_T5.jpg,layer0-5/layer0-5_T1_to_T5.jpg,TT,layer0-5,,,,,0.0,114.0,114.0,114.0,,,,,1110.5711293800268,None,1.0,1.7337759680231102,1110.5711293800268,None,1110.5711293800268,None,1110.5711293800268,None,1,2022_Jun_27_1600,Semantic-hierachy,2021.1.2,
265,Trial # 266,layer0-5_O12_to_O7.jpg,layer0-5/layer0-5_O12_to_O7.jpg,OO,layer0-5,,,,,0.0,115.0,115.0,115.0,,,,,1112.5557070520008,None,1.0,1.4144083250430413,1112.5557070520008,None,1112.5557070520008,None,1112.5557070520008,None,1,2022_Jun_27_1600,Semantic-hierachy,2021.1.2,
266,Trial # 267,layer6-8_T8_to_T9.jpg,layer6-8/layer6-8_T8_to_T9.jpg,TT,layer6-8,,,,,0.0,116.0,116.0,116.0,,,,,1114.2219917050095,None,2.0,2.3200880809454247,1114.2219917050095,None,1114.2219917050095,None,1114.2219917050095,None,1,2022_Jun_27_1600,Semantic-hierachy,2021.1.2,
267,Trial # 268,layer9-17_O11_to_T10.jpg,layer9-17/layer9-17_O11_to_T10.jpg,OT,layer9-17,,,,,0.0,117.0,117.0,117.0,,,,,1117.706648088002,None,2.0,1.2954693459905684,1117.706648088002,None,1117.706648088002,None,1117.706648088002,None,1,2022_Jun_27_1600,Semantic-hierachy,2021.1.2,
268,Trial # 269,layer0-5_O8_to_T9.jpg,layer0-5/layer0-5_O8_to_T9.jpg,OT,layer0-5,,,,,0.0,118.0,118.0,118.0,,,,,1119.2234166450216,None,1.0,1.5394599820137955,1119.2234166450216,None,1119.2234166450216,None,1119.2234166450216,None,1,2022_Jun_27_1600,Semantic-hierachy,2021.1.2,
269,Trial # 270,layer9-17_O10_to_O11.jpg,layer9-17/layer9-17_O10_to_O11.jpg,OO,layer9-17,,,,,0.0,119.0,119.0,119.0,,,,,1120.9905164929803,None,2.0,1.864118978031911,1120.9905164929803,None,1120.9905164929803,None,1120.9905164929803,None,1,2022_Jun_27_1600,Semantic-hierachy,2021.1.2,
270,Trial # 271,layer0-5_T1_to_T9.jpg,layer0-5/layer0-5_T1_to_T9.jpg,TT,layer0-5,,,,,0.0,120.0,120.0,120.0,,,,,1123.1245957459903,None,1.0,1.3408218040131032,1123.1245957459903,None,1123.1245957459903,None,1123.1245957459903,None,1,2022_Jun_27_1600,Semantic-hierachy,2021.1.2,
271,Trial # 272,layer6-8_T11_to_T8.jpg,layer6-8/layer6-8_T11_to_T8.jpg,TT,layer6-8,,,,,0.0,121.0,121.0,121.0,,,,,1124.808587192034,None,4.0,2.350821934000124,1124.808587192034,None,1124.808587192034,None,1124.808587192034,None,1,2022_Jun_27_1600,Semantic-hierachy,2021.1.2,
272,Trial # 273,layer9-17_O10_to_O12.jpg,layer9-17/layer9-17_O10_to_O12.jpg,OO,layer9-17,,,,,0.0,122.0,122.0,122.0,,,,,1127.4939900200116,None,2.0,1.4199306549853643,1127.4939900200116,None,1127.4939900200116,None,1127.4939900200116,None,1,2022_Jun_27_1600,Semantic-hierachy,2021.1.2,
273,Trial # 274,layer0-5_T12_to_T6.jpg,layer0-5/layer0-5_T12_to_T6.jpg,TT,layer0-5,,,,,0.0,123.0,123.0,123.0,,,,,1129.4611863300088,None,1.0,1.6418044280144386,1129.4611863300088,None,1129.4611863300088,None,1129.4611863300088,None,1,2022_Jun_27_1600,Semantic-hierachy,2021.1.2,
274,Trial # 275,layer9-17_O11_to_O5.jpg,layer9-17/layer9-17_O11_to_O5.jpg,OO,layer9-17,,,,,0.0,124.0,124.0,124.0,,,,,1131.3943057549768,None,2.0,1.994090722000692,1131.3943057549768,None,1131.3943057549768,None,1131.3943057549768,None,1,2022_Jun_27_1600,Semantic-hierachy,2021.1.2,
275,Trial # 276,layer9-17_O1_to_O4.jpg,layer9-17/layer9-17_O1_to_O4.jpg,OO,layer9-17,,,,,0.0,125.0,125.0,125.0,,,,,1133.89459617401,None,4.0,2.456454611965455,1133.89459617401,None,1133.89459617401,None,1133.89459617401,None,1,2022_Jun_27_1600,Semantic-hierachy,2021.1.2,
276,Trial # 277,layer6-8_O11_to_O3.jpg,layer6-8/layer6-8_O11_to_O3.jpg,OO,layer6-8,,,,,0.0,126.0,126.0,126.0,,,,,1136.6950542450068,None,2.0,2.511738566972781,1136.6950542450068,None,1136.6950542450068,None,1136.6950542450068,None,1,2022_Jun_27_1600,Semantic-hierachy,2021.1.2,
277,Trial # 278,layer6-8_T10_to_T11.jpg,layer6-8/layer6-8_T10_to_T11.jpg,TT,layer6-8,,,,,0.0,127.0,127.0,127.0,,,,,1140.9136733679916,None,4.0,2.769147969025653,1140.9136733679916,None,1140.9136733679916,None,1140.9136733679916,None,1,2022_Jun_27_1600,Semantic-hierachy,2021.1.2,
278,Trial # 279,layer0-5_O7_to_T3.jpg,layer0-5/layer0-5_O7_to_T3.jpg,OT,layer0-5,,,,,0.0,128.0,128.0,128.0,,,,,1143.998916145007,None,1.0,1.4706208459683694,1143.998916145007,None,1143.998916145007,None,1143.998916145007,None,1,2022_Jun_27_1600,Semantic-hierachy,2021.1.2,
279,Trial # 280,layer9-17_T1_to_T10.jpg,layer9-17/layer9-17_T1_to_T10.jpg,TT,layer9-17,,,,,0.0,129.0,129.0,129.0,,,,,1145.748305680987,None,2.0,2.6191473299986683,1145.748305680987,None,1145.748305680987,None,1145.748305680987,None,1,2022_Jun_27_1600,Semantic-hierachy,2021.1.2,
280,Trial # 281,layer9-17_O6_to_T7.jpg,layer9-17/layer9-17_O6_to_T7.jpg,OT,layer9-17,,,,,0.0,130.0,130.0,130.0,,,,,1148.8000270299965,None,2.0,1.1701664050342515,1148.8000270299965,None,1148.8000270299965,None,1148.8000270299965,None,1,2022_Jun_27_1600,Semantic-hierachy,2021.1.2,
281,Trial # 282,layer0-5_O10_to_O7.jpg,layer0-5/layer0-5_O10_to_O7.jpg,OO,layer0-5,,,,,0.0,131.0,131.0,131.0,,,,,1150.2994538240018,None,1.0,2.521781652001664,1150.2994538240018,None,1150.2994538240018,None,1150.2994538240018,None,1,2022_Jun_27_1600,Semantic-hierachy,2021.1.2,
282,Trial # 283,layer0-5_O1_to_O11.jpg,layer0-5/layer0-5_O1_to_O11.jpg,OO,layer0-5,,,,,0.0,132.0,132.0,132.0,,,,,1153.0851635650033,None,1.0,1.129228370031342,1153.0851635650033,None,1153.0851635650033,None,1153.0851635650033,None,1,2022_Jun_27_1600,Semantic-hierachy,2021.1.2,
283,Trial # 284,layer6-8_O7_to_O8.jpg,layer6-8/layer6-8_O7_to_O8.jpg,OO,layer6-8,,,,,0.0,133.0,133.0,133.0,,,,,1154.467816193006,None,3.0,2.918692281004041,1154.467816193006,None,1154.467816193006,None,1154.467816193006,None,1,2022_Jun_27_1600,Semantic-hierachy,2021.1.2,
284,Trial # 285,layer0-5_T7_to_T8.jpg,layer0-5/layer0-5_T7_to_T8.jpg,TT,layer0-5,,,,,0.0,134.0,134.0,134.0,,,,,1157.6364840220194,None,1.0,1.44362082000589,1157.6364840220194,None,1157.6364840220194,None,1157.6364840220194,None,1,2022_Jun_27_1600,Semantic-hierachy,2021.1.2,
285,Trial # 286,layer9-17_T11_to_T6.jpg,layer9-17/layer9-17_T11_to_T6.jpg,TT,layer9-17,,,,,0.0,135.0,135.0,135.0,,,,,1159.2859451799886,None,2.0,2.06564405298559,1159.2859451799886,None,1159.2859451799886,None,1159.2859451799886,None,1,2022_Jun_27_1600,Semantic-hierachy,2021.1.2,
286,Trial # 287,layer0-5_T2_to_T7.jpg,layer0-5/layer0-5_T2_to_T7.jpg,TT,layer0-5,,,,,0.0,136.0,136.0,136.0,,,,,1161.619529455027,None,1.0,1.58445181499701,1161.619529455027,None,1161.619529455027,None,1161.619529455027,None,1,2022_Jun_27_1600,Semantic-hierachy,2021.1.2,
287,Trial # 288,layer9-17_O10_to_O2.jpg,layer9-17/layer9-17_O10_to_O2.jpg,OO,layer9-17,,,,,0.0,137.0,137.0,137.0,,,,,1163.437368725019,None,2.0,1.7096148239797913,1163.437368725019,None,1163.437368725019,None,1163.437368725019,None,1,2022_Jun_27_1600,Semantic-hierachy,2021.1.2,
288,Trial # 289,layer0-5_T10_to_T9.jpg,layer0-5/layer0-5_T10_to_T9.jpg,TT,layer0-5,,,,,0.0,138.0,138.0,138.0,,,,,1165.5218656369834,None,1.0,1.6954744029790163,1165.5218656369834,None,1165.5218656369834,None,1165.5218656369834,None,1,2022_Jun_27_1600,Semantic-hierachy,2021.1.2,
289,Trial # 290,layer6-8_O11_to_O5.jpg,layer6-8/layer6-8_O11_to_O5.jpg,OO,layer6-8,,,,,0.0,139.0,139.0,139.0,,,,,1167.456498354033,None,2.0,1.4934071820462125,1167.456498354033,None,1167.456498354033,None,1167.456498354033,None,1,2022_Jun_27_1600,Semantic-hierachy,2021.1.2,
290,Trial # 291,layer6-8_O3_to_O7.jpg,layer6-8/layer6-8_O3_to_O7.jpg,OO,layer6-8,,,,,0.0,140.0,140.0,140.0,,,,,1172.2409646250308,None,4.0,3.1991390339680947,1172.2409646250308,None,1172.2409646250308,None,1172.2409646250308,None,1,2022_Jun_27_1600,Semantic-hierachy,2021.1.2,
291,Trial # 292,layer9-17_O12_to_T11.jpg,layer9-17/layer9-17_O12_to_T11.jpg,OT,layer9-17,,,,,0.0,141.0,141.0,141.0,,,,,1175.6906323350267,None,2.0,1.5872268700040877,1175.6906323350267,None,1175.6906323350267,None,1175.6906323350267,None,1,2022_Jun_27_1600,Semantic-hierachy,2021.1.2,
292,Trial # 293,layer9-17_O2_to_O4.jpg,layer9-17/layer9-17_O2_to_O4.jpg,OO,layer9-17,,,,,0.0,142.0,142.0,142.0,,,,,1177.4931176499813,None,4.0,2.904279722948558,1177.4931176499813,None,1177.4931176499813,None,1177.4931176499813,None,1,2022_Jun_27_1600,Semantic-hierachy,2021.1.2,
293,Trial # 294,layer6-8_O1_to_T12.jpg,layer6-8/layer6-8_O1_to_T12.jpg,OT,layer6-8,,,,,0.0,143.0,143.0,143.0,,,,,1181.125817587017,None,3.0,1.8237259759916924,1181.125817587017,None,1181.125817587017,None,1181.125817587017,None,1,2022_Jun_27_1600,Semantic-hierachy,2021.1.2,
294,Trial # 295,layer9-17_O11_to_T5.jpg,layer9-17/layer9-17_O11_to_T5.jpg,OT,layer9-17,,,,,0.0,144.0,144.0,144.0,,,,,1183.2277992210002,None,2.0,2.1110945139662363,1183.2277992210002,None,1183.2277992210002,None,1183.2277992210002,None,1,2022_Jun_27_1600,Semantic-hierachy,2021.1.2,
295,Trial # 296,layer0-5_O10_to_O9.jpg,layer0-5/layer0-5_O10_to_O9.jpg,OO,layer0-5,,,,,0.0,145.0,145.0,145.0,,,,,1185.6274368680315,None,1.0,1.4587947559775785,1185.6274368680315,None,1185.6274368680315,None,1185.6274368680315,None,1,2022_Jun_27_1600,Semantic-hierachy,2021.1.2,
296,Trial # 297,layer6-8_O12_to_T10.jpg,layer6-8/layer6-8_O12_to_T10.jpg,OT,layer6-8,,,,,0.0,146.0,146.0,146.0,,,,,1187.4124754380318,None,3.0,5.571189898997545,1187.4124754380318,None,1187.4124754380318,None,1187.4124754380318,None,1,2022_Jun_27_1600,Semantic-hierachy,2021.1.2,
297,Trial # 298,layer6-8_O3_to_T2.jpg,layer6-8/layer6-8_O3_to_T2.jpg,OT,layer6-8,,,,,0.0,147.0,147.0,147.0,,,,,1193.2641997350147,None,3.0,2.011874133022502,1193.2641997350147,None,1193.2641997350147,None,1193.2641997350147,None,1,2022_Jun_27_1600,Semantic-hierachy,2021.1.2,
298,Trial # 299,layer9-17_O2_to_T5.jpg,layer9-17/layer9-17_O2_to_T5.jpg,OT,layer9-17,,,,,0.0,148.0,148.0,148.0,,,,,1195.6304556860125,None,4.0,3.001457759004552,1195.6304556860125,None,1195.6304556860125,None,1195.6304556860125,None,1,2022_Jun_27_1600,Semantic-hierachy,2021.1.2,
299,Trial # 300,layer0-5_O3_to_T7.jpg,layer0-5/layer0-5_O3_to_T7.jpg,OT,layer0-5,,,,,0.0,149.0,149.0,149.0,,,,,1199.182124109997,None,1.0,2.0226840879768133,1199.182124109997,None,1199.182124109997,None,1199.182124109997,None,1,2022_Jun_27_1600,Semantic-hierachy,2021.1.2,
300,Trial # 301,layer9-17_O11_to_O6.jpg,layer9-17/layer9-17_O11_to_O6.jpg,OO,layer9-17,,,,,,,,,0.0,0.0,0.0,0.0,1202.799407211016,None,2.0,3.114756418974139,1202.799407211016,None,1202.799407211016,None,1202.799407211016,None,1,2022_Jun_27_1600,Semantic-hierachy,2021.1.2,
301,Trial # 302,layer0-5_O3_to_O7.jpg,layer0-5/layer0-5_O3_to_O7.jpg,OO,layer0-5,,,,,,,,,0.0,1.0,1.0,1.0,1206.2836786159896,None,1.0,1.846522337000352,1206.2836786159896,None,1206.2836786159896,None,1206.2836786159896,None,1,2022_Jun_27_1600,Semantic-hierachy,2021.1.2,
302,Trial # 303,layer6-8_O11_to_T3.jpg,layer6-8/layer6-8_O11_to_T3.jpg,OT,layer6-8,,,,,,,,,0.0,2.0,2.0,2.0,1208.3355317760142,None,3.0,1.6208450560225174,1208.3355317760142,None,1208.3355317760142,None,1208.3355317760142,None,1,2022_Jun_27_1600,Semantic-hierachy,2021.1.2,
303,Trial # 304,layer6-8_O2_to_T7.jpg,layer6-8/layer6-8_O2_to_T7.jpg,OT,layer6-8,,,,,,,,,0.0,3.0,3.0,3.0,1210.2846059440053,None,3.0,1.2483577329549007,1210.2846059440053,None,1210.2846059440053,None,1210.2846059440053,None,1,2022_Jun_27_1600,Semantic-hierachy,2021.1.2,
304,Trial # 305,layer0-5_T1_to_T7.jpg,layer0-5/layer0-5_T1_to_T7.jpg,TT,layer0-5,,,,,,,,,0.0,4.0,4.0,4.0,1212.152697833022,None,1.0,2.20000988204265,1212.152697833022,None,1212.152697833022,None,1212.152697833022,None,1,2022_Jun_27_1600,Semantic-hierachy,2021.1.2,
305,Trial # 306,layer6-8_O7_to_T11.jpg,layer6-8/layer6-8_O7_to_T11.jpg,OT,layer6-8,,,,,,,,,0.0,5.0,5.0,5.0,1214.6028613250237,None,3.0,2.078273211955093,1214.6028613250237,None,1214.6028613250237,None,1214.6028613250237,None,1,2022_Jun_27_1600,Semantic-hierachy,2021.1.2,
306,Trial # 307,layer9-17_O5_to_T5.jpg,layer9-17/layer9-17_O5_to_T5.jpg,OT,layer9-17,,,,,,,,,0.0,6.0,6.0,6.0,1216.9702571170055,None,2.0,1.3754623230197467,1216.9702571170055,None,1216.9702571170055,None,1216.9702571170055,None,1,2022_Jun_27_1600,Semantic-hierachy,2021.1.2,
307,Trial # 308,layer9-17_T12_to_T5.jpg,layer9-17/layer9-17_T12_to_T5.jpg,TT,layer9-17,,,,,,,,,0.0,7.0,7.0,7.0,1218.572027540009,None,2.0,1.3702527160057798,1218.572027540009,None,1218.572027540009,None,1218.572027540009,None,1,2022_Jun_27_1600,Semantic-hierachy,2021.1.2,
308,Trial # 309,layer6-8_O11_to_O2.jpg,layer6-8/layer6-8_O11_to_O2.jpg,OO,layer6-8,,,,,,,,,0.0,8.0,8.0,8.0,1220.1718287179829,None,2.0,1.837766179000028,1220.1718287179829,None,1220.1718287179829,None,1220.1718287179829,None,1,2022_Jun_27_1600,Semantic-hierachy,2021.1.2,
309,Trial # 310,layer6-8_O10_to_O7.jpg,layer6-8/layer6-8_O10_to_O7.jpg,OO,layer6-8,,,,,,,,,0.0,9.0,9.0,9.0,1222.256040443026,None,4.0,2.02145132800797,1222.256040443026,None,1222.256040443026,None,1222.256040443026,None,1,2022_Jun_27_1600,Semantic-hierachy,2021.1.2,
310,Trial # 311,layer9-17_O10_to_T11.jpg,layer9-17/layer9-17_O10_to_T11.jpg,OT,layer9-17,,,,,,,,,0.0,10.0,10.0,10.0,1224.6395942560048,None,2.0,1.969277100986801,1224.6395942560048,None,1224.6395942560048,None,1224.6395942560048,None,1,2022_Jun_27_1600,Semantic-hierachy,2021.1.2,
311,Trial # 312,layer6-8_O11_to_O12.jpg,layer6-8/layer6-8_O11_to_O12.jpg,OO,layer6-8,,,,,,,,,0.0,11.0,11.0,11.0,1226.8572910570074,None,4.0,2.768293725035619,1226.8572910570074,None,1226.8572910570074,None,1226.8572910570074,None,1,2022_Jun_27_1600,Semantic-hierachy,2021.1.2,
312,Trial # 313,layer9-17_O9_to_T8.jpg,layer9-17/layer9-17_O9_to_T8.jpg,OT,layer9-17,,,,,,,,,0.0,12.0,12.0,12.0,1229.9742981839809,None,4.0,15.542629666044377,1229.9742981839809,None,1229.9742981839809,None,1229.9742981839809,None,1,2022_Jun_27_1600,Semantic-hierachy,2021.1.2,
313,Trial # 314,layer0-5_O3_to_T2.jpg,layer0-5/layer0-5_O3_to_T2.jpg,OT,layer0-5,,,,,,,,,0.0,13.0,13.0,13.0,1245.745518081996,None,1.0,1.4026654140325263,1245.745518081996,None,1245.745518081996,None,1245.745518081996,None,1,2022_Jun_27_1600,Semantic-hierachy,2021.1.2,
314,Trial # 315,layer9-17_T1_to_T11.jpg,layer9-17/layer9-17_T1_to_T11.jpg,TT,layer9-17,,,,,,,,,0.0,14.0,14.0,14.0,1247.4301784260315,None,2.0,1.394528022967279,1247.4301784260315,None,1247.4301784260315,None,1247.4301784260315,None,1,2022_Jun_27_1600,Semantic-hierachy,2021.1.2,
315,Trial # 316,layer6-8_T10_to_T7.jpg,layer6-8/layer6-8_T10_to_T7.jpg,TT,layer6-8,,,,,,,,,0.0,15.0,15.0,15.0,1249.046896720014,None,4.0,10.211422259977551,1249.046896720014,None,1249.046896720014,None,1249.046896720014,None,1,2022_Jun_27_1600,Semantic-hierachy,2021.1.2,
316,Trial # 317,layer0-5_T6_to_T7.jpg,layer0-5/layer0-5_T6_to_T7.jpg,TT,layer0-5,,,,,,,,,0.0,16.0,16.0,16.0,1259.4840188940288,None,1.0,1.6092382509959862,1259.4840188940288,None,1259.4840188940288,None,1259.4840188940288,None,1,2022_Jun_27_1600,Semantic-hierachy,2021.1.2,
317,Trial # 318,layer9-17_O1_to_T3.jpg,layer9-17/layer9-17_O1_to_T3.jpg,OT,layer9-17,,,,,,,,,0.0,17.0,17.0,17.0,1261.317418791994,None,2.0,1.3440502419834957,1261.317418791994,None,1261.317418791994,None,1261.317418791994,None,1,2022_Jun_27_1600,Semantic-hierachy,2021.1.2,
318,Trial # 319,layer0-5_O2_to_T5.jpg,layer0-5/layer0-5_O2_to_T5.jpg,OT,layer0-5,,,,,,,,,0.0,18.0,18.0,18.0,1262.8022944650147,None,1.0,1.7018481729901396,1262.8022944650147,None,1262.8022944650147,None,1262.8022944650147,None,1,2022_Jun_27_1600,Semantic-hierachy,2021.1.2,
319,Trial # 320,layer6-8_O7_to_T10.jpg,layer6-8/layer6-8_O7_to_T10.jpg,OT,layer6-8,,,,,,,,,0.0,19.0,19.0,19.0,1264.75255775603,None,3.0,1.7913443819852546,1264.75255775603,None,1264.75255775603,None,1264.75255775603,None,1,2022_Jun_27_1600,Semantic-hierachy,2021.1.2,
320,Trial # 321,layer0-5_O5_to_O6.jpg,layer0-5/layer0-5_O5_to_O6.jpg,OO,layer0-5,,,,,,,,,0.0,20.0,20.0,20.0,1266.8362005869858,None,1.0,1.6914533280069008,1266.8362005869858,None,1266.8362005869858,None,1266.8362005869858,None,1,2022_Jun_27_1600,Semantic-hierachy,2021.1.2,
321,Trial # 322,layer9-17_O5_to_T4.jpg,layer9-17/layer9-17_O5_to_T4.jpg,OT,layer9-17,,,,,,,,,0.0,21.0,21.0,21.0,1268.7703866200172,None,2.0,1.4043365599936806,1268.7703866200172,None,1268.7703866200172,None,1268.7703866200172,None,1,2022_Jun_27_1600,Semantic-hierachy,2021.1.2,
322,Trial # 323,layer0-5_T12_to_T2.jpg,layer0-5/layer0-5_T12_to_T2.jpg,TT,layer0-5,,,,,,,,,0.0,22.0,22.0,22.0,1270.5535612250096,None,1.0,1.786185891018249,1270.5535612250096,None,1270.5535612250096,None,1270.5535612250096,None,1,2022_Jun_27_1600,Semantic-hierachy,2021.1.2,
323,Trial # 324,layer0-5_O2_to_O4.jpg,layer0-5/layer0-5_O2_to_O4.jpg,OO,layer0-5,,,,,,,,,0.0,23.0,23.0,23.0,1272.6219915460097,None,1.0,1.1764973090030253,1272.6219915460097,None,1272.6219915460097,None,1272.6219915460097,None,1,2022_Jun_27_1600,Semantic-hierachy,2021.1.2,
324,Trial # 325,layer6-8_O1_to_O9.jpg,layer6-8/layer6-8_O1_to_O9.jpg,OO,layer6-8,,,,,,,,,0.0,24.0,24.0,24.0,1274.0221034860006,None,4.0,2.4243289139703847,1274.0221034860006,None,1274.0221034860006,None,1274.0221034860006,None,1,2022_Jun_27_1600,Semantic-hierachy,2021.1.2,
325,Trial # 326,layer0-5_T3_to_T5.jpg,layer0-5/layer0-5_T3_to_T5.jpg,TT,layer0-5,,,,,,,,,0.0,25.0,25.0,25.0,1276.7225989879807,None,1.0,2.043187217961531,1276.7225989879807,None,1276.7225989879807,None,1276.7225989879807,None,1,2022_Jun_27_1600,Semantic-hierachy,2021.1.2,
326,Trial # 327,layer6-8_O8_to_T12.jpg,layer6-8/layer6-8_O8_to_T12.jpg,OT,layer6-8,,,,,,,,,0.0,26.0,26.0,26.0,1279.156293264008,None,2.0,4.332692719006445,1279.156293264008,None,1279.156293264008,None,1279.156293264008,None,1,2022_Jun_27_1600,Semantic-hierachy,2021.1.2,
327,Trial # 328,layer9-17_T11_to_T4.jpg,layer9-17/layer9-17_T11_to_T4.jpg,TT,layer9-17,,,,,,,,,0.0,27.0,27.0,27.0,1283.9588218670106,None,2.0,1.7392653589486144,1283.9588218670106,None,1283.9588218670106,None,1283.9588218670106,None,1,2022_Jun_27_1600,Semantic-hierachy,2021.1.2,
328,Trial # 329,layer9-17_O6_to_T2.jpg,layer9-17/layer9-17_O6_to_T2.jpg,OT,layer9-17,,,,,,,,,0.0,28.0,28.0,28.0,1288.0434103430016,None,2.0,1.979422592034097,1288.0434103430016,None,1288.0434103430016,None,1288.0434103430016,None,1,2022_Jun_27_1600,Semantic-hierachy,2021.1.2,
329,Trial # 330,layer9-17_T10_to_T9.jpg,layer9-17/layer9-17_T10_to_T9.jpg,TT,layer9-17,,,,,,,,,0.0,29.0,29.0,29.0,1290.2602219079854,None,2.0,1.649062865995802,1290.2602219079854,None,1290.2602219079854,None,1290.2602219079854,None,1,2022_Jun_27_1600,Semantic-hierachy,2021.1.2,
330,Trial # 331,layer0-5_O2_to_O3.jpg,layer0-5/layer0-5_O2_to_O3.jpg,OO,layer0-5,,,,,,,,,0.0,30.0,30.0,30.0,1292.1948238359764,None,1.0,1.44523404201027,1292.1948238359764,None,1292.1948238359764,None,1292.1948238359764,None,1,2022_Jun_27_1600,Semantic-hierachy,2021.1.2,
331,Trial # 332,layer6-8_O1_to_O12.jpg,layer6-8/layer6-8_O1_to_O12.jpg,OO,layer6-8,,,,,,,,,0.0,31.0,31.0,31.0,1293.9940979980163,None,3.0,1.879986418003682,1293.9940979980163,None,1293.9940979980163,None,1293.9940979980163,None,1,2022_Jun_27_1600,Semantic-hierachy,2021.1.2,
332,Trial # 333,layer0-5_O5_to_T12.jpg,layer0-5/layer0-5_O5_to_T12.jpg,OT,layer0-5,,,,,,,,,0.0,32.0,32.0,32.0,1296.1109781080158,None,1.0,2.9349317139713094,1296.1109781080158,None,1296.1109781080158,None,1296.1109781080158,None,1,2022_Jun_27_1600,Semantic-hierachy,2021.1.2,
333,Trial # 334,layer9-17_O11_to_T6.jpg,layer9-17/layer9-17_O11_to_T6.jpg,OT,layer9-17,,,,,,,,,0.0,33.0,33.0,33.0,1299.262534670008,None,4.0,3.2115194880170748,1299.262534670008,None,1299.262534670008,None,1299.262534670008,None,1,2022_Jun_27_1600,Semantic-hierachy,2021.1.2,
334,Trial # 335,layer0-5_O4_to_T1.jpg,layer0-5/layer0-5_O4_to_T1.jpg,OT,layer0-5,,,,,,,,,0.0,34.0,34.0,34.0,1302.7139874909772,None,1.0,1.681724359979853,1302.7139874909772,None,1302.7139874909772,None,1302.7139874909772,None,1,2022_Jun_27_1600,Semantic-hierachy,2021.1.2,
335,Trial # 336,layer6-8_T1_to_T6.jpg,layer6-8/layer6-8_T1_to_T6.jpg,TT,layer6-8,,,,,,,,,0.0,35.0,35.0,35.0,1304.6479004680295,None,4.0,4.513484683993738,1304.6479004680295,None,1304.6479004680295,None,1304.6479004680295,None,1,2022_Jun_27_1600,Semantic-hierachy,2021.1.2,
336,Trial # 337,layer0-5_O12_to_O6.jpg,layer0-5/layer0-5_O12_to_O6.jpg,OO,layer0-5,,,,,,,,,0.0,36.0,36.0,36.0,1309.3989916089922,None,1.0,1.8283941800473256,1309.3989916089922,None,1309.3989916089922,None,1309.3989916089922,None,1,2022_Jun_27_1600,Semantic-hierachy,2021.1.2,
337,Trial # 338,layer0-5_O1_to_O10.jpg,layer0-5/layer0-5_O1_to_O10.jpg,OO,layer0-5,,,,,,,,,0.0,37.0,37.0,37.0,1311.5166391829844,None,1.0,2.4791882939753123,1311.5166391829844,None,1311.5166391829844,None,1311.5166391829844,None,1,2022_Jun_27_1600,Semantic-hierachy,2021.1.2,
338,Trial # 339,layer0-5_O9_to_T9.jpg,layer0-5/layer0-5_O9_to_T9.jpg,OT,layer0-5,,,,,,,,,0.0,38.0,38.0,38.0,1314.2669894910068,None,1.0,1.1449155169539154,1314.2669894910068,None,1314.2669894910068,None,1314.2669894910068,None,1,2022_Jun_27_1600,Semantic-hierachy,2021.1.2,
339,Trial # 340,layer6-8_O6_to_T10.jpg,layer6-8/layer6-8_O6_to_T10.jpg,OT,layer6-8,,,,,,,,,0.0,39.0,39.0,39.0,1315.7508378149942,None,3.0,1.5425295060267672,1315.7508378149942,None,1315.7508378149942,None,1315.7508378149942,None,1,2022_Jun_27_1600,Semantic-hierachy,2021.1.2,
340,Trial # 341,layer9-17_O3_to_T3.jpg,layer9-17/layer9-17_O3_to_T3.jpg,OT,layer9-17,,,,,,,,,0.0,40.0,40.0,40.0,1317.536170983978,None,2.0,2.009488387033344,1317.536170983978,None,1317.536170983978,None,1317.536170983978,None,1,2022_Jun_27_1600,Semantic-hierachy,2021.1.2,
341,Trial # 342,layer0-5_O8_to_T8.jpg,layer0-5/layer0-5_O8_to_T8.jpg,OT,layer0-5,,,,,,,,,0.0,41.0,41.0,41.0,1319.9690832039923,None,1.0,1.9564458079985343,1319.9690832039923,None,1319.9690832039923,None,1319.9690832039923,None,1,2022_Jun_27_1600,Semantic-hierachy,2021.1.2,
342,Trial # 343,layer9-17_O11_to_O3.jpg,layer9-17/layer9-17_O11_to_O3.jpg,OO,layer9-17,,,,,,,,,0.0,42.0,42.0,42.0,1322.2039699850138,None,2.0,1.5824092540424315,1322.2039699850138,None,1322.2039699850138,None,1322.2039699850138,None,1,2022_Jun_27_1600,Semantic-hierachy,2021.1.2,
343,Trial # 344,layer9-17_O10_to_T12.jpg,layer9-17/layer9-17_O10_to_T12.jpg,OT,layer9-17,,,,,,,,,0.0,43.0,43.0,43.0,1324.0368286070295,None,2.0,1.2919684790540489,1324.0368286070295,None,1324.0368286070295,None,1324.0368286070295,None,1,2022_Jun_27_1600,Semantic-hierachy,2021.1.2,
344,Trial # 345,layer6-8_T3_to_T6.jpg,layer6-8/layer6-8_T3_to_T6.jpg,TT,layer6-8,,,,,,,,,0.0,44.0,44.0,44.0,1325.5706449840218,None,2.0,5.898040661006235,1325.5706449840218,None,1325.5706449840218,None,1325.5706449840218,None,1,2022_Jun_27_1600,Semantic-hierachy,2021.1.2,
345,Trial # 346,layer6-8_O1_to_O4.jpg,layer6-8/layer6-8_O1_to_O4.jpg,OO,layer6-8,,,,,,,,,0.0,45.0,45.0,45.0,1331.6891746360343,None,4.0,5.693892479001079,1331.6891746360343,None,1331.6891746360343,None,1331.6891746360343,None,1,2022_Jun_27_1600,Semantic-hierachy,2021.1.2,
346,Trial # 347,layer0-5_O8_to_T3.jpg,layer0-5/layer0-5_O8_to_T3.jpg,OT,layer0-5,,,,,,,,,0.0,46.0,46.0,46.0,1337.5757142159855,None,1.0,1.449045652989298,1337.5757142159855,None,1337.5757142159855,None,1337.5757142159855,None,1,2022_Jun_27_1600,Semantic-hierachy,2021.1.2,
347,Trial # 348,layer9-17_T2_to_T7.jpg,layer9-17/layer9-17_T2_to_T7.jpg,TT,layer9-17,,,,,,,,,0.0,47.0,47.0,47.0,1339.2926399839926,None,2.0,1.4410757349687628,1339.2926399839926,None,1339.2926399839926,None,1339.2926399839926,None,1,2022_Jun_27_1600,Semantic-hierachy,2021.1.2,
348,Trial # 349,layer0-5_O9_to_T4.jpg,layer0-5/layer0-5_O9_to_T4.jpg,OT,layer0-5,,,,,,,,,0.0,48.0,48.0,48.0,1340.9916331610293,None,1.0,1.845538812049199,1340.9916331610293,None,1340.9916331610293,None,1340.9916331610293,None,1,2022_Jun_27_1600,Semantic-hierachy,2021.1.2,
349,Trial # 350,layer9-17_T12_to_T9.jpg,layer9-17/layer9-17_T12_to_T9.jpg,TT,layer9-17,,,,,,,,,0.0,49.0,49.0,49.0,1343.5440277049784,None,2.0,1.3664008140331134,1343.5440277049784,None,1343.5440277049784,None,1343.5440277049784,None,1,2022_Jun_27_1600,Semantic-hierachy,2021.1.2,
350,Trial # 351,layer6-8_O11_to_O6.jpg,layer6-8/layer6-8_O11_to_O6.jpg,OO,layer6-8,,,,,,,,,0.0,50.0,50.0,50.0,1345.4603056110209,None,3.0,3.9141600550501607,1345.4603056110209,None,1345.4603056110209,None,1345.4603056110209,None,1,2022_Jun_27_1600,Semantic-hierachy,2021.1.2,
351,Trial # 352,layer0-5_O10_to_O11.jpg,layer0-5/layer0-5_O10_to_O11.jpg,OO,layer0-5,,,,,,,,,0.0,51.0,51.0,51.0,1350.6620781350066,None,1.0,1.7324150479980744,1350.6620781350066,None,1350.6620781350066,None,1350.6620781350066,None,1,2022_Jun_27_1600,Semantic-hierachy,2021.1.2,
352,Trial # 353,layer9-17_O4_to_T7.jpg,layer9-17/layer9-17_O4_to_T7.jpg,OT,layer9-17,,,,,,,,,0.0,52.0,52.0,52.0,1352.5968461899902,None,2.0,1.6545386229990982,1352.5968461899902,None,1352.5968461899902,None,1352.5968461899902,None,1,2022_Jun_27_1600,Semantic-hierachy,2021.1.2,
353,Trial # 354,layer0-5_O2_to_T11.jpg,layer0-5/layer0-5_O2_to_T11.jpg,OT,layer0-5,,,,,,,,,0.0,53.0,53.0,53.0,1354.430617060978,None,1.0,1.7226846960256808,1354.430617060978,None,1354.430617060978,None,1354.430617060978,None,1,2022_Jun_27_1600,Semantic-hierachy,2021.1.2,
354,Trial # 355,layer9-17_O5_to_O6.jpg,layer9-17/layer9-17_O5_to_O6.jpg,OO,layer9-17,,,,,,,,,0.0,54.0,54.0,54.0,1356.5640573980054,None,2.0,1.577346172009129,1356.5640573980054,None,1356.5640573980054,None,1356.5640573980054,None,1,2022_Jun_27_1600,Semantic-hierachy,2021.1.2,
355,Trial # 356,layer6-8_O5_to_T10.jpg,layer6-8/layer6-8_O5_to_T10.jpg,OT,layer6-8,,,,,,,,,0.0,55.0,55.0,55.0,1358.3486601629993,None,3.0,1.7285325969569385,1358.3486601629993,None,1358.3486601629993,None,1358.3486601629993,None,1,2022_Jun_27_1600,Semantic-hierachy,2021.1.2,
356,Trial # 357,layer6-8_T3_to_T4.jpg,layer6-8/layer6-8_T3_to_T4.jpg,TT,layer6-8,,,,,,,,,0.0,56.0,56.0,56.0,1360.2819601800293,None,2.0,6.080863734008744,1360.2819601800293,None,1360.2819601800293,None,1360.2819601800293,None,1,2022_Jun_27_1600,Semantic-hierachy,2021.1.2,
357,Trial # 358,layer6-8_T4_to_T8.jpg,layer6-8/layer6-8_T4_to_T8.jpg,TT,layer6-8,,,,,,,,,0.0,57.0,57.0,57.0,1366.5666451230063,None,3.0,5.367792367003858,1366.5666451230063,None,1366.5666451230063,None,1366.5666451230063,None,1,2022_Jun_27_1600,Semantic-hierachy,2021.1.2,
358,Trial # 359,layer0-5_O2_to_T4.jpg,layer0-5/layer0-5_O2_to_T4.jpg,OT,layer0-5,,,,,,,,,0.0,58.0,58.0,58.0,1372.252950816997,None,1.0,2.493873011029791,1372.252950816997,None,1372.252950816997,None,1372.252950816997,None,1,2022_Jun_27_1600,Semantic-hierachy,2021.1.2,
359,Trial # 360,layer0-5_O4_to_O7.jpg,layer0-5/layer0-5_O4_to_O7.jpg,OO,layer0-5,,,,,,,,,0.0,59.0,59.0,59.0,1375.0691806820105,None,1.0,1.540707306994591,1375.0691806820105,None,1375.0691806820105,None,1375.0691806820105,None,1,2022_Jun_27_1600,Semantic-hierachy,2021.1.2,
360,Trial # 361,layer9-17_O12_to_T7.jpg,layer9-17/layer9-17_O12_to_T7.jpg,OT,layer9-17,,,,,,,,,0.0,60.0,60.0,60.0,1376.8023759360076,None,2.0,1.4255164060159586,1376.8023759360076,None,1376.8023759360076,None,1376.8023759360076,None,1,2022_Jun_27_1600,Semantic-hierachy,2021.1.2,
361,Trial # 362,layer6-8_O11_to_T8.jpg,layer6-8/layer6-8_O11_to_T8.jpg,OT,layer6-8,,,,,,,,,0.0,61.0,61.0,61.0,1378.5049254280166,None,3.0,2.0795640610158443,1378.5049254280166,None,1378.5049254280166,None,1378.5049254280166,None,1,2022_Jun_27_1600,Semantic-hierachy,2021.1.2,
362,Trial # 363,layer9-17_O10_to_T6.jpg,layer9-17/layer9-17_O10_to_T6.jpg,OT,layer9-17,,,,,,,,,0.0,62.0,62.0,62.0,1380.770773568016,None,2.0,2.4084211330045946,1380.770773568016,None,1380.770773568016,None,1380.770773568016,None,1,2022_Jun_27_1600,Semantic-hierachy,2021.1.2,
363,Trial # 364,layer0-5_O5_to_T7.jpg,layer0-5/layer0-5_O5_to_T7.jpg,OT,layer0-5,,,,,,,,,0.0,63.0,63.0,63.0,1386.1390749930288,None,1.0,1.7125790379941463,1386.1390749930288,None,1386.1390749930288,None,1386.1390749930288,None,1,2022_Jun_27_1600,Semantic-hierachy,2021.1.2,
