,Trial_num,image_name,image_path,pair_type,layers,block1.thisRepN,block1.thisTrialN,block1.thisN,block1.thisIndex,block2.thisRepN,block2.thisTrialN,block2.thisN,block2.thisIndex,block3.thisRepN,block3.thisTrialN,block3.thisN,block3.thisIndex,image_8.started,image_8.stopped,selected_semantic.response,selected_semantic.rt,selected_semantic.started,selected_semantic.stopped,Instruction.started,Instruction.stopped,Trial_number.started,Trial_number.stopped,session,date,expName,psychopyVersion,Unnamed: 33
0,Trial # 1,layer0-5_O2_to_T1.jpg,layer0-5/layer0-5_O2_to_T1.jpg,OT,layer0-5,0.0,0.0,0.0,0.0,,,,,,,,,37.98694918514229,None,1.0,15.110814820043744,37.98694918514229,None,37.98694918514229,None,37.98694918514229,None,1,2022_Apr_19_1452,Semantic-hierachy,2021.1.2,
1,Trial # 2,layer0-5_O11_to_T7.jpg,layer0-5/layer0-5_O11_to_T7.jpg,OT,layer0-5,0.0,1.0,1.0,1.0,,,,,,,,,90.82084790011868,None,1.0,12.84446383593604,90.82084790011868,None,90.82084790011868,None,90.82084790011868,None,1,2022_Apr_19_1452,Semantic-hierachy,2021.1.2,
2,Trial # 3,layer6-8_O3_to_O5.jpg,layer6-8/layer6-8_O3_to_O5.jpg,OO,layer6-8,0.0,2.0,2.0,2.0,,,,,,,,,104.30678651598282,None,4.0,12.069470373913646,104.30678651598282,None,104.30678651598282,None,104.30678651598282,None,1,2022_Apr_19_1452,Semantic-hierachy,2021.1.2,
3,Trial # 4,layer6-8_O11_to_O4.jpg,layer6-8/layer6-8_O11_to_O4.jpg,OO,layer6-8,0.0,3.0,3.0,3.0,,,,,,,,,116.97846120898612,None,3.0,11.245952985016627,116.97846120898612,None,116.97846120898612,None,116.97846120898612,None,1,2022_Apr_19_1452,Semantic-hierachy,2021.1.2,
4,Trial # 5,layer6-8_O8_to_T8.jpg,layer6-8/layer6-8_O8_to_T8.jpg,OT,layer6-8,0.0,4.0,4.0,4.0,,,,,,,,,128.5476991001051,None,3.0,2.386461606947705,128.5476991001051,None,128.5476991001051,None,128.5476991001051,None,1,2022_Apr_19_1452,Semantic-hierachy,2021.1.2,
5,Trial # 6,layer0-5_O11_to_O8.jpg,layer0-5/layer0-5_O11_to_O8.jpg,OO,layer0-5,0.0,5.0,5.0,5.0,,,,,,,,,131.5490447920747,None,1.0,2.455519850132987,131.5490447920747,None,131.5490447920747,None,131.5490447920747,None,1,2022_Apr_19_1452,Semantic-hierachy,2021.1.2,
6,Trial # 7,layer0-5_T10_to_T11.jpg,layer0-5/layer0-5_T10_to_T11.jpg,TT,layer0-5,0.0,6.0,6.0,6.0,,,,,,,,,134.99986118497327,None,1.0,2.526259611127898,134.99986118497327,None,134.99986118497327,None,134.99986118497327,None,1,2022_Apr_19_1452,Semantic-hierachy,2021.1.2,
7,Trial # 8,layer9-17_O6_to_O9.jpg,layer9-17/layer9-17_O6_to_O9.jpg,OO,layer9-17,0.0,7.0,7.0,7.0,,,,,,,,,138.8177823801525,None,2.0,2.174362048972398,138.8177823801525,None,138.8177823801525,None,138.8177823801525,None,1,2022_Apr_19_1452,Semantic-hierachy,2021.1.2,
8,Trial # 9,layer6-8_O12_to_O9.jpg,layer6-8/layer6-8_O12_to_O9.jpg,OO,layer6-8,0.0,8.0,8.0,8.0,,,,,,,,,141.51909969910048,None,3.0,3.2599332241807133,141.51909969910048,None,141.51909969910048,None,141.51909969910048,None,1,2022_Apr_19_1452,Semantic-hierachy,2021.1.2,
9,Trial # 10,layer0-5_O10_to_T2.jpg,layer0-5/layer0-5_O10_to_T2.jpg,OT,layer0-5,0.0,9.0,9.0,9.0,,,,,,,,,145.2528939479962,None,4.0,6.924563854932785,145.2528939479962,None,145.2528939479962,None,145.2528939479962,None,1,2022_Apr_19_1452,Semantic-hierachy,2021.1.2,
10,Trial # 11,layer9-17_T10_to_T2.jpg,layer9-17/layer9-17_T10_to_T2.jpg,TT,layer9-17,0.0,10.0,10.0,10.0,,,,,,,,,152.53852906799875,None,3.0,30.21582930791192,152.53852906799875,None,152.53852906799875,None,152.53852906799875,None,1,2022_Apr_19_1452,Semantic-hierachy,2021.1.2,
11,Trial # 12,layer6-8_T6_to_T7.jpg,layer6-8/layer6-8_T6_to_T7.jpg,TT,layer6-8,0.0,11.0,11.0,11.0,,,,,,,,,184.7654384020716,None,3.0,3.477380630094558,184.7654384020716,None,184.7654384020716,None,184.7654384020716,None,1,2022_Apr_19_1452,Semantic-hierachy,2021.1.2,
12,Trial # 13,layer9-17_O10_to_T2.jpg,layer9-17/layer9-17_O10_to_T2.jpg,OT,layer9-17,0.0,12.0,12.0,12.0,,,,,,,,,188.6505894639995,None,2.0,1.7594549120403826,188.6505894639995,None,188.6505894639995,None,188.6505894639995,None,1,2022_Apr_19_1452,Semantic-hierachy,2021.1.2,
13,Trial # 14,layer6-8_T4_to_T7.jpg,layer6-8/layer6-8_T4_to_T7.jpg,TT,layer6-8,0.0,13.0,13.0,13.0,,,,,,,,,190.71838579606265,None,3.0,3.357665349030867,190.71838579606265,None,190.71838579606265,None,190.71838579606265,None,1,2022_Apr_19_1452,Semantic-hierachy,2021.1.2,
14,Trial # 15,layer9-17_O8_to_T2.jpg,layer9-17/layer9-17_O8_to_T2.jpg,OT,layer9-17,0.0,14.0,14.0,14.0,,,,,,,,,194.50224338495173,None,2.0,1.9612109260633588,194.50224338495173,None,194.50224338495173,None,194.50224338495173,None,1,2022_Apr_19_1452,Semantic-hierachy,2021.1.2,
15,Trial # 16,layer0-5_T6_to_T9.jpg,layer0-5/layer0-5_T6_to_T9.jpg,TT,layer0-5,0.0,15.0,15.0,15.0,,,,,,,,,196.80246746493503,None,1.0,1.7424333419185132,196.80246746493503,None,196.80246746493503,None,196.80246746493503,None,1,2022_Apr_19_1452,Semantic-hierachy,2021.1.2,
16,Trial # 17,layer0-5_O11_to_O12.jpg,layer0-5/layer0-5_O11_to_O12.jpg,OO,layer0-5,0.0,16.0,16.0,16.0,,,,,,,,,198.9195114360191,None,1.0,1.557519427035004,198.9195114360191,None,198.9195114360191,None,198.9195114360191,None,1,2022_Apr_19_1452,Semantic-hierachy,2021.1.2,
17,Trial # 18,layer0-5_T11_to_T5.jpg,layer0-5/layer0-5_T11_to_T5.jpg,TT,layer0-5,0.0,17.0,17.0,17.0,,,,,,,,,200.9881439460441,None,1.0,1.6129769191611558,200.9881439460441,None,200.9881439460441,None,200.9881439460441,None,1,2022_Apr_19_1452,Semantic-hierachy,2021.1.2,
18,Trial # 19,layer0-5_O6_to_T12.jpg,layer0-5/layer0-5_O6_to_T12.jpg,OT,layer0-5,0.0,18.0,18.0,18.0,,,,,,,,,203.30406545009464,None,1.0,1.7579740299843252,203.30406545009464,None,203.30406545009464,None,203.30406545009464,None,1,2022_Apr_19_1452,Semantic-hierachy,2021.1.2,
19,Trial # 20,layer6-8_T6_to_T8.jpg,layer6-8/layer6-8_T6_to_T8.jpg,TT,layer6-8,0.0,19.0,19.0,19.0,,,,,,,,,206.1728187780828,None,3.0,2.4111323901452124,206.1728187780828,None,206.1728187780828,None,206.1728187780828,None,1,2022_Apr_19_1452,Semantic-hierachy,2021.1.2,
20,Trial # 21,layer9-17_T2_to_T5.jpg,layer9-17/layer9-17_T2_to_T5.jpg,TT,layer9-17,0.0,20.0,20.0,20.0,,,,,,,,,209.0062571880408,None,2.0,2.527198219206184,209.0062571880408,None,209.0062571880408,None,209.0062571880408,None,1,2022_Apr_19_1452,Semantic-hierachy,2021.1.2,
21,Trial # 22,layer6-8_O2_to_O6.jpg,layer6-8/layer6-8_O2_to_O6.jpg,OO,layer6-8,0.0,21.0,21.0,21.0,,,,,,,,,211.8410510099493,None,4.0,9.64589972095564,211.8410510099493,None,211.8410510099493,None,211.8410510099493,None,1,2022_Apr_19_1452,Semantic-hierachy,2021.1.2,
22,Trial # 23,layer9-17_O3_to_T12.jpg,layer9-17/layer9-17_O3_to_T12.jpg,OT,layer9-17,0.0,22.0,22.0,22.0,,,,,,,,,223.3605686831288,None,2.0,1.6907683671452105,223.3605686831288,None,223.3605686831288,None,223.3605686831288,None,1,2022_Apr_19_1452,Semantic-hierachy,2021.1.2,
23,Trial # 24,layer0-5_O11_to_O3.jpg,layer0-5/layer0-5_O11_to_O3.jpg,OO,layer0-5,0.0,23.0,23.0,23.0,,,,,,,,,225.36076650512405,None,1.0,1.544869374949485,225.36076650512405,None,225.36076650512405,None,225.36076650512405,None,1,2022_Apr_19_1452,Semantic-hierachy,2021.1.2,
24,Trial # 25,layer6-8_O2_to_O9.jpg,layer6-8/layer6-8_O2_to_O9.jpg,OO,layer6-8,0.0,24.0,24.0,24.0,,,,,,,,,227.19634629110809,None,4.0,3.010372275020927,227.19634629110809,None,227.19634629110809,None,227.19634629110809,None,1,2022_Apr_19_1452,Semantic-hierachy,2021.1.2,
25,Trial # 26,layer9-17_O10_to_O8.jpg,layer9-17/layer9-17_O10_to_O8.jpg,OO,layer9-17,0.0,25.0,25.0,25.0,,,,,,,,,230.91425761813292,None,4.0,3.994404717115685,230.91425761813292,None,230.91425761813292,None,230.91425761813292,None,1,2022_Apr_19_1452,Semantic-hierachy,2021.1.2,
26,Trial # 27,layer9-17_T4_to_T6.jpg,layer9-17/layer9-17_T4_to_T6.jpg,TT,layer9-17,0.0,26.0,26.0,26.0,,,,,,,,,235.2647658509668,None,2.0,1.625312042189762,235.2647658509668,None,235.2647658509668,None,235.2647658509668,None,1,2022_Apr_19_1452,Semantic-hierachy,2021.1.2,
27,Trial # 28,layer6-8_O7_to_T8.jpg,layer6-8/layer6-8_O7_to_T8.jpg,OT,layer6-8,0.0,27.0,27.0,27.0,,,,,,,,,237.0996181520168,None,2.0,1.3920808730181309,237.0996181520168,None,237.0996181520168,None,237.0996181520168,None,1,2022_Apr_19_1452,Semantic-hierachy,2021.1.2,
28,Trial # 29,layer6-8_T4_to_T5.jpg,layer6-8/layer6-8_T4_to_T5.jpg,TT,layer6-8,0.0,28.0,28.0,28.0,,,,,,,,,239.11562207108364,None,3.0,2.8389507359825075,239.11562207108364,None,239.11562207108364,None,239.11562207108364,None,1,2022_Apr_19_1452,Semantic-hierachy,2021.1.2,
29,Trial # 30,layer6-8_T10_to_T9.jpg,layer6-8/layer6-8_T10_to_T9.jpg,TT,layer6-8,0.0,29.0,29.0,29.0,,,,,,,,,242.2343253660947,None,4.0,6.028691615210846,242.2343253660947,None,242.2343253660947,None,242.2343253660947,None,1,2022_Apr_19_1452,Semantic-hierachy,2021.1.2,
30,Trial # 31,layer9-17_O1_to_O8.jpg,layer9-17/layer9-17_O1_to_O8.jpg,OO,layer9-17,0.0,30.0,30.0,30.0,,,,,,,,,249.1522863740101,None,2.0,1.6095442639198154,249.1522863740101,None,249.1522863740101,None,249.1522863740101,None,1,2022_Apr_19_1452,Semantic-hierachy,2021.1.2,
31,Trial # 32,layer9-17_O12_to_O7.jpg,layer9-17/layer9-17_O12_to_O7.jpg,OO,layer9-17,0.0,31.0,31.0,31.0,,,,,,,,,251.3703543541488,None,3.0,1.9790125340223312,251.3703543541488,None,251.3703543541488,None,251.3703543541488,None,1,2022_Apr_19_1452,Semantic-hierachy,2021.1.2,
32,Trial # 33,layer9-17_T10_to_T12.jpg,layer9-17/layer9-17_T10_to_T12.jpg,TT,layer9-17,0.0,32.0,32.0,32.0,,,,,,,,,253.752928446047,None,4.0,2.960787239018828,253.752928446047,None,253.752928446047,None,253.752928446047,None,1,2022_Apr_19_1452,Semantic-hierachy,2021.1.2,
33,Trial # 34,layer0-5_T2_to_T6.jpg,layer0-5/layer0-5_T2_to_T6.jpg,TT,layer0-5,0.0,33.0,33.0,33.0,,,,,,,,,257.23788435198367,None,4.0,6.594841821817681,257.23788435198367,None,257.23788435198367,None,257.23788435198367,None,1,2022_Apr_19_1452,Semantic-hierachy,2021.1.2,
34,Trial # 35,layer6-8_T11_to_T2.jpg,layer6-8/layer6-8_T11_to_T2.jpg,TT,layer6-8,0.0,34.0,34.0,34.0,,,,,,,,,264.2403775451239,None,4.0,13.715049460995942,264.2403775451239,None,264.2403775451239,None,264.2403775451239,None,1,2022_Apr_19_1452,Semantic-hierachy,2021.1.2,
35,Trial # 36,layer6-8_O4_to_T3.jpg,layer6-8/layer6-8_O4_to_T3.jpg,OT,layer6-8,0.0,35.0,35.0,35.0,,,,,,,,,278.66082278313115,None,3.0,1.9920818111859264,278.66082278313115,None,278.66082278313115,None,278.66082278313115,None,1,2022_Apr_19_1452,Semantic-hierachy,2021.1.2,
36,Trial # 37,layer6-8_O3_to_T11.jpg,layer6-8/layer6-8_O3_to_T11.jpg,OT,layer6-8,0.0,36.0,36.0,36.0,,,,,,,,,281.6788924590219,None,3.0,3.989213780965656,281.6788924590219,None,281.6788924590219,None,281.6788924590219,None,1,2022_Apr_19_1452,Semantic-hierachy,2021.1.2,
37,Trial # 38,layer6-8_T1_to_T2.jpg,layer6-8/layer6-8_T1_to_T2.jpg,TT,layer6-8,0.0,37.0,37.0,37.0,,,,,,,,,286.3474687461276,None,4.0,7.362616783939302,286.3474687461276,None,286.3474687461276,None,286.3474687461276,None,1,2022_Apr_19_1452,Semantic-hierachy,2021.1.2,
38,Trial # 39,layer9-17_O2_to_O6.jpg,layer9-17/layer9-17_O2_to_O6.jpg,OO,layer9-17,0.0,38.0,38.0,38.0,,,,,,,,,294.01575910905376,None,4.0,4.609686001902446,294.01575910905376,None,294.01575910905376,None,294.01575910905376,None,1,2022_Apr_19_1452,Semantic-hierachy,2021.1.2,
39,Trial # 40,layer9-17_O4_to_T2.jpg,layer9-17/layer9-17_O4_to_T2.jpg,OT,layer9-17,0.0,39.0,39.0,39.0,,,,,,,,,299.60043598897755,None,2.0,2.277706664055586,299.60043598897755,None,299.60043598897755,None,299.60043598897755,None,1,2022_Apr_19_1452,Semantic-hierachy,2021.1.2,
40,Trial # 41,layer6-8_O5_to_T3.jpg,layer6-8/layer6-8_O5_to_T3.jpg,OT,layer6-8,0.0,40.0,40.0,40.0,,,,,,,,,302.2859564770479,None,2.0,1.8098514990415424,302.2859564770479,None,302.2859564770479,None,302.2859564770479,None,1,2022_Apr_19_1452,Semantic-hierachy,2021.1.2,
41,Trial # 42,layer6-8_O2_to_O3.jpg,layer6-8/layer6-8_O2_to_O3.jpg,OO,layer6-8,0.0,41.0,41.0,41.0,,,,,,,,,304.7022599671036,None,4.0,11.53256035503,304.7022599671036,None,304.7022599671036,None,304.7022599671036,None,1,2022_Apr_19_1452,Semantic-hierachy,2021.1.2,
42,Trial # 43,layer6-8_O1_to_T6.jpg,layer6-8/layer6-8_O1_to_T6.jpg,OT,layer6-8,0.0,42.0,42.0,42.0,,,,,,,,,323.7916235460434,None,3.0,6.062213510973379,323.7916235460434,None,323.7916235460434,None,323.7916235460434,None,1,2022_Apr_19_1452,Semantic-hierachy,2021.1.2,
43,Trial # 44,layer6-8_O2_to_T12.jpg,layer6-8/layer6-8_O2_to_T12.jpg,OT,layer6-8,0.0,43.0,43.0,43.0,,,,,,,,,330.1602970131207,None,3.0,1.732084573013708,330.1602970131207,None,330.1602970131207,None,330.1602970131207,None,1,2022_Apr_19_1452,Semantic-hierachy,2021.1.2,
44,Trial # 45,layer9-17_O2_to_O8.jpg,layer9-17/layer9-17_O2_to_O8.jpg,OO,layer9-17,0.0,44.0,44.0,44.0,,,,,,,,,333.0450016229879,None,4.0,5.062595999101177,333.0450016229879,None,333.0450016229879,None,333.0450016229879,None,1,2022_Apr_19_1452,Semantic-hierachy,2021.1.2,
45,Trial # 46,layer9-17_O10_to_O4.jpg,layer9-17/layer9-17_O10_to_O4.jpg,OO,layer9-17,0.0,45.0,45.0,45.0,,,,,,,,,339.8129816080909,None,2.0,4.878819869831204,339.8129816080909,None,339.8129816080909,None,339.8129816080909,None,1,2022_Apr_19_1452,Semantic-hierachy,2021.1.2,
46,Trial # 47,layer0-5_O1_to_O4.jpg,layer0-5/layer0-5_O1_to_O4.jpg,OO,layer0-5,0.0,46.0,46.0,46.0,,,,,,,,,345.09794545313343,None,1.0,2.1949665879365057,345.09794545313343,None,345.09794545313343,None,345.09794545313343,None,1,2022_Apr_19_1452,Semantic-hierachy,2021.1.2,
47,Trial # 48,layer0-5_T4_to_T5.jpg,layer0-5/layer0-5_T4_to_T5.jpg,TT,layer0-5,0.0,47.0,47.0,47.0,,,,,,,,,347.9496714801062,None,1.0,2.4251267150975764,347.9496714801062,None,347.9496714801062,None,347.9496714801062,None,1,2022_Apr_19_1452,Semantic-hierachy,2021.1.2,
48,Trial # 49,layer9-17_T12_to_T8.jpg,layer9-17/layer9-17_T12_to_T8.jpg,TT,layer9-17,0.0,48.0,48.0,48.0,,,,,,,,,350.9169013539795,None,2.0,6.563412436982617,350.9169013539795,None,350.9169013539795,None,350.9169013539795,None,1,2022_Apr_19_1452,Semantic-hierachy,2021.1.2,
49,Trial # 50,layer0-5_T10_to_T5.jpg,layer0-5/layer0-5_T10_to_T5.jpg,TT,layer0-5,0.0,49.0,49.0,49.0,,,,,,,,,357.9688374900725,None,1.0,1.4702076779212805,357.9688374900725,None,357.9688374900725,None,357.9688374900725,None,1,2022_Apr_19_1452,Semantic-hierachy,2021.1.2,
50,Trial # 51,layer6-8_O10_to_O8.jpg,layer6-8/layer6-8_O10_to_O8.jpg,OO,layer6-8,0.0,50.0,50.0,50.0,,,,,,,,,359.9200985189527,None,3.0,2.4754702339414507,359.9200985189527,None,359.9200985189527,None,359.9200985189527,None,1,2022_Apr_19_1452,Semantic-hierachy,2021.1.2,
51,Trial # 52,layer9-17_O3_to_O5.jpg,layer9-17/layer9-17_O3_to_O5.jpg,OO,layer9-17,0.0,51.0,51.0,51.0,,,,,,,,,362.78762545692734,None,2.0,1.2593844798393548,362.78762545692734,None,362.78762545692734,None,362.78762545692734,None,1,2022_Apr_19_1452,Semantic-hierachy,2021.1.2,
52,Trial # 53,layer6-8_T1_to_T12.jpg,layer6-8/layer6-8_T1_to_T12.jpg,TT,layer6-8,0.0,52.0,52.0,52.0,,,,,,,,,364.270736505976,None,3.0,1.777731270994991,364.270736505976,None,364.270736505976,None,364.270736505976,None,1,2022_Apr_19_1452,Semantic-hierachy,2021.1.2,
53,Trial # 54,layer0-5_O4_to_O9.jpg,layer0-5/layer0-5_O4_to_O9.jpg,OO,layer0-5,0.0,53.0,53.0,53.0,,,,,,,,,366.38900978304446,None,1.0,1.8764583959709853,366.38900978304446,None,366.38900978304446,None,366.38900978304446,None,1,2022_Apr_19_1452,Semantic-hierachy,2021.1.2,
54,Trial # 55,layer0-5_O5_to_O9.jpg,layer0-5/layer0-5_O5_to_O9.jpg,OO,layer0-5,0.0,54.0,54.0,54.0,,,,,,,,,368.6220211561304,None,1.0,1.275470235850662,368.6220211561304,None,368.6220211561304,None,368.6220211561304,None,1,2022_Apr_19_1452,Semantic-hierachy,2021.1.2,
55,Trial # 56,layer0-5_O1_to_O2.jpg,layer0-5/layer0-5_O1_to_O2.jpg,OO,layer0-5,0.0,55.0,55.0,55.0,,,,,,,,,370.1222522039898,None,1.0,1.0444341711699965,370.1222522039898,None,370.1222522039898,None,370.1222522039898,None,1,2022_Apr_19_1452,Semantic-hierachy,2021.1.2,
56,Trial # 57,layer9-17_T12_to_T3.jpg,layer9-17/layer9-17_T12_to_T3.jpg,TT,layer9-17,0.0,56.0,56.0,56.0,,,,,,,,,371.4074088761117,None,2.0,1.789138986961916,371.4074088761117,None,371.4074088761117,None,371.4074088761117,None,1,2022_Apr_19_1452,Semantic-hierachy,2021.1.2,
57,Trial # 58,layer0-5_O7_to_O9.jpg,layer0-5/layer0-5_O7_to_O9.jpg,OO,layer0-5,0.0,57.0,57.0,57.0,,,,,,,,,373.4237613871228,None,1.0,1.9647231651470063,373.4237613871228,None,373.4237613871228,None,373.4237613871228,None,1,2022_Apr_19_1452,Semantic-hierachy,2021.1.2,
58,Trial # 59,layer0-5_T5_to_T9.jpg,layer0-5/layer0-5_T5_to_T9.jpg,TT,layer0-5,0.0,58.0,58.0,58.0,,,,,,,,,375.6243517580442,None,1.0,2.2048793740104884,375.6243517580442,None,375.6243517580442,None,375.6243517580442,None,1,2022_Apr_19_1452,Semantic-hierachy,2021.1.2,
59,Trial # 60,layer9-17_O1_to_O9.jpg,layer9-17/layer9-17_O1_to_O9.jpg,OO,layer9-17,0.0,59.0,59.0,59.0,,,,,,,,,377.99213778600097,None,3.0,7.2094000689685345,377.99213778600097,None,377.99213778600097,None,377.99213778600097,None,1,2022_Apr_19_1452,Semantic-hierachy,2021.1.2,
60,Trial # 61,layer0-5_O6_to_O7.jpg,layer0-5/layer0-5_O6_to_O7.jpg,OO,layer0-5,0.0,60.0,60.0,60.0,,,,,,,,,385.5279492789414,None,1.0,1.7684844678733498,385.5279492789414,None,385.5279492789414,None,385.5279492789414,None,1,2022_Apr_19_1452,Semantic-hierachy,2021.1.2,
61,Trial # 62,layer9-17_T5_to_T6.jpg,layer9-17/layer9-17_T5_to_T6.jpg,TT,layer9-17,0.0,61.0,61.0,61.0,,,,,,,,,387.578946813941,None,3.0,3.0760325950104743,387.578946813941,None,387.578946813941,None,387.578946813941,None,1,2022_Apr_19_1452,Semantic-hierachy,2021.1.2,
62,Trial # 63,layer9-17_T4_to_T9.jpg,layer9-17/layer9-17_T4_to_T9.jpg,TT,layer9-17,0.0,62.0,62.0,62.0,,,,,,,,,390.9959730200935,None,2.0,1.3602662510238588,390.9959730200935,None,390.9959730200935,None,390.9959730200935,None,1,2022_Apr_19_1452,Semantic-hierachy,2021.1.2,
63,Trial # 64,layer0-5_O11_to_T1.jpg,layer0-5/layer0-5_O11_to_T1.jpg,OT,layer0-5,0.0,63.0,63.0,63.0,,,,,,,,,392.529645573115,None,1.0,1.8929392469581217,392.529645573115,None,392.529645573115,None,392.529645573115,None,1,2022_Apr_19_1452,Semantic-hierachy,2021.1.2,
64,Trial # 65,layer6-8_T5_to_T9.jpg,layer6-8/layer6-8_T5_to_T9.jpg,TT,layer6-8,0.0,64.0,64.0,64.0,,,,,,,,,394.7306207150687,None,4.0,4.945031577022746,394.7306207150687,None,394.7306207150687,None,394.7306207150687,None,1,2022_Apr_19_1452,Semantic-hierachy,2021.1.2,
65,Trial # 66,layer0-5_T4_to_T7.jpg,layer0-5/layer0-5_T4_to_T7.jpg,TT,layer0-5,0.0,65.0,65.0,65.0,,,,,,,,,400.0148911380674,None,1.0,1.691702646203339,400.0148911380674,None,400.0148911380674,None,400.0148911380674,None,1,2022_Apr_19_1452,Semantic-hierachy,2021.1.2,
66,Trial # 67,layer0-5_O2_to_O6.jpg,layer0-5/layer0-5_O2_to_O6.jpg,OO,layer0-5,0.0,66.0,66.0,66.0,,,,,,,,,402.0825006661471,None,1.0,1.206964385928586,402.0825006661471,None,402.0825006661471,None,402.0825006661471,None,1,2022_Apr_19_1452,Semantic-hierachy,2021.1.2,
67,Trial # 68,layer9-17_O12_to_T3.jpg,layer9-17/layer9-17_O12_to_T3.jpg,OT,layer9-17,0.0,67.0,67.0,67.0,,,,,,,,,403.5166176881176,None,2.0,1.3459840728901329,403.5166176881176,None,403.5166176881176,None,403.5166176881176,None,1,2022_Apr_19_1452,Semantic-hierachy,2021.1.2,
68,Trial # 69,layer9-17_O7_to_O9.jpg,layer9-17/layer9-17_O7_to_O9.jpg,OO,layer9-17,0.0,68.0,68.0,68.0,,,,,,,,,405.0329530220479,None,4.0,3.5449969260953367,405.0329530220479,None,405.0329530220479,None,405.0329530220479,None,1,2022_Apr_19_1452,Semantic-hierachy,2021.1.2,
69,Trial # 70,layer9-17_T1_to_T8.jpg,layer9-17/layer9-17_T1_to_T8.jpg,TT,layer9-17,0.0,69.0,69.0,69.0,,,,,,,,,408.83438742603175,None,4.0,9.644796879962088,408.83438742603175,None,408.83438742603175,None,408.83438742603175,None,1,2022_Apr_19_1452,Semantic-hierachy,2021.1.2,
70,Trial # 71,layer0-5_O3_to_T8.jpg,layer0-5/layer0-5_O3_to_T8.jpg,OT,layer0-5,0.0,70.0,70.0,70.0,,,,,,,,,418.7216605830472,None,1.0,1.5244603888131678,418.7216605830472,None,418.7216605830472,None,418.7216605830472,None,1,2022_Apr_19_1452,Semantic-hierachy,2021.1.2,
71,Trial # 72,layer9-17_O9_to_T2.jpg,layer9-17/layer9-17_O9_to_T2.jpg,OT,layer9-17,0.0,71.0,71.0,71.0,,,,,,,,,420.48809458408505,None,2.0,7.546292669139802,420.48809458408505,None,420.48809458408505,None,420.48809458408505,None,1,2022_Apr_19_1452,Semantic-hierachy,2021.1.2,
72,Trial # 73,layer9-17_O5_to_O7.jpg,layer9-17/layer9-17_O5_to_O7.jpg,OO,layer9-17,0.0,72.0,72.0,72.0,,,,,,,,,430.1249241940677,None,2.0,2.776053136913106,430.1249241940677,None,430.1249241940677,None,430.1249241940677,None,1,2022_Apr_19_1452,Semantic-hierachy,2021.1.2,
73,Trial # 74,layer0-5_T11_to_T9.jpg,layer0-5/layer0-5_T11_to_T9.jpg,TT,layer0-5,0.0,73.0,73.0,73.0,,,,,,,,,433.2921623350121,None,1.0,1.0938914949074388,433.2921623350121,None,433.2921623350121,None,433.2921623350121,None,1,2022_Apr_19_1452,Semantic-hierachy,2021.1.2,
74,Trial # 75,layer0-5_O11_to_T12.jpg,layer0-5/layer0-5_O11_to_T12.jpg,OT,layer0-5,0.0,74.0,74.0,74.0,,,,,,,,,434.7088649619837,None,1.0,1.1093010217882693,434.7088649619837,None,434.7088649619837,None,434.7088649619837,None,1,2022_Apr_19_1452,Semantic-hierachy,2021.1.2,
75,Trial # 76,layer9-17_T7_to_T9.jpg,layer9-17/layer9-17_T7_to_T9.jpg,TT,layer9-17,0.0,75.0,75.0,75.0,,,,,,,,,436.02768789301626,None,4.0,2.6123650050722063,436.02768789301626,None,436.02768789301626,None,436.02768789301626,None,1,2022_Apr_19_1452,Semantic-hierachy,2021.1.2,
76,Trial # 77,layer6-8_O6_to_T2.jpg,layer6-8/layer6-8_O6_to_T2.jpg,OT,layer6-8,0.0,76.0,76.0,76.0,,,,,,,,,438.92714363499545,None,3.0,1.4233986837789416,438.92714363499545,None,438.92714363499545,None,438.92714363499545,None,1,2022_Apr_19_1452,Semantic-hierachy,2021.1.2,
77,Trial # 78,layer9-17_T4_to_T5.jpg,layer9-17/layer9-17_T4_to_T5.jpg,TT,layer9-17,0.0,77.0,77.0,77.0,,,,,,,,,440.6608960139565,None,2.0,2.043258947087452,440.6608960139565,None,440.6608960139565,None,440.6608960139565,None,1,2022_Apr_19_1452,Semantic-hierachy,2021.1.2,
78,Trial # 79,layer0-5_T2_to_T4.jpg,layer0-5/layer0-5_T2_to_T4.jpg,TT,layer0-5,0.0,78.0,78.0,78.0,,,,,,,,,442.9954886550549,None,1.0,1.3912482028827071,442.9954886550549,None,442.9954886550549,None,442.9954886550549,None,1,2022_Apr_19_1452,Semantic-hierachy,2021.1.2,
79,Trial # 80,layer0-5_T2_to_T8.jpg,layer0-5/layer0-5_T2_to_T8.jpg,TT,layer0-5,0.0,79.0,79.0,79.0,,,,,,,,,444.6462428930681,None,1.0,1.2412279760465026,444.6462428930681,None,444.6462428930681,None,444.6462428930681,None,1,2022_Apr_19_1452,Semantic-hierachy,2021.1.2,
80,Trial # 81,layer9-17_T3_to_T9.jpg,layer9-17/layer9-17_T3_to_T9.jpg,TT,layer9-17,0.0,80.0,80.0,80.0,,,,,,,,,446.14672075305134,None,2.0,6.973828408867121,446.14672075305134,None,446.14672075305134,None,446.14672075305134,None,1,2022_Apr_19_1452,Semantic-hierachy,2021.1.2,
81,Trial # 82,layer9-17_O2_to_O5.jpg,layer9-17/layer9-17_O2_to_O5.jpg,OO,layer9-17,0.0,81.0,81.0,81.0,,,,,,,,,453.3983376820106,None,2.0,1.2449689800851047,453.3983376820106,None,453.3983376820106,None,453.3983376820106,None,1,2022_Apr_19_1452,Semantic-hierachy,2021.1.2,
82,Trial # 83,layer6-8_O6_to_O7.jpg,layer6-8/layer6-8_O6_to_O7.jpg,OO,layer6-8,0.0,82.0,82.0,82.0,,,,,,,,,454.8650986161083,None,3.0,1.643236334901303,454.8650986161083,None,454.8650986161083,None,454.8650986161083,None,1,2022_Apr_19_1452,Semantic-hierachy,2021.1.2,
83,Trial # 84,layer9-17_O11_to_T1.jpg,layer9-17/layer9-17_O11_to_T1.jpg,OT,layer9-17,0.0,83.0,83.0,83.0,,,,,,,,,456.7832727979403,None,2.0,1.3916800778824836,456.7832727979403,None,456.7832727979403,None,456.7832727979403,None,1,2022_Apr_19_1452,Semantic-hierachy,2021.1.2,
84,Trial # 85,layer6-8_O5_to_T12.jpg,layer6-8/layer6-8_O5_to_T12.jpg,OT,layer6-8,0.0,84.0,84.0,84.0,,,,,,,,,458.3834033750463,None,3.0,8.696566047845408,458.3834033750463,None,458.3834033750463,None,458.3834033750463,None,1,2022_Apr_19_1452,Semantic-hierachy,2021.1.2,
85,Trial # 86,layer6-8_O4_to_O7.jpg,layer6-8/layer6-8_O4_to_O7.jpg,OO,layer6-8,0.0,85.0,85.0,85.0,,,,,,,,,467.4529279239941,None,4.0,3.426173551939428,467.4529279239941,None,467.4529279239941,None,467.4529279239941,None,1,2022_Apr_19_1452,Semantic-hierachy,2021.1.2,
86,Trial # 87,layer6-8_T10_to_T8.jpg,layer6-8/layer6-8_T10_to_T8.jpg,TT,layer6-8,0.0,86.0,86.0,86.0,,,,,,,,,471.1717023621313,None,2.0,1.887043250026181,471.1717023621313,None,471.1717023621313,None,471.1717023621313,None,1,2022_Apr_19_1452,Semantic-hierachy,2021.1.2,
87,Trial # 88,layer6-8_O10_to_T3.jpg,layer6-8/layer6-8_O10_to_T3.jpg,OT,layer6-8,0.0,87.0,87.0,87.0,,,,,,,,,473.6211658851244,None,3.0,1.458840330131352,473.6211658851244,None,473.6211658851244,None,473.6211658851244,None,1,2022_Apr_19_1452,Semantic-hierachy,2021.1.2,
88,Trial # 89,layer6-8_O5_to_O9.jpg,layer6-8/layer6-8_O5_to_O9.jpg,OO,layer6-8,0.0,88.0,88.0,88.0,,,,,,,,,475.2554986490868,None,4.0,2.0776193169876933,475.2554986490868,None,475.2554986490868,None,475.2554986490868,None,1,2022_Apr_19_1452,Semantic-hierachy,2021.1.2,
89,Trial # 90,layer6-8_O10_to_O11.jpg,layer6-8/layer6-8_O10_to_O11.jpg,OO,layer6-8,0.0,89.0,89.0,89.0,,,,,,,,,477.6733251640108,None,4.0,2.6078121489845216,477.6733251640108,None,477.6733251640108,None,477.6733251640108,None,1,2022_Apr_19_1452,Semantic-hierachy,2021.1.2,
90,Trial # 91,layer0-5_O4_to_T5.jpg,layer0-5/layer0-5_O4_to_T5.jpg,OT,layer0-5,0.0,90.0,90.0,90.0,,,,,,,,,480.5227693731431,None,1.0,2.2286600170191377,480.5227693731431,None,480.5227693731431,None,480.5227693731431,None,1,2022_Apr_19_1452,Semantic-hierachy,2021.1.2,
91,Trial # 92,layer0-5_T11_to_T12.jpg,layer0-5/layer0-5_T11_to_T12.jpg,TT,layer0-5,0.0,91.0,91.0,91.0,,,,,,,,,482.97398180514574,None,1.0,1.3088756848592311,482.97398180514574,None,482.97398180514574,None,482.97398180514574,None,1,2022_Apr_19_1452,Semantic-hierachy,2021.1.2,
92,Trial # 93,layer0-5_T10_to_T3.jpg,layer0-5/layer0-5_T10_to_T3.jpg,TT,layer0-5,0.0,92.0,92.0,92.0,,,,,,,,,484.5408582559321,None,1.0,1.7097023110836744,484.5408582559321,None,484.5408582559321,None,484.5408582559321,None,1,2022_Apr_19_1452,Semantic-hierachy,2021.1.2,
93,Trial # 94,layer0-5_O2_to_O8.jpg,layer0-5/layer0-5_O2_to_O8.jpg,OO,layer0-5,0.0,93.0,93.0,93.0,,,,,,,,,486.5922720581293,None,1.0,1.144199836999178,486.5922720581293,None,486.5922720581293,None,486.5922720581293,None,1,2022_Apr_19_1452,Semantic-hierachy,2021.1.2,
94,Trial # 95,layer0-5_T3_to_T8.jpg,layer0-5/layer0-5_T3_to_T8.jpg,TT,layer0-5,0.0,94.0,94.0,94.0,,,,,,,,,487.9757905099541,None,1.0,1.093977072974667,487.9757905099541,None,487.9757905099541,None,487.9757905099541,None,1,2022_Apr_19_1452,Semantic-hierachy,2021.1.2,
95,Trial # 96,layer0-5_O7_to_O8.jpg,layer0-5/layer0-5_O7_to_O8.jpg,OO,layer0-5,0.0,95.0,95.0,95.0,,,,,,,,,489.2424843481276,None,1.0,1.762198390904814,489.2424843481276,None,489.2424843481276,None,489.2424843481276,None,1,2022_Apr_19_1452,Semantic-hierachy,2021.1.2,
96,Trial # 97,layer6-8_T10_to_T6.jpg,layer6-8/layer6-8_T10_to_T6.jpg,TT,layer6-8,0.0,96.0,96.0,96.0,,,,,,,,,491.4110859960783,None,4.0,2.909773207968101,491.4110859960783,None,491.4110859960783,None,491.4110859960783,None,1,2022_Apr_19_1452,Semantic-hierachy,2021.1.2,
97,Trial # 98,layer0-5_O1_to_O5.jpg,layer0-5/layer0-5_O1_to_O5.jpg,OO,layer0-5,0.0,97.0,97.0,97.0,,,,,,,,,495.9124189049471,None,1.0,1.5080563130322844,495.9124189049471,None,495.9124189049471,None,495.9124189049471,None,1,2022_Apr_19_1452,Semantic-hierachy,2021.1.2,
98,Trial # 99,layer6-8_O1_to_O6.jpg,layer6-8/layer6-8_O1_to_O6.jpg,OO,layer6-8,0.0,98.0,98.0,98.0,,,,,,,,,498.0796249981504,None,3.0,2.406558485934511,498.0796249981504,None,498.0796249981504,None,498.0796249981504,None,1,2022_Apr_19_1452,Semantic-hierachy,2021.1.2,
99,Trial # 100,layer6-8_O3_to_T1.jpg,layer6-8/layer6-8_O3_to_T1.jpg,OT,layer6-8,0.0,99.0,99.0,99.0,,,,,,,,,501.9307235979941,None,2.0,1.227056333096698,501.9307235979941,None,501.9307235979941,None,501.9307235979941,None,1,2022_Apr_19_1452,Semantic-hierachy,2021.1.2,
100,Trial # 101,layer6-8_T1_to_T9.jpg,layer6-8/layer6-8_T1_to_T9.jpg,TT,layer6-8,0.0,100.0,100.0,100.0,,,,,,,,,503.9470459490549,None,4.0,6.1758692630101,503.9470459490549,None,503.9470459490549,None,503.9470459490549,None,1,2022_Apr_19_1452,Semantic-hierachy,2021.1.2,
101,Trial # 102,layer9-17_O12_to_O6.jpg,layer9-17/layer9-17_O12_to_O6.jpg,OO,layer9-17,0.0,101.0,101.0,101.0,,,,,,,,,510.3665236949455,None,2.0,2.542450909037143,510.3665236949455,None,510.3665236949455,None,510.3665236949455,None,1,2022_Apr_19_1452,Semantic-hierachy,2021.1.2,
102,Trial # 103,layer0-5_T4_to_T9.jpg,layer0-5/layer0-5_T4_to_T9.jpg,TT,layer0-5,0.0,102.0,102.0,102.0,,,,,,,,,513.1001680081245,None,1.0,1.4264495510142297,513.1001680081245,None,513.1001680081245,None,513.1001680081245,None,1,2022_Apr_19_1452,Semantic-hierachy,2021.1.2,
103,Trial # 104,layer6-8_O10_to_T1.jpg,layer6-8/layer6-8_O10_to_T1.jpg,OT,layer6-8,0.0,103.0,103.0,103.0,,,,,,,,,514.7681487421505,None,3.0,3.010407687164843,514.7681487421505,None,514.7681487421505,None,514.7681487421505,None,1,2022_Apr_19_1452,Semantic-hierachy,2021.1.2,
104,Trial # 105,layer0-5_O6_to_T2.jpg,layer0-5/layer0-5_O6_to_T2.jpg,OT,layer0-5,0.0,104.0,104.0,104.0,,,,,,,,,517.9522705499548,None,1.0,1.4092743550427258,517.9522705499548,None,517.9522705499548,None,517.9522705499548,None,1,2022_Apr_19_1452,Semantic-hierachy,2021.1.2,
105,Trial # 106,layer9-17_T11_to_T2.jpg,layer9-17/layer9-17_T11_to_T2.jpg,TT,layer9-17,0.0,105.0,105.0,105.0,,,,,,,,,519.5357960790861,None,2.0,1.2874901450704783,519.5357960790861,None,519.5357960790861,None,519.5357960790861,None,1,2022_Apr_19_1452,Semantic-hierachy,2021.1.2,
106,Trial # 107,layer9-17_O12_to_O8.jpg,layer9-17/layer9-17_O12_to_O8.jpg,OO,layer9-17,0.0,106.0,106.0,106.0,,,,,,,,,521.0371537329629,None,3.0,1.8135929191485047,521.0371537329629,None,521.0371537329629,None,521.0371537329629,None,1,2022_Apr_19_1452,Semantic-hierachy,2021.1.2,
107,Trial # 108,layer0-5_T12_to_T3.jpg,layer0-5/layer0-5_T12_to_T3.jpg,TT,layer0-5,0.0,107.0,107.0,107.0,,,,,,,,,523.42109591607,None,1.0,2.026380294933915,523.42109591607,None,523.42109591607,None,523.42109591607,None,1,2022_Apr_19_1452,Semantic-hierachy,2021.1.2,
108,Trial # 109,layer0-5_T1_to_T10.jpg,layer0-5/layer0-5_T1_to_T10.jpg,TT,layer0-5,0.0,108.0,108.0,108.0,,,,,,,,,525.7885901259724,None,1.0,1.178766343044117,525.7885901259724,None,525.7885901259724,None,525.7885901259724,None,1,2022_Apr_19_1452,Semantic-hierachy,2021.1.2,
109,Trial # 110,layer6-8_O4_to_T5.jpg,layer6-8/layer6-8_O4_to_T5.jpg,OT,layer6-8,0.0,109.0,109.0,109.0,,,,,,,,,527.1214713840745,None,3.0,4.661936627002433,527.1214713840745,None,527.1214713840745,None,527.1214713840745,None,1,2022_Apr_19_1452,Semantic-hierachy,2021.1.2,
110,Trial # 111,layer9-17_O11_to_O7.jpg,layer9-17/layer9-17_O11_to_O7.jpg,OO,layer9-17,0.0,110.0,110.0,110.0,,,,,,,,,532.4565238400828,None,2.0,1.4593395120464263,532.4565238400828,None,532.4565238400828,None,532.4565238400828,None,1,2022_Apr_19_1452,Semantic-hierachy,2021.1.2,
111,Trial # 112,layer0-5_O5_to_O8.jpg,layer0-5/layer0-5_O5_to_O8.jpg,OO,layer0-5,0.0,111.0,111.0,111.0,,,,,,,,,534.106640700018,None,1.0,1.3159769140183926,534.106640700018,None,534.106640700018,None,534.106640700018,None,1,2022_Apr_19_1452,Semantic-hierachy,2021.1.2,
112,Trial # 113,layer0-5_O10_to_O4.jpg,layer0-5/layer0-5_O10_to_O4.jpg,OO,layer0-5,0.0,112.0,112.0,112.0,,,,,,,,,535.6068401110824,None,1.0,1.307382577098906,535.6068401110824,None,535.6068401110824,None,535.6068401110824,None,1,2022_Apr_19_1452,Semantic-hierachy,2021.1.2,
113,Trial # 114,layer9-17_O4_to_O8.jpg,layer9-17/layer9-17_O4_to_O8.jpg,OO,layer9-17,0.0,113.0,113.0,113.0,,,,,,,,,537.0920023559593,None,2.0,6.157944079022855,537.0920023559593,None,537.0920023559593,None,537.0920023559593,None,1,2022_Apr_19_1452,Semantic-hierachy,2021.1.2,
114,Trial # 115,layer0-5_O2_to_T8.jpg,layer0-5/layer0-5_O2_to_T8.jpg,OT,layer0-5,0.0,114.0,114.0,114.0,,,,,,,,,543.5429726189468,None,1.0,1.0565812399145216,543.5429726189468,None,543.5429726189468,None,543.5429726189468,None,1,2022_Apr_19_1452,Semantic-hierachy,2021.1.2,
115,Trial # 116,layer9-17_T2_to_T3.jpg,layer9-17/layer9-17_T2_to_T3.jpg,TT,layer9-17,0.0,115.0,115.0,115.0,,,,,,,,,544.8599943600129,None,2.0,2.0445223508868366,544.8599943600129,None,544.8599943600129,None,544.8599943600129,None,1,2022_Apr_19_1452,Semantic-hierachy,2021.1.2,
116,Trial # 117,layer6-8_O1_to_T10.jpg,layer6-8/layer6-8_O1_to_T10.jpg,OT,layer6-8,0.0,116.0,116.0,116.0,,,,,,,,,547.1115947209764,None,3.0,1.626685557886958,547.1115947209764,None,547.1115947209764,None,547.1115947209764,None,1,2022_Apr_19_1452,Semantic-hierachy,2021.1.2,
117,Trial # 118,layer0-5_T3_to_T7.jpg,layer0-5/layer0-5_T3_to_T7.jpg,TT,layer0-5,0.0,117.0,117.0,117.0,,,,,,,,,549.0776468280237,None,1.0,1.4911902230232954,549.0776468280237,None,549.0776468280237,None,549.0776468280237,None,1,2022_Apr_19_1452,Semantic-hierachy,2021.1.2,
118,Trial # 119,layer9-17_O1_to_O12.jpg,layer9-17/layer9-17_O1_to_O12.jpg,OO,layer9-17,0.0,118.0,118.0,118.0,,,,,,,,,550.9963938200381,None,4.0,4.125691307941452,550.9963938200381,None,550.9963938200381,None,550.9963938200381,None,1,2022_Apr_19_1452,Semantic-hierachy,2021.1.2,
119,Trial # 120,layer6-8_O12_to_O2.jpg,layer6-8/layer6-8_O12_to_O2.jpg,OO,layer6-8,0.0,119.0,119.0,119.0,,,,,,,,,555.4130361860152,None,3.0,2.245919809909537,555.4130361860152,None,555.4130361860152,None,555.4130361860152,None,1,2022_Apr_19_1452,Semantic-hierachy,2021.1.2,
120,Trial # 121,layer9-17_O10_to_O9.jpg,layer9-17/layer9-17_O10_to_O9.jpg,OO,layer9-17,0.0,120.0,120.0,120.0,,,,,,,,,557.980625305092,None,2.0,1.4056870169006288,557.980625305092,None,557.980625305092,None,557.980625305092,None,1,2022_Apr_19_1452,Semantic-hierachy,2021.1.2,
121,Trial # 122,layer6-8_O4_to_T10.jpg,layer6-8/layer6-8_O4_to_T10.jpg,OT,layer6-8,0.0,121.0,121.0,121.0,,,,,,,,,561.0985972399358,None,3.0,2.240836441051215,561.0985972399358,None,561.0985972399358,None,561.0985972399358,None,1,2022_Apr_19_1452,Semantic-hierachy,2021.1.2,
122,Trial # 123,layer6-8_O2_to_T3.jpg,layer6-8/layer6-8_O2_to_T3.jpg,OT,layer6-8,0.0,122.0,122.0,122.0,,,,,,,,,563.5821405900642,None,3.0,2.5235039428807795,563.5821405900642,None,563.5821405900642,None,563.5821405900642,None,1,2022_Apr_19_1452,Semantic-hierachy,2021.1.2,
123,Trial # 124,layer0-5_O1_to_O7.jpg,layer0-5/layer0-5_O1_to_O7.jpg,OO,layer0-5,0.0,123.0,123.0,123.0,,,,,,,,,566.516893326072,None,1.0,2.0224725450389087,566.516893326072,None,566.516893326072,None,566.516893326072,None,1,2022_Apr_19_1452,Semantic-hierachy,2021.1.2,
124,Trial # 125,layer0-5_T8_to_T9.jpg,layer0-5/layer0-5_T8_to_T9.jpg,TT,layer0-5,0.0,124.0,124.0,124.0,,,,,,,,,568.7675070900004,None,1.0,1.359298586146906,568.7675070900004,None,568.7675070900004,None,568.7675070900004,None,1,2022_Apr_19_1452,Semantic-hierachy,2021.1.2,
125,Trial # 126,layer0-5_O12_to_T8.jpg,layer0-5/layer0-5_O12_to_T8.jpg,OT,layer0-5,0.0,125.0,125.0,125.0,,,,,,,,,570.3350084940903,None,1.0,1.0291240820661187,570.3350084940903,None,570.3350084940903,None,570.3350084940903,None,1,2022_Apr_19_1452,Semantic-hierachy,2021.1.2,
126,Trial # 127,layer9-17_O4_to_O6.jpg,layer9-17/layer9-17_O4_to_O6.jpg,OO,layer9-17,0.0,126.0,126.0,126.0,,,,,,,,,571.5184246459976,None,4.0,2.674447991885245,571.5184246459976,None,571.5184246459976,None,571.5184246459976,None,1,2022_Apr_19_1452,Semantic-hierachy,2021.1.2,
127,Trial # 128,layer6-8_O12_to_O6.jpg,layer6-8/layer6-8_O12_to_O6.jpg,OO,layer6-8,0.0,127.0,127.0,127.0,,,,,,,,,574.485716072144,None,3.0,1.792681910097599,574.485716072144,None,574.485716072144,None,574.485716072144,None,1,2022_Apr_19_1452,Semantic-hierachy,2021.1.2,
128,Trial # 129,layer0-5_T4_to_T6.jpg,layer0-5/layer0-5_T4_to_T6.jpg,TT,layer0-5,0.0,128.0,128.0,128.0,,,,,,,,,576.9543332019821,None,1.0,2.088177837897092,576.9543332019821,None,576.9543332019821,None,576.9543332019821,None,1,2022_Apr_19_1452,Semantic-hierachy,2021.1.2,
129,Trial # 130,layer9-17_O1_to_O3.jpg,layer9-17/layer9-17_O1_to_O3.jpg,OO,layer9-17,0.0,129.0,129.0,129.0,,,,,,,,,579.3037084001116,None,2.0,1.709742184029892,579.3037084001116,None,579.3037084001116,None,579.3037084001116,None,1,2022_Apr_19_1452,Semantic-hierachy,2021.1.2,
130,Trial # 131,layer9-17_O10_to_O3.jpg,layer9-17/layer9-17_O10_to_O3.jpg,OO,layer9-17,0.0,130.0,130.0,130.0,,,,,,,,,581.4224297080655,None,2.0,1.478072333149612,581.4224297080655,None,581.4224297080655,None,581.4224297080655,None,1,2022_Apr_19_1452,Semantic-hierachy,2021.1.2,
131,Trial # 132,layer9-17_O12_to_O3.jpg,layer9-17/layer9-17_O12_to_O3.jpg,OO,layer9-17,0.0,131.0,131.0,131.0,,,,,,,,,583.1558544151485,None,2.0,1.1777640071231872,583.1558544151485,None,583.1558544151485,None,583.1558544151485,None,1,2022_Apr_19_1452,Semantic-hierachy,2021.1.2,
132,Trial # 133,layer9-17_O11_to_O4.jpg,layer9-17/layer9-17_O11_to_O4.jpg,OO,layer9-17,0.0,132.0,132.0,132.0,,,,,,,,,584.5058558860328,None,4.0,3.5964387769345194,584.5058558860328,None,584.5058558860328,None,584.5058558860328,None,1,2022_Apr_19_1452,Semantic-hierachy,2021.1.2,
133,Trial # 134,layer9-17_T4_to_T7.jpg,layer9-17/layer9-17_T4_to_T7.jpg,TT,layer9-17,0.0,133.0,133.0,133.0,,,,,,,,,588.3728838250972,None,2.0,1.469162232009694,588.3728838250972,None,588.3728838250972,None,588.3728838250972,None,1,2022_Apr_19_1452,Semantic-hierachy,2021.1.2,
134,Trial # 135,layer9-17_O1_to_T1.jpg,layer9-17/layer9-17_O1_to_T1.jpg,OT,layer9-17,0.0,134.0,134.0,134.0,,,,,,,,,590.1902244039811,None,4.0,2.09156705904752,590.1902244039811,None,590.1902244039811,None,590.1902244039811,None,1,2022_Apr_19_1452,Semantic-hierachy,2021.1.2,
135,Trial # 136,layer6-8_T2_to_T5.jpg,layer6-8/layer6-8_T2_to_T5.jpg,TT,layer6-8,0.0,135.0,135.0,135.0,,,,,,,,,592.5912761590444,None,4.0,6.342739206040278,592.5912761590444,None,592.5912761590444,None,592.5912761590444,None,1,2022_Apr_19_1452,Semantic-hierachy,2021.1.2,
136,Trial # 137,layer9-17_T11_to_T7.jpg,layer9-17/layer9-17_T11_to_T7.jpg,TT,layer9-17,0.0,136.0,136.0,136.0,,,,,,,,,600.6769438700285,None,2.0,1.514904438983649,600.6769438700285,None,600.6769438700285,None,600.6769438700285,None,1,2022_Apr_19_1452,Semantic-hierachy,2021.1.2,
137,Trial # 138,layer6-8_O3_to_O8.jpg,layer6-8/layer6-8_O3_to_O8.jpg,OO,layer6-8,0.0,137.0,137.0,137.0,,,,,,,,,602.4289923470933,None,3.0,1.7054405461531132,602.4289923470933,None,602.4289923470933,None,602.4289923470933,None,1,2022_Apr_19_1452,Semantic-hierachy,2021.1.2,
138,Trial # 139,layer6-8_O1_to_T7.jpg,layer6-8/layer6-8_O1_to_T7.jpg,OT,layer6-8,0.0,138.0,138.0,138.0,,,,,,,,,604.3114210339263,None,3.0,1.1601253170520067,604.3114210339263,None,604.3114210339263,None,604.3114210339263,None,1,2022_Apr_19_1452,Semantic-hierachy,2021.1.2,
139,Trial # 140,layer9-17_T1_to_T3.jpg,layer9-17/layer9-17_T1_to_T3.jpg,TT,layer9-17,0.0,139.0,139.0,139.0,,,,,,,,,605.6960516979452,None,4.0,2.646673907060176,605.6960516979452,None,605.6960516979452,None,605.6960516979452,None,1,2022_Apr_19_1452,Semantic-hierachy,2021.1.2,
140,Trial # 141,layer6-8_O10_to_O12.jpg,layer6-8/layer6-8_O10_to_O12.jpg,OO,layer6-8,0.0,140.0,140.0,140.0,,,,,,,,,609.0124754719436,None,3.0,3.627021963940933,609.0124754719436,None,609.0124754719436,None,609.0124754719436,None,1,2022_Apr_19_1452,Semantic-hierachy,2021.1.2,
141,Trial # 142,layer6-8_O12_to_T11.jpg,layer6-8/layer6-8_O12_to_T11.jpg,OT,layer6-8,0.0,141.0,141.0,141.0,,,,,,,,,613.0479398670141,None,3.0,4.129711657995358,613.0479398670141,None,613.0479398670141,None,613.0479398670141,None,1,2022_Apr_19_1452,Semantic-hierachy,2021.1.2,
142,Trial # 143,layer0-5_O11_to_O5.jpg,layer0-5/layer0-5_O11_to_O5.jpg,OO,layer0-5,0.0,142.0,142.0,142.0,,,,,,,,,618.4327463430818,None,1.0,1.7945219529792666,618.4327463430818,None,618.4327463430818,None,618.4327463430818,None,1,2022_Apr_19_1452,Semantic-hierachy,2021.1.2,
143,Trial # 144,layer6-8_O1_to_O8.jpg,layer6-8/layer6-8_O1_to_O8.jpg,OO,layer6-8,0.0,143.0,143.0,143.0,,,,,,,,,620.4170569521375,None,2.0,1.8278486949857324,620.4170569521375,None,620.4170569521375,None,620.4170569521375,None,1,2022_Apr_19_1452,Semantic-hierachy,2021.1.2,
144,Trial # 145,layer0-5_T2_to_T5.jpg,layer0-5/layer0-5_T2_to_T5.jpg,TT,layer0-5,0.0,144.0,144.0,144.0,,,,,,,,,622.4508296090644,None,1.0,1.5091281100176277,622.4508296090644,None,622.4508296090644,None,622.4508296090644,None,1,2022_Apr_19_1452,Semantic-hierachy,2021.1.2,
145,Trial # 146,layer9-17_O8_to_T3.jpg,layer9-17/layer9-17_O8_to_T3.jpg,OT,layer9-17,0.0,145.0,145.0,145.0,,,,,,,,,624.3015248000156,None,2.0,1.5438209420535711,624.3015248000156,None,624.3015248000156,None,624.3015248000156,None,1,2022_Apr_19_1452,Semantic-hierachy,2021.1.2,
146,Trial # 147,layer9-17_O8_to_T4.jpg,layer9-17/layer9-17_O8_to_T4.jpg,OT,layer9-17,0.0,146.0,146.0,146.0,,,,,,,,,626.2698138570413,None,3.0,2.260920865926892,626.2698138570413,None,626.2698138570413,None,626.2698138570413,None,1,2022_Apr_19_1452,Semantic-hierachy,2021.1.2,
147,Trial # 148,layer9-17_O4_to_T9.jpg,layer9-17/layer9-17_O4_to_T9.jpg,OT,layer9-17,0.0,147.0,147.0,147.0,,,,,,,,,628.8525285189971,None,2.0,1.3068096111528575,628.8525285189971,None,628.8525285189971,None,628.8525285189971,None,1,2022_Apr_19_1452,Semantic-hierachy,2021.1.2,
148,Trial # 149,layer6-8_O4_to_O8.jpg,layer6-8/layer6-8_O4_to_O8.jpg,OO,layer6-8,0.0,148.0,148.0,148.0,,,,,,,,,630.3195380461402,None,3.0,1.6906261281110346,630.3195380461402,None,630.3195380461402,None,630.3195380461402,None,1,2022_Apr_19_1452,Semantic-hierachy,2021.1.2,
149,Trial # 150,layer0-5_O12_to_T7.jpg,layer0-5/layer0-5_O12_to_T7.jpg,OT,layer0-5,0.0,149.0,149.0,149.0,,,,,,,,,632.1880407670978,None,1.0,1.2634516200050712,632.1880407670978,None,632.1880407670978,None,632.1880407670978,None,1,2022_Apr_19_1452,Semantic-hierachy,2021.1.2,
150,Trial # 151,layer6-8_T1_to_T3.jpg,layer6-8/layer6-8_T1_to_T3.jpg,TT,layer6-8,,,,,0.0,0.0,0.0,0.0,,,,,637.2053918340243,None,3.0,1.7576183369383216,637.2053918340243,None,637.2053918340243,None,637.2053918340243,None,1,2022_Apr_19_1452,Semantic-hierachy,2021.1.2,
151,Trial # 152,layer0-5_O8_to_O9.jpg,layer0-5/layer0-5_O8_to_O9.jpg,OO,layer0-5,,,,,0.0,1.0,1.0,1.0,,,,,639.272165609058,None,1.0,1.304704035865143,639.272165609058,None,639.272165609058,None,639.272165609058,None,1,2022_Apr_19_1452,Semantic-hierachy,2021.1.2,
152,Trial # 153,layer9-17_T1_to_T5.jpg,layer9-17/layer9-17_T1_to_T5.jpg,TT,layer9-17,,,,,0.0,2.0,2.0,2.0,,,,,640.9405920109712,None,2.0,1.3437347649596632,640.9405920109712,None,640.9405920109712,None,640.9405920109712,None,1,2022_Apr_19_1452,Semantic-hierachy,2021.1.2,
153,Trial # 154,layer6-8_T7_to_T9.jpg,layer6-8/layer6-8_T7_to_T9.jpg,TT,layer6-8,,,,,0.0,3.0,3.0,3.0,,,,,642.4910859251395,None,3.0,1.6896511469967663,642.4910859251395,None,642.4910859251395,None,642.4910859251395,None,1,2022_Apr_19_1452,Semantic-hierachy,2021.1.2,
154,Trial # 155,layer9-17_T12_to_T7.jpg,layer9-17/layer9-17_T12_to_T7.jpg,TT,layer9-17,,,,,0.0,4.0,4.0,4.0,,,,,646.158920244081,None,2.0,2.0358743430115283,646.158920244081,None,646.158920244081,None,646.158920244081,None,1,2022_Apr_19_1452,Semantic-hierachy,2021.1.2,
155,Trial # 156,layer0-5_O8_to_T11.jpg,layer0-5/layer0-5_O8_to_T11.jpg,OT,layer0-5,,,,,0.0,5.0,5.0,5.0,,,,,648.3928266479634,None,1.0,1.292050706921145,648.3928266479634,None,648.3928266479634,None,648.3928266479634,None,1,2022_Apr_19_1452,Semantic-hierachy,2021.1.2,
156,Trial # 157,layer0-5_O1_to_O9.jpg,layer0-5/layer0-5_O1_to_O9.jpg,OO,layer0-5,,,,,0.0,6.0,6.0,6.0,,,,,649.8424000330269,None,1.0,1.2262596609070897,649.8424000330269,None,649.8424000330269,None,649.8424000330269,None,1,2022_Apr_19_1452,Semantic-hierachy,2021.1.2,
157,Trial # 158,layer0-5_O10_to_O12.jpg,layer0-5/layer0-5_O10_to_O12.jpg,OO,layer0-5,,,,,0.0,7.0,7.0,7.0,,,,,651.2931590541266,None,1.0,1.6928900419734418,651.2931590541266,None,651.2931590541266,None,651.2931590541266,None,1,2022_Apr_19_1452,Semantic-hierachy,2021.1.2,
158,Trial # 159,layer6-8_O10_to_T5.jpg,layer6-8/layer6-8_O10_to_T5.jpg,OT,layer6-8,,,,,0.0,8.0,8.0,8.0,,,,,653.1945138850715,None,3.0,3.9388652578927577,653.1945138850715,None,653.1945138850715,None,653.1945138850715,None,1,2022_Apr_19_1452,Semantic-hierachy,2021.1.2,
159,Trial # 160,layer6-8_O5_to_O6.jpg,layer6-8/layer6-8_O5_to_O6.jpg,OO,layer6-8,,,,,0.0,9.0,9.0,9.0,,,,,657.678861805005,None,2.0,1.909200893016532,657.678861805005,None,657.678861805005,None,657.678861805005,None,1,2022_Apr_19_1452,Semantic-hierachy,2021.1.2,
160,Trial # 161,layer6-8_O6_to_T11.jpg,layer6-8/layer6-8_O6_to_T11.jpg,OT,layer6-8,,,,,0.0,10.0,10.0,10.0,,,,,659.7451300709508,None,2.0,1.3402306200005114,659.7451300709508,None,659.7451300709508,None,659.7451300709508,None,1,2022_Apr_19_1452,Semantic-hierachy,2021.1.2,
161,Trial # 162,layer9-17_O12_to_O9.jpg,layer9-17/layer9-17_O12_to_O9.jpg,OO,layer9-17,,,,,0.0,11.0,11.0,11.0,,,,,661.3799286219291,None,3.0,2.1750441340263933,661.3799286219291,None,661.3799286219291,None,661.3799286219291,None,1,2022_Apr_19_1452,Semantic-hierachy,2021.1.2,
162,Trial # 163,layer6-8_O12_to_T6.jpg,layer6-8/layer6-8_O12_to_T6.jpg,OT,layer6-8,,,,,0.0,12.0,12.0,12.0,,,,,663.8468942551408,None,4.0,2.7936325669288635,663.8468942551408,None,663.8468942551408,None,663.8468942551408,None,1,2022_Apr_19_1452,Semantic-hierachy,2021.1.2,
163,Trial # 164,layer0-5_T11_to_T7.jpg,layer0-5/layer0-5_T11_to_T7.jpg,TT,layer0-5,,,,,0.0,13.0,13.0,13.0,,,,,666.9142317930236,None,1.0,2.2060860879719257,666.9142317930236,None,666.9142317930236,None,666.9142317930236,None,1,2022_Apr_19_1452,Semantic-hierachy,2021.1.2,
164,Trial # 165,layer9-17_O10_to_T5.jpg,layer9-17/layer9-17_O10_to_T5.jpg,OT,layer9-17,,,,,0.0,14.0,14.0,14.0,,,,,669.3818027330562,None,4.0,7.513335534837097,669.3818027330562,None,669.3818027330562,None,669.3818027330562,None,1,2022_Apr_19_1452,Semantic-hierachy,2021.1.2,
165,Trial # 166,layer9-17_T1_to_T6.jpg,layer9-17/layer9-17_T1_to_T6.jpg,TT,layer9-17,,,,,0.0,15.0,15.0,15.0,,,,,677.5519048520364,None,2.0,1.328376327874139,677.5519048520364,None,677.5519048520364,None,677.5519048520364,None,1,2022_Apr_19_1452,Semantic-hierachy,2021.1.2,
166,Trial # 167,layer0-5_T1_to_T3.jpg,layer0-5/layer0-5_T1_to_T3.jpg,TT,layer0-5,,,,,0.0,16.0,16.0,16.0,,,,,679.1023506000638,None,1.0,1.4727485629264263,679.1023506000638,None,679.1023506000638,None,679.1023506000638,None,1,2022_Apr_19_1452,Semantic-hierachy,2021.1.2,
167,Trial # 168,layer0-5_O2_to_O9.jpg,layer0-5/layer0-5_O2_to_O9.jpg,OO,layer0-5,,,,,0.0,17.0,17.0,17.0,,,,,680.8360301321372,None,1.0,1.9788371659815311,680.8360301321372,None,680.8360301321372,None,680.8360301321372,None,1,2022_Apr_19_1452,Semantic-hierachy,2021.1.2,
168,Trial # 169,layer9-17_O3_to_T4.jpg,layer9-17/layer9-17_O3_to_T4.jpg,OT,layer9-17,,,,,0.0,18.0,18.0,18.0,,,,,683.1691730199382,None,2.0,2.0097319099586457,683.1691730199382,None,683.1691730199382,None,683.1691730199382,None,1,2022_Apr_19_1452,Semantic-hierachy,2021.1.2,
169,Trial # 170,layer6-8_O11_to_O9.jpg,layer6-8/layer6-8_O11_to_O9.jpg,OO,layer6-8,,,,,0.0,19.0,19.0,19.0,,,,,685.5866609979421,None,2.0,3.410106415161863,685.5866609979421,None,685.5866609979421,None,685.5866609979421,None,1,2022_Apr_19_1452,Semantic-hierachy,2021.1.2,
170,Trial # 171,layer9-17_O1_to_O7.jpg,layer9-17/layer9-17_O1_to_O7.jpg,OO,layer9-17,,,,,0.0,20.0,20.0,20.0,,,,,689.8212555879727,None,4.0,2.2598211960867047,689.8212555879727,None,689.8212555879727,None,689.8212555879727,None,1,2022_Apr_19_1452,Semantic-hierachy,2021.1.2,
171,Trial # 172,layer0-5_T12_to_T4.jpg,layer0-5/layer0-5_T12_to_T4.jpg,TT,layer0-5,,,,,0.0,21.0,21.0,21.0,,,,,692.4224558731075,None,1.0,1.5510727178771049,692.4224558731075,None,692.4224558731075,None,692.4224558731075,None,1,2022_Apr_19_1452,Semantic-hierachy,2021.1.2,
172,Trial # 173,layer0-5_O4_to_T4.jpg,layer0-5/layer0-5_O4_to_T4.jpg,OT,layer0-5,,,,,0.0,22.0,22.0,22.0,,,,,694.239799204981,None,4.0,3.0079494428355247,694.239799204981,None,694.239799204981,None,694.239799204981,None,1,2022_Apr_19_1452,Semantic-hierachy,2021.1.2,
173,Trial # 174,layer6-8_T12_to_T5.jpg,layer6-8/layer6-8_T12_to_T5.jpg,TT,layer6-8,,,,,0.0,23.0,23.0,23.0,,,,,697.6406589541584,None,4.0,15.895950060104951,697.6406589541584,None,697.6406589541584,None,697.6406589541584,None,1,2022_Apr_19_1452,Semantic-hierachy,2021.1.2,
174,Trial # 175,layer6-8_O11_to_T1.jpg,layer6-8/layer6-8_O11_to_T1.jpg,OT,layer6-8,,,,,0.0,24.0,24.0,24.0,,,,,714.3626758530736,None,4.0,8.097613140940666,714.3626758530736,None,714.3626758530736,None,714.3626758530736,None,1,2022_Apr_19_1452,Semantic-hierachy,2021.1.2,
175,Trial # 176,layer0-5_O7_to_T8.jpg,layer0-5/layer0-5_O7_to_T8.jpg,OT,layer0-5,,,,,0.0,25.0,25.0,25.0,,,,,722.8157891931478,None,1.0,1.2758968418929726,722.8157891931478,None,722.8157891931478,None,722.8157891931478,None,1,2022_Apr_19_1452,Semantic-hierachy,2021.1.2,
176,Trial # 177,layer0-5_O11_to_T5.jpg,layer0-5/layer0-5_O11_to_T5.jpg,OT,layer0-5,,,,,0.0,26.0,26.0,26.0,,,,,724.4156779991463,None,1.0,1.0922666678670794,724.4156779991463,None,724.4156779991463,None,724.4156779991463,None,1,2022_Apr_19_1452,Semantic-hierachy,2021.1.2,
177,Trial # 178,layer9-17_O2_to_T2.jpg,layer9-17/layer9-17_O2_to_T2.jpg,OT,layer9-17,,,,,0.0,27.0,27.0,27.0,,,,,725.732480609091,None,4.0,2.8286646080669016,725.732480609091,None,725.732480609091,None,725.732480609091,None,1,2022_Apr_19_1452,Semantic-hierachy,2021.1.2,
178,Trial # 179,layer0-5_O4_to_T9.jpg,layer0-5/layer0-5_O4_to_T9.jpg,OT,layer0-5,,,,,0.0,28.0,28.0,28.0,,,,,728.8173121791333,None,1.0,1.2039544798899442,728.8173121791333,None,728.8173121791333,None,728.8173121791333,None,1,2022_Apr_19_1452,Semantic-hierachy,2021.1.2,
179,Trial # 180,layer9-17_T6_to_T8.jpg,layer9-17/layer9-17_T6_to_T8.jpg,TT,layer9-17,,,,,0.0,29.0,29.0,29.0,,,,,730.3339482760057,None,2.0,1.6446010589133948,730.3339482760057,None,730.3339482760057,None,730.3339482760057,None,1,2022_Apr_19_1452,Semantic-hierachy,2021.1.2,
180,Trial # 181,layer9-17_O12_to_O5.jpg,layer9-17/layer9-17_O12_to_O5.jpg,OO,layer9-17,,,,,0.0,30.0,30.0,30.0,,,,,732.1513370350003,None,2.0,1.3953148711007088,732.1513370350003,None,732.1513370350003,None,732.1513370350003,None,1,2022_Apr_19_1452,Semantic-hierachy,2021.1.2,
181,Trial # 182,layer6-8_O1_to_O7.jpg,layer6-8/layer6-8_O1_to_O7.jpg,OO,layer6-8,,,,,0.0,31.0,31.0,31.0,,,,,734.4181984339375,None,4.0,2.4730783959385008,734.4181984339375,None,734.4181984339375,None,734.4181984339375,None,1,2022_Apr_19_1452,Semantic-hierachy,2021.1.2,
182,Trial # 183,layer6-8_O3_to_T10.jpg,layer6-8/layer6-8_O3_to_T10.jpg,OT,layer6-8,,,,,0.0,32.0,32.0,32.0,,,,,737.137214523973,None,3.0,1.7410221539903432,737.137214523973,None,737.137214523973,None,737.137214523973,None,1,2022_Apr_19_1452,Semantic-hierachy,2021.1.2,
183,Trial # 184,layer0-5_O1_to_T11.jpg,layer0-5/layer0-5_O1_to_T11.jpg,OT,layer0-5,,,,,0.0,33.0,33.0,33.0,,,,,739.1533392430283,None,1.0,1.2081991920713335,739.1533392430283,None,739.1533392430283,None,739.1533392430283,None,1,2022_Apr_19_1452,Semantic-hierachy,2021.1.2,
184,Trial # 185,layer6-8_O8_to_O9.jpg,layer6-8/layer6-8_O8_to_O9.jpg,OO,layer6-8,,,,,0.0,34.0,34.0,34.0,,,,,740.6040526330471,None,2.0,4.992849210975692,740.6040526330471,None,740.6040526330471,None,740.6040526330471,None,1,2022_Apr_19_1452,Semantic-hierachy,2021.1.2,
185,Trial # 186,layer9-17_O4_to_O9.jpg,layer9-17/layer9-17_O4_to_O9.jpg,OO,layer9-17,,,,,0.0,35.0,35.0,35.0,,,,,745.9899237591308,None,4.0,2.0109272450208664,745.9899237591308,None,745.9899237591308,None,745.9899237591308,None,1,2022_Apr_19_1452,Semantic-hierachy,2021.1.2,
186,Trial # 187,layer0-5_O12_to_O5.jpg,layer0-5/layer0-5_O12_to_O5.jpg,OO,layer0-5,,,,,0.0,36.0,36.0,36.0,,,,,749.3560926979408,None,1.0,1.5443377741612494,749.3560926979408,None,749.3560926979408,None,749.3560926979408,None,1,2022_Apr_19_1452,Semantic-hierachy,2021.1.2,
187,Trial # 188,layer6-8_T12_to_T4.jpg,layer6-8/layer6-8_T12_to_T4.jpg,TT,layer6-8,,,,,0.0,37.0,37.0,37.0,,,,,751.1077961421106,None,4.0,4.464995708782226,751.1077961421106,None,751.1077961421106,None,751.1077961421106,None,1,2022_Apr_19_1452,Semantic-hierachy,2021.1.2,
188,Trial # 189,layer0-5_T6_to_T8.jpg,layer0-5/layer0-5_T6_to_T8.jpg,TT,layer0-5,,,,,0.0,38.0,38.0,38.0,,,,,755.7421750260983,None,1.0,1.30448790313676,755.7421750260983,None,755.7421750260983,None,755.7421750260983,None,1,2022_Apr_19_1452,Semantic-hierachy,2021.1.2,
189,Trial # 190,layer6-8_O11_to_T2.jpg,layer6-8/layer6-8_O11_to_T2.jpg,OT,layer6-8,,,,,0.0,39.0,39.0,39.0,,,,,757.2932376360986,None,3.0,2.558604798046872,757.2932376360986,None,757.2932376360986,None,757.2932376360986,None,1,2022_Apr_19_1452,Semantic-hierachy,2021.1.2,
190,Trial # 191,layer6-8_O1_to_O3.jpg,layer6-8/layer6-8_O1_to_O3.jpg,OO,layer6-8,,,,,0.0,40.0,40.0,40.0,,,,,760.2769609929528,None,4.0,3.291661085095257,760.2769609929528,None,760.2769609929528,None,760.2769609929528,None,1,2022_Apr_19_1452,Semantic-hierachy,2021.1.2,
191,Trial # 192,layer0-5_O7_to_T1.jpg,layer0-5/layer0-5_O7_to_T1.jpg,OT,layer0-5,,,,,0.0,41.0,41.0,41.0,,,,,764.2278571389616,None,1.0,1.7550445119850338,764.2278571389616,None,764.2278571389616,None,764.2278571389616,None,1,2022_Apr_19_1452,Semantic-hierachy,2021.1.2,
192,Trial # 193,layer6-8_O3_to_T7.jpg,layer6-8/layer6-8_O3_to_T7.jpg,OT,layer6-8,,,,,0.0,42.0,42.0,42.0,,,,,766.2452924731188,None,3.0,2.008141828002408,766.2452924731188,None,766.2452924731188,None,766.2452924731188,None,1,2022_Apr_19_1452,Semantic-hierachy,2021.1.2,
193,Trial # 194,layer9-17_T10_to_T6.jpg,layer9-17/layer9-17_T10_to_T6.jpg,TT,layer9-17,,,,,0.0,43.0,43.0,43.0,,,,,768.4129876310471,None,4.0,6.426208611112088,768.4129876310471,None,768.4129876310471,None,768.4129876310471,None,1,2022_Apr_19_1452,Semantic-hierachy,2021.1.2,
194,Trial # 195,layer6-8_T2_to_T9.jpg,layer6-8/layer6-8_T2_to_T9.jpg,TT,layer6-8,,,,,0.0,44.0,44.0,44.0,,,,,775.3474064271431,None,4.0,3.411770633189008,775.3474064271431,None,775.3474064271431,None,775.3474064271431,None,1,2022_Apr_19_1452,Semantic-hierachy,2021.1.2,
195,Trial # 196,layer0-5_O3_to_T3.jpg,layer0-5/layer0-5_O3_to_T3.jpg,OT,layer0-5,,,,,0.0,45.0,45.0,45.0,,,,,780.5161757399328,None,1.0,2.1048436940182,780.5161757399328,None,780.5161757399328,None,780.5161757399328,None,1,2022_Apr_19_1452,Semantic-hierachy,2021.1.2,
196,Trial # 197,layer9-17_O1_to_O2.jpg,layer9-17/layer9-17_O1_to_O2.jpg,OO,layer9-17,,,,,0.0,46.0,46.0,46.0,,,,,782.900233861059,None,3.0,5.459206043044105,782.900233861059,None,782.900233861059,None,782.900233861059,None,1,2022_Apr_19_1452,Semantic-hierachy,2021.1.2,
197,Trial # 198,layer9-17_T2_to_T9.jpg,layer9-17/layer9-17_T2_to_T9.jpg,TT,layer9-17,,,,,0.0,47.0,47.0,47.0,,,,,788.7853698381223,None,3.0,2.124554408947006,788.7853698381223,None,788.7853698381223,None,788.7853698381223,None,1,2022_Apr_19_1452,Semantic-hierachy,2021.1.2,
198,Trial # 199,layer9-17_O6_to_T10.jpg,layer9-17/layer9-17_O6_to_T10.jpg,OT,layer9-17,,,,,0.0,48.0,48.0,48.0,,,,,791.6039712710772,None,2.0,2.0722104739397764,791.6039712710772,None,791.6039712710772,None,791.6039712710772,None,1,2022_Apr_19_1452,Semantic-hierachy,2021.1.2,
199,Trial # 200,layer0-5_T12_to_T5.jpg,layer0-5/layer0-5_T12_to_T5.jpg,TT,layer0-5,,,,,0.0,49.0,49.0,49.0,,,,,794.021197404014,None,1.0,1.2872311030514538,794.021197404014,None,794.021197404014,None,794.021197404014,None,1,2022_Apr_19_1452,Semantic-hierachy,2021.1.2,
200,Trial # 201,layer0-5_O10_to_T10.jpg,layer0-5/layer0-5_O10_to_T10.jpg,OT,layer0-5,,,,,0.0,50.0,50.0,50.0,,,,,795.5878806179389,None,1.0,1.4104707320220768,795.5878806179389,None,795.5878806179389,None,795.5878806179389,None,1,2022_Apr_19_1452,Semantic-hierachy,2021.1.2,
201,Trial # 202,layer9-17_T11_to_T12.jpg,layer9-17/layer9-17_T11_to_T12.jpg,TT,layer9-17,,,,,0.0,51.0,51.0,51.0,,,,,797.1545482741203,None,2.0,1.5617986358702185,797.1545482741203,None,797.1545482741203,None,797.1545482741203,None,1,2022_Apr_19_1452,Semantic-hierachy,2021.1.2,
202,Trial # 203,layer6-8_T3_to_T5.jpg,layer6-8/layer6-8_T3_to_T5.jpg,TT,layer6-8,,,,,0.0,52.0,52.0,52.0,,,,,798.9381277679931,None,3.0,2.5627941568382084,798.9381277679931,None,798.9381277679931,None,798.9381277679931,None,1,2022_Apr_19_1452,Semantic-hierachy,2021.1.2,
203,Trial # 204,layer0-5_O5_to_T10.jpg,layer0-5/layer0-5_O5_to_T10.jpg,OT,layer0-5,,,,,0.0,53.0,53.0,53.0,,,,,801.906054160092,None,1.0,2.3445083869155496,801.906054160092,None,801.906054160092,None,801.906054160092,None,1,2022_Apr_19_1452,Semantic-hierachy,2021.1.2,
204,Trial # 205,layer0-5_O10_to_O5.jpg,layer0-5/layer0-5_O10_to_O5.jpg,OO,layer0-5,,,,,0.0,54.0,54.0,54.0,,,,,804.6239485160913,None,1.0,1.2734971148893235,804.6239485160913,None,804.6239485160913,None,804.6239485160913,None,1,2022_Apr_19_1452,Semantic-hierachy,2021.1.2,
205,Trial # 206,layer0-5_O5_to_O7.jpg,layer0-5/layer0-5_O5_to_O7.jpg,OO,layer0-5,,,,,0.0,55.0,55.0,55.0,,,,,806.1409122650512,None,1.0,1.1267947950400412,806.1409122650512,None,806.1409122650512,None,806.1409122650512,None,1,2022_Apr_19_1452,Semantic-hierachy,2021.1.2,
206,Trial # 207,layer0-5_O3_to_T10.jpg,layer0-5/layer0-5_O3_to_T10.jpg,OT,layer0-5,,,,,0.0,56.0,56.0,56.0,,,,,807.4750905160327,None,1.0,6.389486019033939,807.4750905160327,None,807.4750905160327,None,807.4750905160327,None,1,2022_Apr_19_1452,Semantic-hierachy,2021.1.2,
207,Trial # 208,layer0-5_O4_to_O5.jpg,layer0-5/layer0-5_O4_to_O5.jpg,OO,layer0-5,,,,,0.0,57.0,57.0,57.0,,,,,820.0954862420913,None,1.0,1.5570959108881652,820.0954862420913,None,820.0954862420913,None,820.0954862420913,None,1,2022_Apr_19_1452,Semantic-hierachy,2021.1.2,
208,Trial # 209,layer6-8_T12_to_T3.jpg,layer6-8/layer6-8_T12_to_T3.jpg,TT,layer6-8,,,,,0.0,58.0,58.0,58.0,,,,,822.0790503281169,None,4.0,3.2761036411393434,822.0790503281169,None,822.0790503281169,None,822.0790503281169,None,1,2022_Apr_19_1452,Semantic-hierachy,2021.1.2,
209,Trial # 210,layer6-8_O7_to_T9.jpg,layer6-8/layer6-8_O7_to_T9.jpg,OT,layer6-8,,,,,0.0,59.0,59.0,59.0,,,,,825.6633356600069,None,3.0,1.9931061551906168,825.6633356600069,None,825.6633356600069,None,825.6633356600069,None,1,2022_Apr_19_1452,Semantic-hierachy,2021.1.2,
210,Trial # 211,layer6-8_O1_to_O11.jpg,layer6-8/layer6-8_O1_to_O11.jpg,OO,layer6-8,,,,,0.0,60.0,60.0,60.0,,,,,827.9140509520657,None,3.0,4.393484367057681,827.9140509520657,None,827.9140509520657,None,827.9140509520657,None,1,2022_Apr_19_1452,Semantic-hierachy,2021.1.2,
211,Trial # 212,layer6-8_T2_to_T6.jpg,layer6-8/layer6-8_T2_to_T6.jpg,TT,layer6-8,,,,,0.0,61.0,61.0,61.0,,,,,832.5488996410277,None,3.0,2.3551305311266333,832.5488996410277,None,832.5488996410277,None,832.5488996410277,None,1,2022_Apr_19_1452,Semantic-hierachy,2021.1.2,
212,Trial # 213,layer6-8_O10_to_O6.jpg,layer6-8/layer6-8_O10_to_O6.jpg,OO,layer6-8,,,,,0.0,62.0,62.0,62.0,,,,,835.3495266269892,None,3.0,1.7737265639007092,835.3495266269892,None,835.3495266269892,None,835.3495266269892,None,1,2022_Apr_19_1452,Semantic-hierachy,2021.1.2,
213,Trial # 214,layer9-17_T5_to_T8.jpg,layer9-17/layer9-17_T5_to_T8.jpg,TT,layer9-17,,,,,0.0,63.0,63.0,63.0,,,,,838.5343356661033,None,2.0,1.272568236105144,838.5343356661033,None,838.5343356661033,None,838.5343356661033,None,1,2022_Apr_19_1452,Semantic-hierachy,2021.1.2,
214,Trial # 215,layer9-17_O3_to_T10.jpg,layer9-17/layer9-17_O3_to_T10.jpg,OT,layer9-17,,,,,0.0,64.0,64.0,64.0,,,,,839.9505849389825,None,2.0,1.2239663018845022,839.9505849389825,None,839.9505849389825,None,839.9505849389825,None,1,2022_Apr_19_1452,Semantic-hierachy,2021.1.2,
215,Trial # 216,layer6-8_O12_to_O3.jpg,layer6-8/layer6-8_O12_to_O3.jpg,OO,layer6-8,,,,,0.0,65.0,65.0,65.0,,,,,841.3362411730923,None,3.0,1.6859163020271808,841.3362411730923,None,841.3362411730923,None,841.3362411730923,None,1,2022_Apr_19_1452,Semantic-hierachy,2021.1.2,
216,Trial # 217,layer0-5_T10_to_T2.jpg,layer0-5/layer0-5_T10_to_T2.jpg,TT,layer0-5,,,,,0.0,66.0,66.0,66.0,,,,,843.3518917690963,None,1.0,1.409131082938984,843.3518917690963,None,843.3518917690963,None,843.3518917690963,None,1,2022_Apr_19_1452,Semantic-hierachy,2021.1.2,
217,Trial # 218,layer9-17_O10_to_O6.jpg,layer9-17/layer9-17_O10_to_O6.jpg,OO,layer9-17,,,,,0.0,67.0,67.0,67.0,,,,,844.969281553058,None,3.0,4.1621218419168144,844.969281553058,None,844.969281553058,None,844.969281553058,None,1,2022_Apr_19_1452,Semantic-hierachy,2021.1.2,
218,Trial # 219,layer6-8_O6_to_O9.jpg,layer6-8/layer6-8_O6_to_O9.jpg,OO,layer6-8,,,,,0.0,68.0,68.0,68.0,,,,,849.5704756139312,None,3.0,1.4532827800139785,849.5704756139312,None,849.5704756139312,None,849.5704756139312,None,1,2022_Apr_19_1452,Semantic-hierachy,2021.1.2,
219,Trial # 220,layer0-5_O7_to_T2.jpg,layer0-5/layer0-5_O7_to_T2.jpg,OT,layer0-5,,,,,0.0,69.0,69.0,69.0,,,,,851.3222998310812,None,1.0,1.2597506111487746,851.3222998310812,None,851.3222998310812,None,851.3222998310812,None,1,2022_Apr_19_1452,Semantic-hierachy,2021.1.2,
220,Trial # 221,layer9-17_T12_to_T2.jpg,layer9-17/layer9-17_T12_to_T2.jpg,TT,layer9-17,,,,,0.0,70.0,70.0,70.0,,,,,852.822132154135,None,2.0,4.825764436973259,852.822132154135,None,852.822132154135,None,852.822132154135,None,1,2022_Apr_19_1452,Semantic-hierachy,2021.1.2,
221,Trial # 222,layer9-17_O8_to_T11.jpg,layer9-17/layer9-17_O8_to_T11.jpg,OT,layer9-17,,,,,0.0,71.0,71.0,71.0,,,,,857.8575778161176,None,4.0,2.12659156206064,857.8575778161176,None,857.8575778161176,None,857.8575778161176,None,1,2022_Apr_19_1452,Semantic-hierachy,2021.1.2,
222,Trial # 223,layer6-8_O3_to_T9.jpg,layer6-8/layer6-8_O3_to_T9.jpg,OT,layer6-8,,,,,0.0,72.0,72.0,72.0,,,,,860.3074102550745,None,3.0,2.4419599110260606,860.3074102550745,None,860.3074102550745,None,860.3074102550745,None,1,2022_Apr_19_1452,Semantic-hierachy,2021.1.2,
223,Trial # 224,layer0-5_O6_to_O9.jpg,layer0-5/layer0-5_O6_to_O9.jpg,OO,layer0-5,,,,,0.0,73.0,73.0,73.0,,,,,862.9750866631512,None,1.0,1.3247227119281888,862.9750866631512,None,862.9750866631512,None,862.9750866631512,None,1,2022_Apr_19_1452,Semantic-hierachy,2021.1.2,
224,Trial # 225,layer0-5_O12_to_T1.jpg,layer0-5/layer0-5_O12_to_T1.jpg,OT,layer0-5,,,,,0.0,74.0,74.0,74.0,,,,,864.6418026329484,None,1.0,1.0616314029321074,864.6418026329484,None,864.6418026329484,None,864.6418026329484,None,1,2022_Apr_19_1452,Semantic-hierachy,2021.1.2,
225,Trial # 226,layer9-17_O2_to_T8.jpg,layer9-17/layer9-17_O2_to_T8.jpg,OT,layer9-17,,,,,0.0,75.0,75.0,75.0,,,,,866.3271806789562,None,2.0,2.791225509019569,866.3271806789562,None,866.3271806789562,None,866.3271806789562,None,1,2022_Apr_19_1452,Semantic-hierachy,2021.1.2,
226,Trial # 227,layer0-5_T4_to_T8.jpg,layer0-5/layer0-5_T4_to_T8.jpg,TT,layer0-5,,,,,0.0,76.0,76.0,76.0,,,,,869.4945011469536,None,1.0,1.424891056958586,869.4945011469536,None,869.4945011469536,None,869.4945011469536,None,1,2022_Apr_19_1452,Semantic-hierachy,2021.1.2,
227,Trial # 228,layer9-17_O2_to_T1.jpg,layer9-17/layer9-17_O2_to_T1.jpg,OT,layer9-17,,,,,0.0,77.0,77.0,77.0,,,,,871.1286382400431,None,4.0,4.310732620069757,871.1286382400431,None,871.1286382400431,None,871.1286382400431,None,1,2022_Apr_19_1452,Semantic-hierachy,2021.1.2,
228,Trial # 229,layer0-5_O11_to_O7.jpg,layer0-5/layer0-5_O11_to_O7.jpg,OO,layer0-5,,,,,0.0,78.0,78.0,78.0,,,,,876.1960741840303,None,1.0,1.2447101820725948,876.1960741840303,None,876.1960741840303,None,876.1960741840303,None,1,2022_Apr_19_1452,Semantic-hierachy,2021.1.2,
229,Trial # 230,layer6-8_T2_to_T8.jpg,layer6-8/layer6-8_T2_to_T8.jpg,TT,layer6-8,,,,,0.0,79.0,79.0,79.0,,,,,877.612755367998,None,3.0,1.9064000549260527,877.612755367998,None,877.612755367998,None,877.612755367998,None,1,2022_Apr_19_1452,Semantic-hierachy,2021.1.2,
230,Trial # 231,layer9-17_T4_to_T8.jpg,layer9-17/layer9-17_T4_to_T8.jpg,TT,layer9-17,,,,,0.0,80.0,80.0,80.0,,,,,879.7298297919333,None,2.0,1.8108535599894824,879.7298297919333,None,879.7298297919333,None,879.7298297919333,None,1,2022_Apr_19_1452,Semantic-hierachy,2021.1.2,
231,Trial # 232,layer9-17_T11_to_T3.jpg,layer9-17/layer9-17_T11_to_T3.jpg,TT,layer9-17,,,,,0.0,81.0,81.0,81.0,,,,,881.7484754070174,None,2.0,1.4089821700472385,881.7484754070174,None,881.7484754070174,None,881.7484754070174,None,1,2022_Apr_19_1452,Semantic-hierachy,2021.1.2,
232,Trial # 233,layer0-5_O3_to_T9.jpg,layer0-5/layer0-5_O3_to_T9.jpg,OT,layer0-5,,,,,0.0,82.0,82.0,82.0,,,,,883.447955846088,None,1.0,1.4065308910794556,883.447955846088,None,883.447955846088,None,883.447955846088,None,1,2022_Apr_19_1452,Semantic-hierachy,2021.1.2,
233,Trial # 234,layer9-17_T7_to_T8.jpg,layer9-17/layer9-17_T7_to_T8.jpg,TT,layer9-17,,,,,0.0,83.0,83.0,83.0,,,,,885.0484156941529,None,3.0,2.043818929931149,885.0484156941529,None,885.0484156941529,None,885.0484156941529,None,1,2022_Apr_19_1452,Semantic-hierachy,2021.1.2,
234,Trial # 235,layer9-17_O3_to_O4.jpg,layer9-17/layer9-17_O3_to_O4.jpg,OO,layer9-17,,,,,0.0,84.0,84.0,84.0,,,,,887.7832024530508,None,2.0,1.275560555048287,887.7832024530508,None,887.7832024530508,None,887.7832024530508,None,1,2022_Apr_19_1452,Semantic-hierachy,2021.1.2,
235,Trial # 236,layer6-8_O8_to_T6.jpg,layer6-8/layer6-8_O8_to_T6.jpg,OT,layer6-8,,,,,0.0,85.0,85.0,85.0,,,,,889.2164581040852,None,3.0,1.1757718499284238,889.2164581040852,None,889.2164581040852,None,889.2164581040852,None,1,2022_Apr_19_1452,Semantic-hierachy,2021.1.2,
236,Trial # 237,layer9-17_T6_to_T7.jpg,layer9-17/layer9-17_T6_to_T7.jpg,TT,layer9-17,,,,,0.0,86.0,86.0,86.0,,,,,890.5659759431146,None,2.0,1.4109060519840568,890.5659759431146,None,890.5659759431146,None,890.5659759431146,None,1,2022_Apr_19_1452,Semantic-hierachy,2021.1.2,
237,Trial # 238,layer0-5_T2_to_T9.jpg,layer0-5/layer0-5_T2_to_T9.jpg,TT,layer0-5,,,,,0.0,87.0,87.0,87.0,,,,,892.1845010169782,None,1.0,1.3740081151481718,892.1845010169782,None,892.1845010169782,None,892.1845010169782,None,1,2022_Apr_19_1452,Semantic-hierachy,2021.1.2,
238,Trial # 239,layer0-5_O2_to_O5.jpg,layer0-5/layer0-5_O2_to_O5.jpg,OO,layer0-5,,,,,0.0,88.0,88.0,88.0,,,,,893.7011483730748,None,1.0,1.9118381650187075,893.7011483730748,None,893.7011483730748,None,893.7011483730748,None,1,2022_Apr_19_1452,Semantic-hierachy,2021.1.2,
239,Trial # 240,layer6-8_O1_to_O5.jpg,layer6-8/layer6-8_O1_to_O5.jpg,OO,layer6-8,,,,,0.0,89.0,89.0,89.0,,,,,895.8348997421563,None,3.0,5.506927069975063,895.8348997421563,None,895.8348997421563,None,895.8348997421563,None,1,2022_Apr_19_1452,Semantic-hierachy,2021.1.2,
240,Trial # 241,layer9-17_O3_to_O7.jpg,layer9-17/layer9-17_O3_to_O7.jpg,OO,layer9-17,,,,,0.0,90.0,90.0,90.0,,,,,905.938260957133,None,2.0,1.2440169779583812,905.938260957133,None,905.938260957133,None,905.938260957133,None,1,2022_Apr_19_1452,Semantic-hierachy,2021.1.2,
241,Trial # 242,layer6-8_O11_to_O8.jpg,layer6-8/layer6-8_O11_to_O8.jpg,OO,layer6-8,,,,,0.0,91.0,91.0,91.0,,,,,907.8233059530612,None,4.0,4.311737991170958,907.8233059530612,None,907.8233059530612,None,907.8233059530612,None,1,2022_Apr_19_1452,Semantic-hierachy,2021.1.2,
242,Trial # 243,layer9-17_T1_to_T12.jpg,layer9-17/layer9-17_T1_to_T12.jpg,TT,layer9-17,,,,,0.0,92.0,92.0,92.0,,,,,912.4906984621192,None,2.0,1.5453184200450778,912.4906984621192,None,912.4906984621192,None,912.4906984621192,None,1,2022_Apr_19_1452,Semantic-hierachy,2021.1.2,
243,Trial # 244,layer9-17_O6_to_O8.jpg,layer9-17/layer9-17_O6_to_O8.jpg,OO,layer9-17,,,,,0.0,93.0,93.0,93.0,,,,,914.2075551401358,None,4.0,2.8227885491214693,914.2075551401358,None,914.2075551401358,None,914.2075551401358,None,1,2022_Apr_19_1452,Semantic-hierachy,2021.1.2,
244,Trial # 245,layer6-8_O4_to_T11.jpg,layer6-8/layer6-8_O4_to_T11.jpg,OT,layer6-8,,,,,0.0,94.0,94.0,94.0,,,,,917.325124718016,None,3.0,2.4251425799448043,917.325124718016,None,917.325124718016,None,917.325124718016,None,1,2022_Apr_19_1452,Semantic-hierachy,2021.1.2,
245,Trial # 246,layer9-17_T10_to_T3.jpg,layer9-17/layer9-17_T10_to_T3.jpg,TT,layer9-17,,,,,0.0,95.0,95.0,95.0,,,,,920.1598243401386,None,2.0,1.461014780914411,920.1598243401386,None,920.1598243401386,None,920.1598243401386,None,1,2022_Apr_19_1452,Semantic-hierachy,2021.1.2,
246,Trial # 247,layer0-5_O10_to_O8.jpg,layer0-5/layer0-5_O10_to_O8.jpg,OO,layer0-5,,,,,0.0,96.0,96.0,96.0,,,,,922.593515748158,None,1.0,1.2106088830623776,922.593515748158,None,922.593515748158,None,922.593515748158,None,1,2022_Apr_19_1452,Semantic-hierachy,2021.1.2,
247,Trial # 248,layer6-8_O3_to_T12.jpg,layer6-8/layer6-8_O3_to_T12.jpg,OT,layer6-8,,,,,0.0,97.0,97.0,97.0,,,,,923.9607058479452,None,3.0,1.8375995059031995,923.9607058479452,None,923.9607058479452,None,923.9607058479452,None,1,2022_Apr_19_1452,Semantic-hierachy,2021.1.2,
248,Trial # 249,layer0-5_O12_to_T9.jpg,layer0-5/layer0-5_O12_to_T9.jpg,OT,layer0-5,,,,,0.0,98.0,98.0,98.0,,,,,925.9944030621556,None,1.0,1.3279346991330383,925.9944030621556,None,925.9944030621556,None,925.9944030621556,None,1,2022_Apr_19_1452,Semantic-hierachy,2021.1.2,
249,Trial # 250,layer9-17_T1_to_T9.jpg,layer9-17/layer9-17_T1_to_T9.jpg,TT,layer9-17,,,,,0.0,99.0,99.0,99.0,,,,,927.6791833420284,None,4.0,2.30682849092409,927.6791833420284,None,927.6791833420284,None,927.6791833420284,None,1,2022_Apr_19_1452,Semantic-hierachy,2021.1.2,
250,Trial # 251,layer9-17_T11_to_T8.jpg,layer9-17/layer9-17_T11_to_T8.jpg,TT,layer9-17,,,,,0.0,100.0,100.0,100.0,,,,,930.3623958730604,None,2.0,1.5445708371698856,930.3623958730604,None,930.3623958730604,None,930.3623958730604,None,1,2022_Apr_19_1452,Semantic-hierachy,2021.1.2,
251,Trial # 252,layer9-17_T11_to_T5.jpg,layer9-17/layer9-17_T11_to_T5.jpg,TT,layer9-17,,,,,0.0,101.0,101.0,101.0,,,,,932.0797715170776,None,3.0,1.4619690249674022,932.0797715170776,None,932.0797715170776,None,932.0797715170776,None,1,2022_Apr_19_1452,Semantic-hierachy,2021.1.2,
252,Trial # 253,layer6-8_T10_to_T12.jpg,layer6-8/layer6-8_T10_to_T12.jpg,TT,layer6-8,,,,,0.0,102.0,102.0,102.0,,,,,933.6969052830244,None,4.0,5.428359820973128,933.6969052830244,None,933.6969052830244,None,933.6969052830244,None,1,2022_Apr_19_1452,Semantic-hierachy,2021.1.2,
253,Trial # 254,layer9-17_O5_to_T1.jpg,layer9-17/layer9-17_O5_to_T1.jpg,OT,layer9-17,,,,,0.0,103.0,103.0,103.0,,,,,939.698727743933,None,2.0,3.356323166983202,939.698727743933,None,939.698727743933,None,939.698727743933,None,1,2022_Apr_19_1452,Semantic-hierachy,2021.1.2,
254,Trial # 255,layer6-8_T2_to_T3.jpg,layer6-8/layer6-8_T2_to_T3.jpg,TT,layer6-8,,,,,0.0,104.0,104.0,104.0,,,,,943.2840009690262,None,1.0,3.3100747731514275,943.2840009690262,None,943.2840009690262,None,943.2840009690262,None,1,2022_Apr_19_1452,Semantic-hierachy,2021.1.2,
255,Trial # 256,layer6-8_O2_to_T6.jpg,layer6-8/layer6-8_O2_to_T6.jpg,OT,layer6-8,,,,,0.0,105.0,105.0,105.0,,,,,947.1843936389778,None,3.0,2.245349541073665,947.1843936389778,None,947.1843936389778,None,947.1843936389778,None,1,2022_Apr_19_1452,Semantic-hierachy,2021.1.2,
256,Trial # 257,layer6-8_T11_to_T9.jpg,layer6-8/layer6-8_T11_to_T9.jpg,TT,layer6-8,,,,,0.0,106.0,106.0,106.0,,,,,949.735216879053,None,4.0,3.026642123935744,949.735216879053,None,949.735216879053,None,949.735216879053,None,1,2022_Apr_19_1452,Semantic-hierachy,2021.1.2,
257,Trial # 258,layer6-8_O5_to_T9.jpg,layer6-8/layer6-8_O5_to_T9.jpg,OT,layer6-8,,,,,0.0,107.0,107.0,107.0,,,,,952.9030930581504,None,3.0,1.9383934480138123,952.9030930581504,None,952.9030930581504,None,952.9030930581504,None,1,2022_Apr_19_1452,Semantic-hierachy,2021.1.2,
258,Trial # 259,layer6-8_O9_to_T8.jpg,layer6-8/layer6-8_O9_to_T8.jpg,OT,layer6-8,,,,,0.0,108.0,108.0,108.0,,,,,955.3531695930288,None,3.0,1.16051817080006,955.3531695930288,None,955.3531695930288,None,955.3531695930288,None,1,2022_Apr_19_1452,Semantic-hierachy,2021.1.2,
259,Trial # 260,layer6-8_T1_to_T5.jpg,layer6-8/layer6-8_T1_to_T5.jpg,TT,layer6-8,,,,,0.0,109.0,109.0,109.0,,,,,956.6884650371504,None,3.0,1.4598061158321798,956.6884650371504,None,956.6884650371504,None,956.6884650371504,None,1,2022_Apr_19_1452,Semantic-hierachy,2021.1.2,
260,Trial # 261,layer0-5_O11_to_T2.jpg,layer0-5/layer0-5_O11_to_T2.jpg,OT,layer0-5,,,,,0.0,110.0,110.0,110.0,,,,,958.3377732629888,None,1.0,1.5432525998912752,958.3377732629888,None,958.3377732629888,None,958.3377732629888,None,1,2022_Apr_19_1452,Semantic-hierachy,2021.1.2,
261,Trial # 262,layer0-5_O7_to_T4.jpg,layer0-5/layer0-5_O7_to_T4.jpg,OT,layer0-5,,,,,0.0,111.0,111.0,111.0,,,,,960.0550896341448,None,1.0,1.5603372829500586,960.0550896341448,None,960.0550896341448,None,960.0550896341448,None,1,2022_Apr_19_1452,Semantic-hierachy,2021.1.2,
262,Trial # 263,layer6-8_T12_to_T8.jpg,layer6-8/layer6-8_T12_to_T8.jpg,TT,layer6-8,,,,,0.0,112.0,112.0,112.0,,,,,961.9556718580424,None,3.0,1.3415543108712882,961.9556718580424,None,961.9556718580424,None,961.9556718580424,None,1,2022_Apr_19_1452,Semantic-hierachy,2021.1.2,
263,Trial # 264,layer6-8_O4_to_O9.jpg,layer6-8/layer6-8_O4_to_O9.jpg,OO,layer6-8,,,,,0.0,113.0,113.0,113.0,,,,,964.3895566379653,None,4.0,4.297342082951218,964.3895566379653,None,964.3895566379653,None,964.3895566379653,None,1,2022_Apr_19_1452,Semantic-hierachy,2021.1.2,
264,Trial # 265,layer0-5_T1_to_T5.jpg,layer0-5/layer0-5_T1_to_T5.jpg,TT,layer0-5,,,,,0.0,114.0,114.0,114.0,,,,,969.0414970410056,None,1.0,1.5946141548920425,969.0414970410056,None,969.0414970410056,None,969.0414970410056,None,1,2022_Apr_19_1452,Semantic-hierachy,2021.1.2,
265,Trial # 266,layer0-5_O12_to_O7.jpg,layer0-5/layer0-5_O12_to_O7.jpg,OO,layer0-5,,,,,0.0,115.0,115.0,115.0,,,,,970.9918426570948,None,1.0,1.0636212429963052,970.9918426570948,None,970.9918426570948,None,970.9918426570948,None,1,2022_Apr_19_1452,Semantic-hierachy,2021.1.2,
266,Trial # 267,layer6-8_T8_to_T9.jpg,layer6-8/layer6-8_T8_to_T9.jpg,TT,layer6-8,,,,,0.0,116.0,116.0,116.0,,,,,972.2595007929484,None,3.0,2.077644663164392,972.2595007929484,None,972.2595007929484,None,972.2595007929484,None,1,2022_Apr_19_1452,Semantic-hierachy,2021.1.2,
267,Trial # 268,layer9-17_O11_to_T10.jpg,layer9-17/layer9-17_O11_to_T10.jpg,OT,layer9-17,,,,,0.0,117.0,117.0,117.0,,,,,974.7924351629335,None,2.0,1.1435091239400208,974.7924351629335,None,974.7924351629335,None,974.7924351629335,None,1,2022_Apr_19_1452,Semantic-hierachy,2021.1.2,
268,Trial # 269,layer0-5_O8_to_T9.jpg,layer0-5/layer0-5_O8_to_T9.jpg,OT,layer0-5,,,,,0.0,118.0,118.0,118.0,,,,,976.2276729419827,None,1.0,1.6947666879277676,976.2276729419827,None,976.2276729419827,None,976.2276729419827,None,1,2022_Apr_19_1452,Semantic-hierachy,2021.1.2,
269,Trial # 270,layer9-17_O10_to_O11.jpg,layer9-17/layer9-17_O10_to_O11.jpg,OO,layer9-17,,,,,0.0,119.0,119.0,119.0,,,,,978.2448749900796,None,3.0,1.843495090957731,978.2448749900796,None,978.2448749900796,None,978.2448749900796,None,1,2022_Apr_19_1452,Semantic-hierachy,2021.1.2,
270,Trial # 271,layer0-5_T1_to_T9.jpg,layer0-5/layer0-5_T1_to_T9.jpg,TT,layer0-5,,,,,0.0,120.0,120.0,120.0,,,,,980.3110266770236,None,1.0,1.3116796780377626,980.3110266770236,None,980.3110266770236,None,980.3110266770236,None,1,2022_Apr_19_1452,Semantic-hierachy,2021.1.2,
271,Trial # 272,layer6-8_T11_to_T8.jpg,layer6-8/layer6-8_T11_to_T8.jpg,TT,layer6-8,,,,,0.0,121.0,121.0,121.0,,,,,981.7961029021536,None,3.0,2.57753631612286,981.7961029021536,None,981.7961029021536,None,981.7961029021536,None,1,2022_Apr_19_1452,Semantic-hierachy,2021.1.2,
272,Trial # 273,layer9-17_O10_to_O12.jpg,layer9-17/layer9-17_O10_to_O12.jpg,OO,layer9-17,,,,,0.0,122.0,122.0,122.0,,,,,984.6965209459886,None,2.0,3.3857989229727536,984.6965209459886,None,984.6965209459886,None,984.6965209459886,None,1,2022_Apr_19_1452,Semantic-hierachy,2021.1.2,
273,Trial # 274,layer0-5_T12_to_T6.jpg,layer0-5/layer0-5_T12_to_T6.jpg,TT,layer0-5,,,,,0.0,123.0,123.0,123.0,,,,,988.2476798340213,None,1.0,1.9765464458614588,988.2476798340213,None,988.2476798340213,None,988.2476798340213,None,1,2022_Apr_19_1452,Semantic-hierachy,2021.1.2,
274,Trial # 275,layer9-17_O11_to_O5.jpg,layer9-17/layer9-17_O11_to_O5.jpg,OO,layer9-17,,,,,0.0,124.0,124.0,124.0,,,,,991.9994815499522,None,3.0,3.1884363279677927,991.9994815499522,None,991.9994815499522,None,991.9994815499522,None,1,2022_Apr_19_1452,Semantic-hierachy,2021.1.2,
275,Trial # 276,layer9-17_O1_to_O4.jpg,layer9-17/layer9-17_O1_to_O4.jpg,OO,layer9-17,,,,,0.0,125.0,125.0,125.0,,,,,996.8341249360236,None,4.0,2.20991228800267,996.8341249360236,None,996.8341249360236,None,996.8341249360236,None,1,2022_Apr_19_1452,Semantic-hierachy,2021.1.2,
276,Trial # 277,layer6-8_O11_to_O3.jpg,layer6-8/layer6-8_O11_to_O3.jpg,OO,layer6-8,,,,,0.0,126.0,126.0,126.0,,,,,999.1677549011074,None,3.0,1.4278475870378315,999.1677549011074,None,999.1677549011074,None,999.1677549011074,None,1,2022_Apr_19_1452,Semantic-hierachy,2021.1.2,
277,Trial # 278,layer6-8_T10_to_T11.jpg,layer6-8/layer6-8_T10_to_T11.jpg,TT,layer6-8,,,,,0.0,127.0,127.0,127.0,,,,,1000.9513641961385,None,3.0,1.9873837621416897,1000.9513641961385,None,1000.9513641961385,None,1000.9513641961385,None,1,2022_Apr_19_1452,Semantic-hierachy,2021.1.2,
278,Trial # 279,layer0-5_O7_to_T3.jpg,layer0-5/layer0-5_O7_to_T3.jpg,OT,layer0-5,,,,,0.0,128.0,128.0,128.0,,,,,1003.468718649121,None,1.0,1.4288719459436834,1003.468718649121,None,1003.468718649121,None,1003.468718649121,None,1,2022_Apr_19_1452,Semantic-hierachy,2021.1.2,
279,Trial # 280,layer9-17_T1_to_T10.jpg,layer9-17/layer9-17_T1_to_T10.jpg,TT,layer9-17,,,,,0.0,129.0,129.0,129.0,,,,,1005.1190368549431,None,4.0,3.027550691971556,1005.1190368549431,None,1005.1190368549431,None,1005.1190368549431,None,1,2022_Apr_19_1452,Semantic-hierachy,2021.1.2,
280,Trial # 281,layer9-17_O6_to_T7.jpg,layer9-17/layer9-17_O6_to_T7.jpg,OT,layer9-17,,,,,0.0,130.0,130.0,130.0,,,,,1008.3865894619375,None,2.0,1.4724262179806828,1008.3865894619375,None,1008.3865894619375,None,1008.3865894619375,None,1,2022_Apr_19_1452,Semantic-hierachy,2021.1.2,
281,Trial # 282,layer0-5_O10_to_O7.jpg,layer0-5/layer0-5_O10_to_O7.jpg,OO,layer0-5,,,,,0.0,131.0,131.0,131.0,,,,,1010.036871185992,None,1.0,1.4081573109142482,1010.036871185992,None,1010.036871185992,None,1010.036871185992,None,1,2022_Apr_19_1452,Semantic-hierachy,2021.1.2,
282,Trial # 283,layer0-5_O1_to_O11.jpg,layer0-5/layer0-5_O1_to_O11.jpg,OO,layer0-5,,,,,0.0,132.0,132.0,132.0,,,,,1011.6044825629796,None,1.0,0.9399604161735624,1011.6044825629796,None,1011.6044825629796,None,1011.6044825629796,None,1,2022_Apr_19_1452,Semantic-hierachy,2021.1.2,
283,Trial # 284,layer6-8_O7_to_O8.jpg,layer6-8/layer6-8_O7_to_O8.jpg,OO,layer6-8,,,,,0.0,133.0,133.0,133.0,,,,,1012.7215226651168,None,2.0,2.360130690038204,1012.7215226651168,None,1012.7215226651168,None,1012.7215226651168,None,1,2022_Apr_19_1452,Semantic-hierachy,2021.1.2,
284,Trial # 285,layer0-5_T7_to_T8.jpg,layer0-5/layer0-5_T7_to_T8.jpg,TT,layer0-5,,,,,0.0,134.0,134.0,134.0,,,,,1015.3383877079468,None,1.0,1.727822815068066,1015.3383877079468,None,1015.3383877079468,None,1015.3383877079468,None,1,2022_Apr_19_1452,Semantic-hierachy,2021.1.2,
285,Trial # 286,layer9-17_T11_to_T6.jpg,layer9-17/layer9-17_T11_to_T6.jpg,TT,layer9-17,,,,,0.0,135.0,135.0,135.0,,,,,1017.2392435290384,None,3.0,1.5592301948927343,1017.2392435290384,None,1017.2392435290384,None,1017.2392435290384,None,1,2022_Apr_19_1452,Semantic-hierachy,2021.1.2,
286,Trial # 287,layer0-5_T2_to_T7.jpg,layer0-5/layer0-5_T2_to_T7.jpg,TT,layer0-5,,,,,0.0,136.0,136.0,136.0,,,,,1019.206898347009,None,1.0,1.186440585879609,1019.206898347009,None,1019.206898347009,None,1019.206898347009,None,1,2022_Apr_19_1452,Semantic-hierachy,2021.1.2,
287,Trial # 288,layer9-17_O10_to_O2.jpg,layer9-17/layer9-17_O10_to_O2.jpg,OO,layer9-17,,,,,0.0,137.0,137.0,137.0,,,,,1020.7240539081396,None,2.0,2.739821202121675,1020.7240539081396,None,1020.7240539081396,None,1020.7240539081396,None,1,2022_Apr_19_1452,Semantic-hierachy,2021.1.2,
288,Trial # 289,layer0-5_T10_to_T9.jpg,layer0-5/layer0-5_T10_to_T9.jpg,TT,layer0-5,,,,,0.0,138.0,138.0,138.0,,,,,1023.7078959019856,None,1.0,1.557928305119276,1023.7078959019856,None,1023.7078959019856,None,1023.7078959019856,None,1,2022_Apr_19_1452,Semantic-hierachy,2021.1.2,
289,Trial # 290,layer6-8_O11_to_O5.jpg,layer6-8/layer6-8_O11_to_O5.jpg,OO,layer6-8,,,,,0.0,139.0,139.0,139.0,,,,,1025.5419268000403,None,2.0,1.1203025891445575,1025.5419268000403,None,1025.5419268000403,None,1025.5419268000403,None,1,2022_Apr_19_1452,Semantic-hierachy,2021.1.2,
290,Trial # 291,layer6-8_O3_to_O7.jpg,layer6-8/layer6-8_O3_to_O7.jpg,OO,layer6-8,,,,,0.0,140.0,140.0,140.0,,,,,1028.4757037779782,None,4.0,2.325896079884842,1028.4757037779782,None,1028.4757037779782,None,1028.4757037779782,None,1,2022_Apr_19_1452,Semantic-hierachy,2021.1.2,
291,Trial # 292,layer9-17_O12_to_T11.jpg,layer9-17/layer9-17_O12_to_T11.jpg,OT,layer9-17,,,,,0.0,141.0,141.0,141.0,,,,,1030.977885802975,None,2.0,1.2955171870999038,1030.977885802975,None,1030.977885802975,None,1030.977885802975,None,1,2022_Apr_19_1452,Semantic-hierachy,2021.1.2,
292,Trial # 293,layer9-17_O2_to_O4.jpg,layer9-17/layer9-17_O2_to_O4.jpg,OO,layer9-17,,,,,0.0,142.0,142.0,142.0,,,,,1032.8954350189306,None,4.0,1.4099661170039326,1032.8954350189306,None,1032.8954350189306,None,1032.8954350189306,None,1,2022_Apr_19_1452,Semantic-hierachy,2021.1.2,
293,Trial # 294,layer6-8_O1_to_T12.jpg,layer6-8/layer6-8_O1_to_T12.jpg,OT,layer6-8,,,,,0.0,143.0,143.0,143.0,,,,,1034.57762348908,None,3.0,1.7099847230128944,1034.57762348908,None,1034.57762348908,None,1034.57762348908,None,1,2022_Apr_19_1452,Semantic-hierachy,2021.1.2,
294,Trial # 295,layer9-17_O11_to_T5.jpg,layer9-17/layer9-17_O11_to_T5.jpg,OT,layer9-17,,,,,0.0,144.0,144.0,144.0,,,,,1036.57954040193,None,3.0,2.341520734829828,1036.57954040193,None,1036.57954040193,None,1036.57954040193,None,1,2022_Apr_19_1452,Semantic-hierachy,2021.1.2,
295,Trial # 296,layer0-5_O10_to_O9.jpg,layer0-5/layer0-5_O10_to_O9.jpg,OO,layer0-5,,,,,0.0,145.0,145.0,145.0,,,,,1039.8959956879262,None,1.0,1.494300828780979,1039.8959956879262,None,1039.8959956879262,None,1039.8959956879262,None,1,2022_Apr_19_1452,Semantic-hierachy,2021.1.2,
296,Trial # 297,layer6-8_O12_to_T10.jpg,layer6-8/layer6-8_O12_to_T10.jpg,OT,layer6-8,,,,,0.0,146.0,146.0,146.0,,,,,1041.5806704829447,None,4.0,4.52610786119476,1041.5806704829447,None,1041.5806704829447,None,1041.5806704829447,None,1,2022_Apr_19_1452,Semantic-hierachy,2021.1.2,
297,Trial # 298,layer6-8_O3_to_T2.jpg,layer6-8/layer6-8_O3_to_T2.jpg,OT,layer6-8,,,,,0.0,147.0,147.0,147.0,,,,,1046.6825464579742,None,2.0,4.3467957098037004,1046.6825464579742,None,1046.6825464579742,None,1046.6825464579742,None,1,2022_Apr_19_1452,Semantic-hierachy,2021.1.2,
298,Trial # 299,layer9-17_O2_to_T5.jpg,layer9-17/layer9-17_O2_to_T5.jpg,OT,layer9-17,,,,,0.0,148.0,148.0,148.0,,,,,1051.2665648851544,None,4.0,5.6751171159558,1051.2665648851544,None,1051.2665648851544,None,1051.2665648851544,None,1,2022_Apr_19_1452,Semantic-hierachy,2021.1.2,
299,Trial # 300,layer0-5_O3_to_T7.jpg,layer0-5/layer0-5_O3_to_T7.jpg,OT,layer0-5,,,,,0.0,149.0,149.0,149.0,,,,,1059.1362478800584,None,1.0,2.6781868289690465,1059.1362478800584,None,1059.1362478800584,None,1059.1362478800584,None,1,2022_Apr_19_1452,Semantic-hierachy,2021.1.2,
300,Trial # 301,layer9-17_O11_to_O6.jpg,layer9-17/layer9-17_O11_to_O6.jpg,OO,layer9-17,,,,,,,,,0.0,0.0,0.0,0.0,1063.3706310121345,None,3.0,3.9754984728060654,1063.3706310121345,None,1063.3706310121345,None,1063.3706310121345,None,1,2022_Apr_19_1452,Semantic-hierachy,2021.1.2,
301,Trial # 302,layer0-5_O3_to_O7.jpg,layer0-5/layer0-5_O3_to_O7.jpg,OO,layer0-5,,,,,,,,,0.0,1.0,1.0,1.0,1068.388184057083,None,1.0,1.6756021920591593,1068.388184057083,None,1068.388184057083,None,1068.388184057083,None,1,2022_Apr_19_1452,Semantic-hierachy,2021.1.2,
302,Trial # 303,layer6-8_O11_to_T3.jpg,layer6-8/layer6-8_O11_to_T3.jpg,OT,layer6-8,,,,,,,,,0.0,2.0,2.0,2.0,1070.2553981321398,None,3.0,1.6753816150594505,1070.2553981321398,None,1070.2553981321398,None,1070.2553981321398,None,1,2022_Apr_19_1452,Semantic-hierachy,2021.1.2,
303,Trial # 304,layer6-8_O2_to_T7.jpg,layer6-8/layer6-8_O2_to_T7.jpg,OT,layer6-8,,,,,,,,,0.0,3.0,3.0,3.0,1072.8404966199305,None,3.0,1.1770757180638611,1072.8404966199305,None,1072.8404966199305,None,1072.8404966199305,None,1,2022_Apr_19_1452,Semantic-hierachy,2021.1.2,
304,Trial # 305,layer0-5_T1_to_T7.jpg,layer0-5/layer0-5_T1_to_T7.jpg,TT,layer0-5,,,,,,,,,0.0,4.0,4.0,4.0,1074.3232954191044,None,1.0,2.1952331769280136,1074.3232954191044,None,1074.3232954191044,None,1074.3232954191044,None,1,2022_Apr_19_1452,Semantic-hierachy,2021.1.2,
305,Trial # 306,layer6-8_O7_to_T11.jpg,layer6-8/layer6-8_O7_to_T11.jpg,OT,layer6-8,,,,,,,,,0.0,5.0,5.0,5.0,1076.7078159051016,None,1.0,1.1263182170223445,1076.7078159051016,None,1076.7078159051016,None,1076.7078159051016,None,1,2022_Apr_19_1452,Semantic-hierachy,2021.1.2,
306,Trial # 307,layer9-17_O5_to_T5.jpg,layer9-17/layer9-17_O5_to_T5.jpg,OT,layer9-17,,,,,,,,,0.0,6.0,6.0,6.0,1078.174699411029,None,2.0,2.342696378007531,1078.174699411029,None,1078.174699411029,None,1078.174699411029,None,1,2022_Apr_19_1452,Semantic-hierachy,2021.1.2,
307,Trial # 308,layer9-17_T12_to_T5.jpg,layer9-17/layer9-17_T12_to_T5.jpg,TT,layer9-17,,,,,,,,,0.0,7.0,7.0,7.0,1081.192823905032,None,2.0,1.59064041194506,1081.192823905032,None,1081.192823905032,None,1081.192823905032,None,1,2022_Apr_19_1452,Semantic-hierachy,2021.1.2,
308,Trial # 309,layer6-8_O11_to_O2.jpg,layer6-8/layer6-8_O11_to_O2.jpg,OO,layer6-8,,,,,,,,,0.0,8.0,8.0,8.0,1083.0105104821268,None,3.0,1.276541223982349,1083.0105104821268,None,1083.0105104821268,None,1083.0105104821268,None,1,2022_Apr_19_1452,Semantic-hierachy,2021.1.2,
309,Trial # 310,layer6-8_O10_to_O7.jpg,layer6-8/layer6-8_O10_to_O7.jpg,OO,layer6-8,,,,,,,,,0.0,9.0,9.0,9.0,1084.626407830976,None,3.0,1.1442201500758529,1084.626407830976,None,1084.626407830976,None,1084.626407830976,None,1,2022_Apr_19_1452,Semantic-hierachy,2021.1.2,
310,Trial # 311,layer9-17_O10_to_T11.jpg,layer9-17/layer9-17_O10_to_T11.jpg,OT,layer9-17,,,,,,,,,0.0,10.0,10.0,10.0,1086.2450876580551,None,3.0,1.4108351210597905,1086.2450876580551,None,1086.2450876580551,None,1086.2450876580551,None,1,2022_Apr_19_1452,Semantic-hierachy,2021.1.2,
311,Trial # 312,layer6-8_O11_to_O12.jpg,layer6-8/layer6-8_O11_to_O12.jpg,OO,layer6-8,,,,,,,,,0.0,11.0,11.0,11.0,1088.0108199771494,None,4.0,2.8948903649579734,1088.0108199771494,None,1088.0108199771494,None,1088.0108199771494,None,1,2022_Apr_19_1452,Semantic-hierachy,2021.1.2,
312,Trial # 313,layer9-17_O9_to_T8.jpg,layer9-17/layer9-17_O9_to_T8.jpg,OT,layer9-17,,,,,,,,,0.0,12.0,12.0,12.0,1091.1463296811562,None,4.0,1.4089221679605544,1091.1463296811562,None,1091.1463296811562,None,1091.1463296811562,None,1,2022_Apr_19_1452,Semantic-hierachy,2021.1.2,
313,Trial # 314,layer0-5_O3_to_T2.jpg,layer0-5/layer0-5_O3_to_T2.jpg,OT,layer0-5,,,,,,,,,0.0,13.0,13.0,13.0,1092.813390885014,None,1.0,1.4575242339633403,1092.813390885014,None,1092.813390885014,None,1092.813390885014,None,1,2022_Apr_19_1452,Semantic-hierachy,2021.1.2,
314,Trial # 315,layer9-17_T1_to_T11.jpg,layer9-17/layer9-17_T1_to_T11.jpg,TT,layer9-17,,,,,,,,,0.0,14.0,14.0,14.0,1094.5794177141506,None,2.0,1.7597231939435003,1094.5794177141506,None,1094.5794177141506,None,1094.5794177141506,None,1,2022_Apr_19_1452,Semantic-hierachy,2021.1.2,
315,Trial # 316,layer6-8_T10_to_T7.jpg,layer6-8/layer6-8_T10_to_T7.jpg,TT,layer6-8,,,,,,,,,0.0,15.0,15.0,15.0,1096.714090968948,None,4.0,3.7588280639611193,1096.714090968948,None,1096.714090968948,None,1096.714090968948,None,1,2022_Apr_19_1452,Semantic-hierachy,2021.1.2,
316,Trial # 317,layer0-5_T6_to_T7.jpg,layer0-5/layer0-5_T6_to_T7.jpg,TT,layer0-5,,,,,,,,,0.0,16.0,16.0,16.0,1100.7477698540315,None,1.0,2.0246790288947523,1100.7477698540315,None,1100.7477698540315,None,1100.7477698540315,None,1,2022_Apr_19_1452,Semantic-hierachy,2021.1.2,
317,Trial # 318,layer9-17_O1_to_T3.jpg,layer9-17/layer9-17_O1_to_T3.jpg,OT,layer9-17,,,,,,,,,0.0,17.0,17.0,17.0,1102.9500897990074,None,2.0,1.6599658329505471,1102.9500897990074,None,1102.9500897990074,None,1102.9500897990074,None,1,2022_Apr_19_1452,Semantic-hierachy,2021.1.2,
318,Trial # 319,layer0-5_O2_to_T5.jpg,layer0-5/layer0-5_O2_to_T5.jpg,OT,layer0-5,,,,,,,,,0.0,18.0,18.0,18.0,1105.1159420150798,None,1.0,1.7783362548798325,1105.1159420150798,None,1105.1159420150798,None,1105.1159420150798,None,1,2022_Apr_19_1452,Semantic-hierachy,2021.1.2,
319,Trial # 320,layer6-8_O7_to_T10.jpg,layer6-8/layer6-8_O7_to_T10.jpg,OT,layer6-8,,,,,,,,,0.0,19.0,19.0,19.0,1107.0838065980934,None,3.0,1.7872546140570194,1107.0838065980934,None,1107.0838065980934,None,1107.0838065980934,None,1,2022_Apr_19_1452,Semantic-hierachy,2021.1.2,
320,Trial # 321,layer0-5_O5_to_O6.jpg,layer0-5/layer0-5_O5_to_O6.jpg,OO,layer0-5,,,,,,,,,0.0,20.0,20.0,20.0,1109.11779148411,None,1.0,1.2095418490935117,1109.11779148411,None,1109.11779148411,None,1109.11779148411,None,1,2022_Apr_19_1452,Semantic-hierachy,2021.1.2,
321,Trial # 322,layer9-17_O5_to_T4.jpg,layer9-17/layer9-17_O5_to_T4.jpg,OT,layer9-17,,,,,,,,,0.0,21.0,21.0,21.0,1110.5185713400133,None,2.0,2.156554421875626,1110.5185713400133,None,1110.5185713400133,None,1110.5185713400133,None,1,2022_Apr_19_1452,Semantic-hierachy,2021.1.2,
322,Trial # 323,layer0-5_T12_to_T2.jpg,layer0-5/layer0-5_T12_to_T2.jpg,TT,layer0-5,,,,,,,,,0.0,22.0,22.0,22.0,1113.3354101050645,None,1.0,1.3424109108746052,1113.3354101050645,None,1113.3354101050645,None,1113.3354101050645,None,1,2022_Apr_19_1452,Semantic-hierachy,2021.1.2,
323,Trial # 324,layer0-5_O2_to_O4.jpg,layer0-5/layer0-5_O2_to_O4.jpg,OO,layer0-5,,,,,,,,,0.0,23.0,23.0,23.0,1114.9364884151146,None,1.0,1.559708131942898,1114.9364884151146,None,1114.9364884151146,None,1114.9364884151146,None,1,2022_Apr_19_1452,Semantic-hierachy,2021.1.2,
324,Trial # 325,layer6-8_O1_to_O9.jpg,layer6-8/layer6-8_O1_to_O9.jpg,OO,layer6-8,,,,,,,,,0.0,24.0,24.0,24.0,1117.0370294849854,None,3.0,1.39110385091044,1117.0370294849854,None,1117.0370294849854,None,1117.0370294849854,None,1,2022_Apr_19_1452,Semantic-hierachy,2021.1.2,
325,Trial # 326,layer0-5_T3_to_T5.jpg,layer0-5/layer0-5_T3_to_T5.jpg,TT,layer0-5,,,,,,,,,0.0,25.0,25.0,25.0,1118.7038760450669,None,3.0,2.990756598999724,1118.7038760450669,None,1118.7038760450669,None,1118.7038760450669,None,1,2022_Apr_19_1452,Semantic-hierachy,2021.1.2,
326,Trial # 327,layer6-8_O8_to_T12.jpg,layer6-8/layer6-8_O8_to_T12.jpg,OT,layer6-8,,,,,,,,,0.0,26.0,26.0,26.0,1122.0054997601546,None,3.0,1.340907122939825,1122.0054997601546,None,1122.0054997601546,None,1122.0054997601546,None,1,2022_Apr_19_1452,Semantic-hierachy,2021.1.2,
327,Trial # 328,layer9-17_T11_to_T4.jpg,layer9-17/layer9-17_T11_to_T4.jpg,TT,layer9-17,,,,,,,,,0.0,27.0,27.0,27.0,1124.1224525340367,None,3.0,1.8743351188022643,1124.1224525340367,None,1124.1224525340367,None,1124.1224525340367,None,1,2022_Apr_19_1452,Semantic-hierachy,2021.1.2,
328,Trial # 329,layer9-17_O6_to_T2.jpg,layer9-17/layer9-17_O6_to_T2.jpg,OT,layer9-17,,,,,,,,,0.0,28.0,28.0,28.0,1126.2240569330752,None,2.0,2.027103074127808,1126.2240569330752,None,1126.2240569330752,None,1126.2240569330752,None,1,2022_Apr_19_1452,Semantic-hierachy,2021.1.2,
329,Trial # 330,layer9-17_T10_to_T9.jpg,layer9-17/layer9-17_T10_to_T9.jpg,TT,layer9-17,,,,,,,,,0.0,29.0,29.0,29.0,1130.0742244110445,None,4.0,2.5906904621515423,1130.0742244110445,None,1130.0742244110445,None,1130.0742244110445,None,1,2022_Apr_19_1452,Semantic-hierachy,2021.1.2,
330,Trial # 331,layer0-5_O2_to_O3.jpg,layer0-5/layer0-5_O2_to_O3.jpg,OO,layer0-5,,,,,,,,,0.0,30.0,30.0,30.0,1132.9420879960526,None,1.0,2.003474817145616,1132.9420879960526,None,1132.9420879960526,None,1132.9420879960526,None,1,2022_Apr_19_1452,Semantic-hierachy,2021.1.2,
331,Trial # 332,layer6-8_O1_to_O12.jpg,layer6-8/layer6-8_O1_to_O12.jpg,OO,layer6-8,,,,,,,,,0.0,31.0,31.0,31.0,1135.3759138199966,None,3.0,2.118928517913446,1135.3759138199966,None,1135.3759138199966,None,1135.3759138199966,None,1,2022_Apr_19_1452,Semantic-hierachy,2021.1.2,
332,Trial # 333,layer0-5_O5_to_T12.jpg,layer0-5/layer0-5_O5_to_T12.jpg,OT,layer0-5,,,,,,,,,0.0,32.0,32.0,32.0,1137.9100271530915,None,1.0,2.0386359051335603,1137.9100271530915,None,1137.9100271530915,None,1137.9100271530915,None,1,2022_Apr_19_1452,Semantic-hierachy,2021.1.2,
333,Trial # 334,layer9-17_O11_to_T6.jpg,layer9-17/layer9-17_O11_to_T6.jpg,OT,layer9-17,,,,,,,,,0.0,33.0,33.0,33.0,1140.143273124937,None,4.0,5.875969563145191,1140.143273124937,None,1140.143273124937,None,1140.143273124937,None,1,2022_Apr_19_1452,Semantic-hierachy,2021.1.2,
334,Trial # 335,layer0-5_O4_to_T1.jpg,layer0-5/layer0-5_O4_to_T1.jpg,OT,layer0-5,,,,,,,,,0.0,34.0,34.0,34.0,1146.3295519780368,None,1.0,1.3405561621766535,1146.3295519780368,None,1146.3295519780368,None,1146.3295519780368,None,1,2022_Apr_19_1452,Semantic-hierachy,2021.1.2,
335,Trial # 336,layer6-8_T1_to_T6.jpg,layer6-8/layer6-8_T1_to_T6.jpg,TT,layer6-8,,,,,,,,,0.0,35.0,35.0,35.0,1147.9963423551526,None,3.0,1.541429415112361,1147.9963423551526,None,1147.9963423551526,None,1147.9963423551526,None,1,2022_Apr_19_1452,Semantic-hierachy,2021.1.2,
336,Trial # 337,layer0-5_O12_to_O6.jpg,layer0-5/layer0-5_O12_to_O6.jpg,OO,layer0-5,,,,,,,,,0.0,36.0,36.0,36.0,1150.6135210569482,None,1.0,1.1954626902006569,1150.6135210569482,None,1150.6135210569482,None,1150.6135210569482,None,1,2022_Apr_19_1452,Semantic-hierachy,2021.1.2,
337,Trial # 338,layer0-5_O1_to_O10.jpg,layer0-5/layer0-5_O1_to_O10.jpg,OO,layer0-5,,,,,,,,,0.0,37.0,37.0,37.0,1152.165224825032,None,1.0,1.2901354520581665,1152.165224825032,None,1152.165224825032,None,1152.165224825032,None,1,2022_Apr_19_1452,Semantic-hierachy,2021.1.2,
338,Trial # 339,layer0-5_O9_to_T9.jpg,layer0-5/layer0-5_O9_to_T9.jpg,OT,layer0-5,,,,,,,,,0.0,38.0,38.0,38.0,1153.6152093911078,None,1.0,1.375673371134326,1153.6152093911078,None,1153.6152093911078,None,1153.6152093911078,None,1,2022_Apr_19_1452,Semantic-hierachy,2021.1.2,
339,Trial # 340,layer6-8_O6_to_T10.jpg,layer6-8/layer6-8_O6_to_T10.jpg,OT,layer6-8,,,,,,,,,0.0,39.0,39.0,39.0,1155.3648064669687,None,3.0,1.4417767969425768,1155.3648064669687,None,1155.3648064669687,None,1155.3648064669687,None,1,2022_Apr_19_1452,Semantic-hierachy,2021.1.2,
340,Trial # 341,layer9-17_O3_to_T3.jpg,layer9-17/layer9-17_O3_to_T3.jpg,OT,layer9-17,,,,,,,,,0.0,40.0,40.0,40.0,1157.0333058771212,None,2.0,3.872497549979016,1157.0333058771212,None,1157.0333058771212,None,1157.0333058771212,None,1,2022_Apr_19_1452,Semantic-hierachy,2021.1.2,
341,Trial # 342,layer0-5_O8_to_T8.jpg,layer0-5/layer0-5_O8_to_T8.jpg,OT,layer0-5,,,,,,,,,0.0,41.0,41.0,41.0,1161.6679130729754,None,1.0,1.38226954289712,1161.6679130729754,None,1161.6679130729754,None,1161.6679130729754,None,1,2022_Apr_19_1452,Semantic-hierachy,2021.1.2,
342,Trial # 343,layer9-17_O11_to_O3.jpg,layer9-17/layer9-17_O11_to_O3.jpg,OO,layer9-17,,,,,,,,,0.0,42.0,42.0,42.0,1163.283853773959,None,2.0,1.775506477802992,1163.283853773959,None,1163.283853773959,None,1163.283853773959,None,1,2022_Apr_19_1452,Semantic-hierachy,2021.1.2,
343,Trial # 344,layer9-17_O10_to_T12.jpg,layer9-17/layer9-17_O10_to_T12.jpg,OT,layer9-17,,,,,,,,,0.0,43.0,43.0,43.0,1165.2343309631106,None,2.0,1.0759066911414266,1165.2343309631106,None,1165.2343309631106,None,1165.2343309631106,None,1,2022_Apr_19_1452,Semantic-hierachy,2021.1.2,
344,Trial # 345,layer6-8_T3_to_T6.jpg,layer6-8/layer6-8_T3_to_T6.jpg,TT,layer6-8,,,,,,,,,0.0,44.0,44.0,44.0,1166.536339461105,None,3.0,2.5097346890252084,1166.536339461105,None,1166.536339461105,None,1166.536339461105,None,1,2022_Apr_19_1452,Semantic-hierachy,2021.1.2,
345,Trial # 346,layer6-8_O1_to_O4.jpg,layer6-8/layer6-8_O1_to_O4.jpg,OO,layer6-8,,,,,,,,,0.0,45.0,45.0,45.0,1169.2863560970873,None,4.0,4.14463562797755,1169.2863560970873,None,1169.2863560970873,None,1169.2863560970873,None,1,2022_Apr_19_1452,Semantic-hierachy,2021.1.2,
346,Trial # 347,layer0-5_O8_to_T3.jpg,layer0-5/layer0-5_O8_to_T3.jpg,OT,layer0-5,,,,,,,,,0.0,46.0,46.0,46.0,1173.8540874449536,None,1.0,1.2272050338797271,1173.8540874449536,None,1173.8540874449536,None,1173.8540874449536,None,1,2022_Apr_19_1452,Semantic-hierachy,2021.1.2,
347,Trial # 348,layer9-17_T2_to_T7.jpg,layer9-17/layer9-17_T2_to_T7.jpg,TT,layer9-17,,,,,,,,,0.0,47.0,47.0,47.0,1175.337894323049,None,3.0,1.7134571480564773,1175.337894323049,None,1175.337894323049,None,1175.337894323049,None,1,2022_Apr_19_1452,Semantic-hierachy,2021.1.2,
348,Trial # 349,layer0-5_O9_to_T4.jpg,layer0-5/layer0-5_O9_to_T4.jpg,OT,layer0-5,,,,,,,,,0.0,48.0,48.0,48.0,1177.555896175094,None,1.0,2.2050978750921786,1177.555896175094,None,1177.555896175094,None,1177.555896175094,None,1,2022_Apr_19_1452,Semantic-hierachy,2021.1.2,
349,Trial # 350,layer9-17_T12_to_T9.jpg,layer9-17/layer9-17_T12_to_T9.jpg,TT,layer9-17,,,,,,,,,0.0,49.0,49.0,49.0,1180.038922253996,None,2.0,1.4255351920146495,1180.038922253996,None,1180.038922253996,None,1180.038922253996,None,1,2022_Apr_19_1452,Semantic-hierachy,2021.1.2,
350,Trial # 351,layer6-8_O11_to_O6.jpg,layer6-8/layer6-8_O11_to_O6.jpg,OO,layer6-8,,,,,,,,,0.0,50.0,50.0,50.0,1182.2734825981315,None,2.0,1.509469887940213,1182.2734825981315,None,1182.2734825981315,None,1182.2734825981315,None,1,2022_Apr_19_1452,Semantic-hierachy,2021.1.2,
351,Trial # 352,layer0-5_O10_to_O11.jpg,layer0-5/layer0-5_O10_to_O11.jpg,OO,layer0-5,,,,,,,,,0.0,51.0,51.0,51.0,1184.0244608321227,None,3.0,1.9813383598811924,1184.0244608321227,None,1184.0244608321227,None,1184.0244608321227,None,1,2022_Apr_19_1452,Semantic-hierachy,2021.1.2,
352,Trial # 353,layer9-17_O4_to_T7.jpg,layer9-17/layer9-17_O4_to_T7.jpg,OT,layer9-17,,,,,,,,,0.0,52.0,52.0,52.0,1186.4252492820378,None,2.0,2.0553048769943416,1186.4252492820378,None,1186.4252492820378,None,1186.4252492820378,None,1,2022_Apr_19_1452,Semantic-hierachy,2021.1.2,
353,Trial # 354,layer0-5_O2_to_T11.jpg,layer0-5/layer0-5_O2_to_T11.jpg,OT,layer0-5,,,,,,,,,0.0,53.0,53.0,53.0,1194.0941371480003,None,1.0,1.361191696021706,1194.0941371480003,None,1194.0941371480003,None,1194.0941371480003,None,1,2022_Apr_19_1452,Semantic-hierachy,2021.1.2,
354,Trial # 355,layer9-17_O5_to_O6.jpg,layer9-17/layer9-17_O5_to_O6.jpg,OO,layer9-17,,,,,,,,,0.0,54.0,54.0,54.0,1195.794702088926,None,2.0,1.5935825549531728,1195.794702088926,None,1195.794702088926,None,1195.794702088926,None,1,2022_Apr_19_1452,Semantic-hierachy,2021.1.2,
355,Trial # 356,layer6-8_O5_to_T10.jpg,layer6-8/layer6-8_O5_to_T10.jpg,OT,layer6-8,,,,,,,,,0.0,55.0,55.0,55.0,1197.9625914550852,None,3.0,1.7305651349015534,1197.9625914550852,None,1197.9625914550852,None,1197.9625914550852,None,1,2022_Apr_19_1452,Semantic-hierachy,2021.1.2,
356,Trial # 357,layer6-8_T3_to_T4.jpg,layer6-8/layer6-8_T3_to_T4.jpg,TT,layer6-8,,,,,,,,,0.0,56.0,56.0,56.0,1199.978595737135,None,4.0,8.374755113851279,1199.978595737135,None,1199.978595737135,None,1199.978595737135,None,1,2022_Apr_19_1452,Semantic-hierachy,2021.1.2,
357,Trial # 358,layer6-8_T4_to_T8.jpg,layer6-8/layer6-8_T4_to_T8.jpg,TT,layer6-8,,,,,,,,,0.0,57.0,57.0,57.0,1208.998381829122,None,4.0,7.878522140905261,1208.998381829122,None,1208.998381829122,None,1208.998381829122,None,1,2022_Apr_19_1452,Semantic-hierachy,2021.1.2,
358,Trial # 359,layer0-5_O2_to_T4.jpg,layer0-5/layer0-5_O2_to_T4.jpg,OT,layer0-5,,,,,,,,,0.0,58.0,58.0,58.0,1217.085120846983,None,1.0,1.828021213877946,1217.085120846983,None,1217.085120846983,None,1217.085120846983,None,1,2022_Apr_19_1452,Semantic-hierachy,2021.1.2,
359,Trial # 360,layer0-5_O4_to_O7.jpg,layer0-5/layer0-5_O4_to_O7.jpg,OO,layer0-5,,,,,,,,,0.0,59.0,59.0,59.0,1219.3681258920114,None,1.0,3.0361518249846995,1219.3681258920114,None,1219.3681258920114,None,1219.3681258920114,None,1,2022_Apr_19_1452,Semantic-hierachy,2021.1.2,
360,Trial # 361,layer9-17_O12_to_T7.jpg,layer9-17/layer9-17_O12_to_T7.jpg,OT,layer9-17,,,,,,,,,0.0,60.0,60.0,60.0,1222.652826732956,None,3.0,1.5258339010179045,1222.652826732956,None,1222.652826732956,None,1222.652826732956,None,1,2022_Apr_19_1452,Semantic-hierachy,2021.1.2,
361,Trial # 362,layer6-8_O11_to_T8.jpg,layer6-8/layer6-8_O11_to_T8.jpg,OT,layer6-8,,,,,,,,,0.0,61.0,61.0,61.0,1224.9198007599916,None,3.0,2.258442577905953,1224.9198007599916,None,1224.9198007599916,None,1224.9198007599916,None,1,2022_Apr_19_1452,Semantic-hierachy,2021.1.2,
362,Trial # 363,layer9-17_O10_to_T6.jpg,layer9-17/layer9-17_O10_to_T6.jpg,OT,layer9-17,,,,,,,,,0.0,62.0,62.0,62.0,1227.4878513209987,None,3.0,4.244087846018374,1227.4878513209987,None,1227.4878513209987,None,1227.4878513209987,None,1,2022_Apr_19_1452,Semantic-hierachy,2021.1.2,
363,Trial # 364,layer0-5_O5_to_T7.jpg,layer0-5/layer0-5_O5_to_T7.jpg,OT,layer0-5,,,,,,,,,0.0,63.0,63.0,63.0,1232.1056640050374,None,1.0,1.3778018429875374,1232.1056640050374,None,1232.1056640050374,None,1232.1056640050374,None,1,2022_Apr_19_1452,Semantic-hierachy,2021.1.2,
364,Trial # 365,layer9-17_O11_to_O2.jpg,layer9-17/layer9-17_O11_to_O2.jpg,OO,layer9-17,,,,,,,,,0.0,64.0,64.0,64.0,1233.8557466331404,None,2.0,2.5921735148876905,1233.8557466331404,None,1233.8557466331404,None,1233.8557466331404,None,1,2022_Apr_19_1452,Semantic-hierachy,2021.1.2,
