,Trial_num,image_name,image_path,pair_type,layers,block1.thisRepN,block1.thisTrialN,block1.thisN,block1.thisIndex,block2.thisRepN,block2.thisTrialN,block2.thisN,block2.thisIndex,block3.thisRepN,block3.thisTrialN,block3.thisN,block3.thisIndex,image_8.started,image_8.stopped,selected_semantic.response,selected_semantic.rt,selected_semantic.started,selected_semantic.stopped,Instruction.started,Instruction.stopped,Trial_number.started,Trial_number.stopped,session,date,expName,psychopyVersion,Unnamed: 33
0,Trial # 1,layer0-5_O2_to_T1.jpg,layer0-5/layer0-5_O2_to_T1.jpg,OT,layer0-5,0.0,0.0,0.0,0.0,,,,,,,,,61.69450117717497,None,1.0,87.56791428499855,61.69450117717497,None,61.69450117717497,None,61.69450117717497,None,1,2022_Apr_10_1139,Semantic-hierachy,2021.1.2,
1,Trial # 2,layer0-5_O11_to_T7.jpg,layer0-5/layer0-5_O11_to_T7.jpg,OT,layer0-5,0.0,1.0,1.0,1.0,,,,,,,,,150.838437467115,None,1.0,25.97247590008192,150.838437467115,None,150.838437467115,None,150.838437467115,None,1,2022_Apr_10_1139,Semantic-hierachy,2021.1.2,
2,Trial # 3,layer6-8_O3_to_O5.jpg,layer6-8/layer6-8_O3_to_O5.jpg,OO,layer6-8,0.0,2.0,2.0,2.0,,,,,,,,,178.04692706419155,None,4.0,47.2519248588942,178.04692706419155,None,178.04692706419155,None,178.04692706419155,None,1,2022_Apr_10_1139,Semantic-hierachy,2021.1.2,
3,Trial # 4,layer6-8_O11_to_O4.jpg,layer6-8/layer6-8_O11_to_O4.jpg,OO,layer6-8,0.0,3.0,3.0,3.0,,,,,,,,,226.74523088312708,None,3.0,11.112989978166295,226.74523088312708,None,226.74523088312708,None,226.74523088312708,None,1,2022_Apr_10_1139,Semantic-hierachy,2021.1.2,
4,Trial # 5,layer6-8_O8_to_T8.jpg,layer6-8/layer6-8_O8_to_T8.jpg,OT,layer6-8,0.0,4.0,4.0,4.0,,,,,,,,,239.3833634511102,None,4.0,14.931156764971092,239.3833634511102,None,239.3833634511102,None,239.3833634511102,None,1,2022_Apr_10_1139,Semantic-hierachy,2021.1.2,
5,Trial # 6,layer0-5_O11_to_O8.jpg,layer0-5/layer0-5_O11_to_O8.jpg,OO,layer0-5,0.0,5.0,5.0,5.0,,,,,,,,,255.6209857030772,None,1.0,14.145702810958028,255.6209857030772,None,255.6209857030772,None,255.6209857030772,None,1,2022_Apr_10_1139,Semantic-hierachy,2021.1.2,
6,Trial # 7,layer0-5_T10_to_T11.jpg,layer0-5/layer0-5_T10_to_T11.jpg,TT,layer0-5,0.0,6.0,6.0,6.0,,,,,,,,,270.776318811113,None,1.0,6.346948469057679,270.776318811113,None,270.776318811113,None,270.776318811113,None,1,2022_Apr_10_1139,Semantic-hierachy,2021.1.2,
7,Trial # 8,layer9-17_O6_to_O9.jpg,layer9-17/layer9-17_O6_to_O9.jpg,OO,layer9-17,0.0,7.0,7.0,7.0,,,,,,,,,278.24471580307,None,2.0,2.61248282995075,278.24471580307,None,278.24471580307,None,278.24471580307,None,1,2022_Apr_10_1139,Semantic-hierachy,2021.1.2,
8,Trial # 9,layer6-8_O12_to_O9.jpg,layer6-8/layer6-8_O12_to_O9.jpg,OO,layer6-8,0.0,8.0,8.0,8.0,,,,,,,,,283.5464768409729,None,4.0,8.009021126199514,283.5464768409729,None,283.5464768409729,None,283.5464768409729,None,1,2022_Apr_10_1139,Semantic-hierachy,2021.1.2,
9,Trial # 10,layer0-5_O10_to_T2.jpg,layer0-5/layer0-5_O10_to_T2.jpg,OT,layer0-5,0.0,9.0,9.0,9.0,,,,,,,,,292.8325680610724,None,4.0,14.113150955876336,292.8325680610724,None,292.8325680610724,None,292.8325680610724,None,1,2022_Apr_10_1139,Semantic-hierachy,2021.1.2,
10,Trial # 11,layer9-17_T10_to_T2.jpg,layer9-17/layer9-17_T10_to_T2.jpg,TT,layer9-17,0.0,10.0,10.0,10.0,,,,,,,,,308.0206330700312,None,3.0,33.70915106404573,308.0206330700312,None,308.0206330700312,None,308.0206330700312,None,1,2022_Apr_10_1139,Semantic-hierachy,2021.1.2,
11,Trial # 12,layer6-8_T6_to_T7.jpg,layer6-8/layer6-8_T6_to_T7.jpg,TT,layer6-8,0.0,11.0,11.0,11.0,,,,,,,,,342.6813201331533,None,4.0,17.953982984879985,342.6813201331533,None,342.6813201331533,None,342.6813201331533,None,1,2022_Apr_10_1139,Semantic-hierachy,2021.1.2,
12,Trial # 13,layer9-17_O10_to_T2.jpg,layer9-17/layer9-17_O10_to_T2.jpg,OT,layer9-17,0.0,12.0,12.0,12.0,,,,,,,,,361.5373900420964,None,2.0,2.3471486321650445,361.5373900420964,None,361.5373900420964,None,361.5373900420964,None,1,2022_Apr_10_1139,Semantic-hierachy,2021.1.2,
13,Trial # 14,layer6-8_T4_to_T7.jpg,layer6-8/layer6-8_T4_to_T7.jpg,TT,layer6-8,0.0,13.0,13.0,13.0,,,,,,,,,364.5218274521176,None,2.0,6.876664825947955,364.5218274521176,None,364.5218274521176,None,364.5218274521176,None,1,2022_Apr_10_1139,Semantic-hierachy,2021.1.2,
14,Trial # 15,layer9-17_O8_to_T2.jpg,layer9-17/layer9-17_O8_to_T2.jpg,OT,layer9-17,0.0,14.0,14.0,14.0,,,,,,,,,372.4905922601465,None,2.0,1.6049655680544674,372.4905922601465,None,372.4905922601465,None,372.4905922601465,None,1,2022_Apr_10_1139,Semantic-hierachy,2021.1.2,
15,Trial # 16,layer0-5_T6_to_T9.jpg,layer0-5/layer0-5_T6_to_T9.jpg,TT,layer0-5,0.0,15.0,15.0,15.0,,,,,,,,,375.02594000916,None,1.0,2.875053316121921,375.02594000916,None,375.02594000916,None,375.02594000916,None,1,2022_Apr_10_1139,Semantic-hierachy,2021.1.2,
16,Trial # 17,layer0-5_O11_to_O12.jpg,layer0-5/layer0-5_O11_to_O12.jpg,OO,layer0-5,0.0,16.0,16.0,16.0,,,,,,,,,378.8918515651021,None,1.0,1.9736728169955315,378.8918515651021,None,378.8918515651021,None,378.8918515651021,None,1,2022_Apr_10_1139,Semantic-hierachy,2021.1.2,
17,Trial # 18,layer0-5_T11_to_T5.jpg,layer0-5/layer0-5_T11_to_T5.jpg,TT,layer0-5,0.0,17.0,17.0,17.0,,,,,,,,,381.8267869220581,None,1.0,2.879431542009115,381.8267869220581,None,381.8267869220581,None,381.8267869220581,None,1,2022_Apr_10_1139,Semantic-hierachy,2021.1.2,
18,Trial # 19,layer0-5_O6_to_T12.jpg,layer0-5/layer0-5_O6_to_T12.jpg,OT,layer0-5,0.0,18.0,18.0,18.0,,,,,,,,,386.5949944441672,None,1.0,3.546327343210578,386.5949944441672,None,386.5949944441672,None,386.5949944441672,None,1,2022_Apr_10_1139,Semantic-hierachy,2021.1.2,
19,Trial # 20,layer6-8_T6_to_T8.jpg,layer6-8/layer6-8_T6_to_T8.jpg,TT,layer6-8,0.0,19.0,19.0,19.0,,,,,,,,,392.0803283420392,None,3.0,6.093809321057051,392.0803283420392,None,392.0803283420392,None,392.0803283420392,None,1,2022_Apr_10_1139,Semantic-hierachy,2021.1.2,
20,Trial # 21,layer9-17_T2_to_T5.jpg,layer9-17/layer9-17_T2_to_T5.jpg,TT,layer9-17,0.0,20.0,20.0,20.0,,,,,,,,,399.2159076381941,None,2.0,2.613385468022898,399.2159076381941,None,399.2159076381941,None,399.2159076381941,None,1,2022_Apr_10_1139,Semantic-hierachy,2021.1.2,
21,Trial # 22,layer6-8_O2_to_O6.jpg,layer6-8/layer6-8_O2_to_O6.jpg,OO,layer6-8,0.0,21.0,21.0,21.0,,,,,,,,,402.64994617411867,None,2.0,2.4586237350013107,402.64994617411867,None,402.64994617411867,None,402.64994617411867,None,1,2022_Apr_10_1139,Semantic-hierachy,2021.1.2,
22,Trial # 23,layer9-17_O3_to_T12.jpg,layer9-17/layer9-17_O3_to_T12.jpg,OT,layer9-17,0.0,22.0,22.0,22.0,,,,,,,,,409.2032514661551,None,2.0,1.9766601419541985,409.2032514661551,None,409.2032514661551,None,409.2032514661551,None,1,2022_Apr_10_1139,Semantic-hierachy,2021.1.2,
23,Trial # 24,layer0-5_O11_to_O3.jpg,layer0-5/layer0-5_O11_to_O3.jpg,OO,layer0-5,0.0,23.0,23.0,23.0,,,,,,,,,411.8195112179965,None,1.0,3.8659346459899098,411.8195112179965,None,411.8195112179965,None,411.8195112179965,None,1,2022_Apr_10_1139,Semantic-hierachy,2021.1.2,
24,Trial # 25,layer6-8_O2_to_O9.jpg,layer6-8/layer6-8_O2_to_O9.jpg,OO,layer6-8,0.0,24.0,24.0,24.0,,,,,,,,,416.3375773711596,None,4.0,7.7446884799283,416.3375773711596,None,416.3375773711596,None,416.3375773711596,None,1,2022_Apr_10_1139,Semantic-hierachy,2021.1.2,
25,Trial # 26,layer9-17_O10_to_O8.jpg,layer9-17/layer9-17_O10_to_O8.jpg,OO,layer9-17,0.0,25.0,25.0,25.0,,,,,,,,,424.9082504340913,None,3.0,6.612391320988536,424.9082504340913,None,424.9082504340913,None,424.9082504340913,None,1,2022_Apr_10_1139,Semantic-hierachy,2021.1.2,
26,Trial # 27,layer9-17_T4_to_T6.jpg,layer9-17/layer9-17_T4_to_T6.jpg,TT,layer9-17,0.0,26.0,26.0,26.0,,,,,,,,,432.5592294831295,None,2.0,4.412382629001513,432.5592294831295,None,432.5592294831295,None,432.5592294831295,None,1,2022_Apr_10_1139,Semantic-hierachy,2021.1.2,
27,Trial # 28,layer6-8_O7_to_T8.jpg,layer6-8/layer6-8_O7_to_T8.jpg,OT,layer6-8,0.0,27.0,27.0,27.0,,,,,,,,,438.1445292870048,None,2.0,8.198482635198161,438.1445292870048,None,438.1445292870048,None,438.1445292870048,None,1,2022_Apr_10_1139,Semantic-hierachy,2021.1.2,
28,Trial # 29,layer6-8_T4_to_T5.jpg,layer6-8/layer6-8_T4_to_T5.jpg,TT,layer6-8,0.0,28.0,28.0,28.0,,,,,,,,,447.3471707971767,None,3.0,3.6110351090319455,447.3471707971767,None,447.3471707971767,None,447.3471707971767,None,1,2022_Apr_10_1139,Semantic-hierachy,2021.1.2,
29,Trial # 30,layer6-8_T10_to_T9.jpg,layer6-8/layer6-8_T10_to_T9.jpg,TT,layer6-8,0.0,29.0,29.0,29.0,,,,,,,,,453.5492339411285,None,3.0,4.18114060908556,453.5492339411285,None,453.5492339411285,None,453.5492339411285,None,1,2022_Apr_10_1139,Semantic-hierachy,2021.1.2,
30,Trial # 31,layer9-17_O1_to_O8.jpg,layer9-17/layer9-17_O1_to_O8.jpg,OO,layer9-17,0.0,30.0,30.0,30.0,,,,,,,,,458.6506753109861,None,2.0,2.929269609041512,458.6506753109861,None,458.6506753109861,None,458.6506753109861,None,1,2022_Apr_10_1139,Semantic-hierachy,2021.1.2,
31,Trial # 32,layer9-17_O12_to_O7.jpg,layer9-17/layer9-17_O12_to_O7.jpg,OO,layer9-17,0.0,31.0,31.0,31.0,,,,,,,,,462.2358522231225,None,3.0,2.9615180569235235,462.2358522231225,None,462.2358522231225,None,462.2358522231225,None,1,2022_Apr_10_1139,Semantic-hierachy,2021.1.2,
32,Trial # 33,layer9-17_T10_to_T12.jpg,layer9-17/layer9-17_T10_to_T12.jpg,TT,layer9-17,0.0,32.0,32.0,32.0,,,,,,,,,466.53635232313536,None,3.0,5.110968107124791,466.53635232313536,None,466.53635232313536,None,466.53635232313536,None,1,2022_Apr_10_1139,Semantic-hierachy,2021.1.2,
33,Trial # 34,layer0-5_T2_to_T6.jpg,layer0-5/layer0-5_T2_to_T6.jpg,TT,layer0-5,0.0,33.0,33.0,33.0,,,,,,,,,473.2053587161936,None,1.0,3.9477345009800047,473.2053587161936,None,473.2053587161936,None,473.2053587161936,None,1,2022_Apr_10_1139,Semantic-hierachy,2021.1.2,
34,Trial # 35,layer6-8_T11_to_T2.jpg,layer6-8/layer6-8_T11_to_T2.jpg,TT,layer6-8,0.0,34.0,34.0,34.0,,,,,,,,,477.9230889901519,None,3.0,4.311796844005585,477.9230889901519,None,477.9230889901519,None,477.9230889901519,None,1,2022_Apr_10_1139,Semantic-hierachy,2021.1.2,
35,Trial # 36,layer6-8_O4_to_T3.jpg,layer6-8/layer6-8_O4_to_T3.jpg,OT,layer6-8,0.0,35.0,35.0,35.0,,,,,,,,,483.6919025511015,None,3.0,3.0972497249022126,483.6919025511015,None,483.6919025511015,None,483.6919025511015,None,1,2022_Apr_10_1139,Semantic-hierachy,2021.1.2,
36,Trial # 37,layer6-8_O3_to_T11.jpg,layer6-8/layer6-8_O3_to_T11.jpg,OT,layer6-8,0.0,36.0,36.0,36.0,,,,,,,,,488.22642070497386,None,2.0,1.814217149047181,488.22642070497386,None,488.22642070497386,None,488.22642070497386,None,1,2022_Apr_10_1139,Semantic-hierachy,2021.1.2,
37,Trial # 38,layer6-8_T1_to_T2.jpg,layer6-8/layer6-8_T1_to_T2.jpg,TT,layer6-8,0.0,37.0,37.0,37.0,,,,,,,,,490.8607144730631,None,3.0,4.073019072879106,490.8607144730631,None,490.8607144730631,None,490.8607144730631,None,1,2022_Apr_10_1139,Semantic-hierachy,2021.1.2,
38,Trial # 39,layer9-17_O2_to_O6.jpg,layer9-17/layer9-17_O2_to_O6.jpg,OO,layer9-17,0.0,38.0,38.0,38.0,,,,,,,,,496.1132865310647,None,4.0,9.016431064112112,496.1132865310647,None,496.1132865310647,None,496.1132865310647,None,1,2022_Apr_10_1139,Semantic-hierachy,2021.1.2,
39,Trial # 40,layer9-17_O4_to_T2.jpg,layer9-17/layer9-17_O4_to_T2.jpg,OT,layer9-17,0.0,39.0,39.0,39.0,,,,,,,,,506.1321332571097,None,2.0,2.8273096471093595,506.1321332571097,None,506.1321332571097,None,506.1321332571097,None,1,2022_Apr_10_1139,Semantic-hierachy,2021.1.2,
40,Trial # 41,layer6-8_O5_to_T3.jpg,layer6-8/layer6-8_O5_to_T3.jpg,OT,layer6-8,0.0,40.0,40.0,40.0,,,,,,,,,509.7343834061176,None,3.0,2.691084675956517,509.7343834061176,None,509.7343834061176,None,509.7343834061176,None,1,2022_Apr_10_1139,Semantic-hierachy,2021.1.2,
41,Trial # 42,layer6-8_O2_to_O3.jpg,layer6-8/layer6-8_O2_to_O3.jpg,OO,layer6-8,0.0,41.0,41.0,41.0,,,,,,,,,513.4342726680916,None,4.0,24.875129979103804,513.4342726680916,None,513.4342726680916,None,513.4342726680916,None,1,2022_Apr_10_1139,Semantic-hierachy,2021.1.2,
42,Trial # 43,layer6-8_O1_to_T6.jpg,layer6-8/layer6-8_O1_to_T6.jpg,OT,layer6-8,0.0,42.0,42.0,42.0,,,,,,,,,539.1270327570383,None,3.0,2.7373541640117764,539.1270327570383,None,539.1270327570383,None,539.1270327570383,None,1,2022_Apr_10_1139,Semantic-hierachy,2021.1.2,
43,Trial # 44,layer6-8_O2_to_T12.jpg,layer6-8/layer6-8_O2_to_T12.jpg,OT,layer6-8,0.0,43.0,43.0,43.0,,,,,,,,,542.6439445631113,None,3.0,4.190895161824301,542.6439445631113,None,542.6439445631113,None,542.6439445631113,None,1,2022_Apr_10_1139,Semantic-hierachy,2021.1.2,
44,Trial # 45,layer9-17_O2_to_O8.jpg,layer9-17/layer9-17_O2_to_O8.jpg,OO,layer9-17,0.0,44.0,44.0,44.0,,,,,,,,,547.9282532541547,None,4.0,4.3971229020971805,547.9282532541547,None,547.9282532541547,None,547.9282532541547,None,1,2022_Apr_10_1139,Semantic-hierachy,2021.1.2,
45,Trial # 46,layer9-17_O10_to_O4.jpg,layer9-17/layer9-17_O10_to_O4.jpg,OO,layer9-17,0.0,45.0,45.0,45.0,,,,,,,,,553.6801256290637,None,2.0,6.02535854303278,553.6801256290637,None,553.6801256290637,None,553.6801256290637,None,1,2022_Apr_10_1139,Semantic-hierachy,2021.1.2,
46,Trial # 47,layer0-5_O1_to_O4.jpg,layer0-5/layer0-5_O1_to_O4.jpg,OO,layer0-5,0.0,46.0,46.0,46.0,,,,,,,,,560.6655772840604,None,1.0,2.6116217630915344,560.6655772840604,None,560.6655772840604,None,560.6655772840604,None,1,2022_Apr_10_1139,Semantic-hierachy,2021.1.2,
47,Trial # 48,layer0-5_T4_to_T5.jpg,layer0-5/layer0-5_T4_to_T5.jpg,TT,layer0-5,0.0,47.0,47.0,47.0,,,,,,,,,563.9160859701224,None,1.0,5.191926294006407,563.9160859701224,None,563.9160859701224,None,563.9160859701224,None,1,2022_Apr_10_1139,Semantic-hierachy,2021.1.2,
48,Trial # 49,layer9-17_T12_to_T8.jpg,layer9-17/layer9-17_T12_to_T8.jpg,TT,layer9-17,0.0,48.0,48.0,48.0,,,,,,,,,569.7854397860356,None,2.0,5.041061006020755,569.7854397860356,None,569.7854397860356,None,569.7854397860356,None,1,2022_Apr_10_1139,Semantic-hierachy,2021.1.2,
49,Trial # 50,layer0-5_T10_to_T5.jpg,layer0-5/layer0-5_T10_to_T5.jpg,TT,layer0-5,0.0,49.0,49.0,49.0,,,,,,,,,575.4879734800197,None,1.0,2.10445175296627,575.4879734800197,None,575.4879734800197,None,575.4879734800197,None,1,2022_Apr_10_1139,Semantic-hierachy,2021.1.2,
50,Trial # 51,layer6-8_O10_to_O8.jpg,layer6-8/layer6-8_O10_to_O8.jpg,OO,layer6-8,0.0,50.0,50.0,50.0,,,,,,,,,578.2711594949942,None,4.0,5.373813444050029,578.2711594949942,None,578.2711594949942,None,578.2711594949942,None,1,2022_Apr_10_1139,Semantic-hierachy,2021.1.2,
51,Trial # 52,layer9-17_O3_to_O5.jpg,layer9-17/layer9-17_O3_to_O5.jpg,OO,layer9-17,0.0,51.0,51.0,51.0,,,,,,,,,584.4240543060005,None,2.0,1.965642248047516,584.4240543060005,None,584.4240543060005,None,584.4240543060005,None,1,2022_Apr_10_1139,Semantic-hierachy,2021.1.2,
52,Trial # 53,layer6-8_T1_to_T12.jpg,layer6-8/layer6-8_T1_to_T12.jpg,TT,layer6-8,0.0,52.0,52.0,52.0,,,,,,,,,586.9740926530212,None,3.0,3.862909009912983,586.9740926530212,None,586.9740926530212,None,586.9740926530212,None,1,2022_Apr_10_1139,Semantic-hierachy,2021.1.2,
53,Trial # 54,layer0-5_O4_to_O9.jpg,layer0-5/layer0-5_O4_to_O9.jpg,OO,layer0-5,0.0,53.0,53.0,53.0,,,,,,,,,591.6752906830516,None,1.0,2.110827361000702,591.6752906830516,None,591.6752906830516,None,591.6752906830516,None,1,2022_Apr_10_1139,Semantic-hierachy,2021.1.2,
54,Trial # 55,layer0-5_O5_to_O9.jpg,layer0-5/layer0-5_O5_to_O9.jpg,OO,layer0-5,0.0,54.0,54.0,54.0,,,,,,,,,594.3771478240378,None,4.0,8.796065259957686,594.3771478240378,None,594.3771478240378,None,594.3771478240378,None,1,2022_Apr_10_1139,Semantic-hierachy,2021.1.2,
55,Trial # 56,layer0-5_O1_to_O2.jpg,layer0-5/layer0-5_O1_to_O2.jpg,OO,layer0-5,0.0,55.0,55.0,55.0,,,,,,,,,604.2129622350913,None,1.0,2.5884806278627366,604.2129622350913,None,604.2129622350913,None,604.2129622350913,None,1,2022_Apr_10_1139,Semantic-hierachy,2021.1.2,
56,Trial # 57,layer9-17_T12_to_T3.jpg,layer9-17/layer9-17_T12_to_T3.jpg,TT,layer9-17,0.0,56.0,56.0,56.0,,,,,,,,,607.7800726101268,None,2.0,2.111204278888181,607.7800726101268,None,607.7800726101268,None,607.7800726101268,None,1,2022_Apr_10_1139,Semantic-hierachy,2021.1.2,
57,Trial # 58,layer0-5_O7_to_O9.jpg,layer0-5/layer0-5_O7_to_O9.jpg,OO,layer0-5,0.0,57.0,57.0,57.0,,,,,,,,,610.515687120147,None,1.0,2.07325235195458,610.515687120147,None,610.515687120147,None,610.515687120147,None,1,2022_Apr_10_1139,Semantic-hierachy,2021.1.2,
58,Trial # 59,layer0-5_T5_to_T9.jpg,layer0-5/layer0-5_T5_to_T9.jpg,TT,layer0-5,0.0,58.0,58.0,58.0,,,,,,,,,613.3820618370082,None,1.0,1.5952713820151985,613.3820618370082,None,613.3820618370082,None,613.3820618370082,None,1,2022_Apr_10_1139,Semantic-hierachy,2021.1.2,
59,Trial # 60,layer9-17_O1_to_O9.jpg,layer9-17/layer9-17_O1_to_O9.jpg,OO,layer9-17,0.0,59.0,59.0,59.0,,,,,,,,,615.5507159091067,None,4.0,18.112829071003944,615.5507159091067,None,615.5507159091067,None,615.5507159091067,None,1,2022_Apr_10_1139,Semantic-hierachy,2021.1.2,
60,Trial # 61,layer0-5_O6_to_O7.jpg,layer0-5/layer0-5_O6_to_O7.jpg,OO,layer0-5,0.0,60.0,60.0,60.0,,,,,,,,,648.9756405910011,None,4.0,5.328520787181333,648.9756405910011,None,648.9756405910011,None,648.9756405910011,None,1,2022_Apr_10_1139,Semantic-hierachy,2021.1.2,
61,Trial # 62,layer9-17_T5_to_T6.jpg,layer9-17/layer9-17_T5_to_T6.jpg,TT,layer9-17,0.0,61.0,61.0,61.0,,,,,,,,,655.1628445379902,None,4.0,6.3590951601509005,655.1628445379902,None,655.1628445379902,None,655.1628445379902,None,1,2022_Apr_10_1139,Semantic-hierachy,2021.1.2,
62,Trial # 63,layer9-17_T4_to_T9.jpg,layer9-17/layer9-17_T4_to_T9.jpg,TT,layer9-17,0.0,62.0,62.0,62.0,,,,,,,,,666.7152078901418,None,2.0,2.921250856947154,666.7152078901418,None,666.7152078901418,None,666.7152078901418,None,1,2022_Apr_10_1139,Semantic-hierachy,2021.1.2,
63,Trial # 64,layer0-5_O11_to_T1.jpg,layer0-5/layer0-5_O11_to_T1.jpg,OT,layer0-5,0.0,63.0,63.0,63.0,,,,,,,,,671.1165880369954,None,1.0,2.1020239959470928,671.1165880369954,None,671.1165880369954,None,671.1165880369954,None,1,2022_Apr_10_1139,Semantic-hierachy,2021.1.2,
64,Trial # 65,layer6-8_T5_to_T9.jpg,layer6-8/layer6-8_T5_to_T9.jpg,TT,layer6-8,0.0,64.0,64.0,64.0,,,,,,,,,674.0013977650087,None,3.0,16.910147137008607,674.0013977650087,None,674.0013977650087,None,674.0013977650087,None,1,2022_Apr_10_1139,Semantic-hierachy,2021.1.2,
65,Trial # 66,layer0-5_T4_to_T7.jpg,layer0-5/layer0-5_T4_to_T7.jpg,TT,layer0-5,0.0,65.0,65.0,65.0,,,,,,,,,692.1230677631684,None,1.0,3.073112268000841,692.1230677631684,None,692.1230677631684,None,692.1230677631684,None,1,2022_Apr_10_1139,Semantic-hierachy,2021.1.2,
66,Trial # 67,layer0-5_O2_to_O6.jpg,layer0-5/layer0-5_O2_to_O6.jpg,OO,layer0-5,0.0,66.0,66.0,66.0,,,,,,,,,695.8253222301137,None,1.0,1.4364712091628462,695.8253222301137,None,695.8253222301137,None,695.8253222301137,None,1,2022_Apr_10_1139,Semantic-hierachy,2021.1.2,
67,Trial # 68,layer9-17_O12_to_T3.jpg,layer9-17/layer9-17_O12_to_T3.jpg,OT,layer9-17,0.0,67.0,67.0,67.0,,,,,,,,,697.8748483280651,None,2.0,1.7255357189569622,697.8748483280651,None,697.8748483280651,None,697.8748483280651,None,1,2022_Apr_10_1139,Semantic-hierachy,2021.1.2,
68,Trial # 69,layer9-17_O7_to_O9.jpg,layer9-17/layer9-17_O7_to_O9.jpg,OO,layer9-17,0.0,68.0,68.0,68.0,,,,,,,,,700.1766994341742,None,4.0,5.861321218078956,700.1766994341742,None,700.1766994341742,None,700.1766994341742,None,1,2022_Apr_10_1139,Semantic-hierachy,2021.1.2,
69,Trial # 70,layer9-17_T1_to_T8.jpg,layer9-17/layer9-17_T1_to_T8.jpg,TT,layer9-17,0.0,69.0,69.0,69.0,,,,,,,,,707.3277506141458,None,3.0,9.530146115925165,707.3277506141458,None,707.3277506141458,None,707.3277506141458,None,1,2022_Apr_10_1139,Semantic-hierachy,2021.1.2,
70,Trial # 71,layer0-5_O3_to_T8.jpg,layer0-5/layer0-5_O3_to_T8.jpg,OT,layer0-5,0.0,70.0,70.0,70.0,,,,,,,,,717.4642566281836,None,1.0,1.9076051970478147,717.4642566281836,None,717.4642566281836,None,717.4642566281836,None,1,2022_Apr_10_1139,Semantic-hierachy,2021.1.2,
71,Trial # 72,layer9-17_O9_to_T2.jpg,layer9-17/layer9-17_O9_to_T2.jpg,OT,layer9-17,0.0,71.0,71.0,71.0,,,,,,,,,719.9320169291459,None,3.0,11.177540122997016,719.9320169291459,None,719.9320169291459,None,719.9320169291459,None,1,2022_Apr_10_1139,Semantic-hierachy,2021.1.2,
72,Trial # 73,layer9-17_O5_to_O7.jpg,layer9-17/layer9-17_O5_to_O7.jpg,OO,layer9-17,0.0,72.0,72.0,72.0,,,,,,,,,732.0698404309805,None,2.0,2.0470296228304505,732.0698404309805,None,732.0698404309805,None,732.0698404309805,None,1,2022_Apr_10_1139,Semantic-hierachy,2021.1.2,
73,Trial # 74,layer0-5_T11_to_T9.jpg,layer0-5/layer0-5_T11_to_T9.jpg,TT,layer0-5,0.0,73.0,73.0,73.0,,,,,,,,,734.653545423178,None,1.0,3.2536264050286263,734.653545423178,None,734.653545423178,None,734.653545423178,None,1,2022_Apr_10_1139,Semantic-hierachy,2021.1.2,
74,Trial # 75,layer0-5_O11_to_T12.jpg,layer0-5/layer0-5_O11_to_T12.jpg,OT,layer0-5,0.0,74.0,74.0,74.0,,,,,,,,,738.4369615630712,None,1.0,1.4126140880398452,738.4369615630712,None,738.4369615630712,None,738.4369615630712,None,1,2022_Apr_10_1139,Semantic-hierachy,2021.1.2,
75,Trial # 76,layer9-17_T7_to_T9.jpg,layer9-17/layer9-17_T7_to_T9.jpg,TT,layer9-17,0.0,75.0,75.0,75.0,,,,,,,,,744.572958531091,None,4.0,6.226282142102718,744.572958531091,None,744.572958531091,None,744.572958531091,None,1,2022_Apr_10_1139,Semantic-hierachy,2021.1.2,
76,Trial # 77,layer6-8_O6_to_T2.jpg,layer6-8/layer6-8_O6_to_T2.jpg,OT,layer6-8,0.0,76.0,76.0,76.0,,,,,,,,,751.3415285560768,None,4.0,2.547603201121092,751.3415285560768,None,751.3415285560768,None,751.3415285560768,None,1,2022_Apr_10_1139,Semantic-hierachy,2021.1.2,
77,Trial # 78,layer9-17_T4_to_T5.jpg,layer9-17/layer9-17_T4_to_T5.jpg,TT,layer9-17,0.0,77.0,77.0,77.0,,,,,,,,,754.6770310571883,None,2.0,4.695114522008225,754.6770310571883,None,754.6770310571883,None,754.6770310571883,None,1,2022_Apr_10_1139,Semantic-hierachy,2021.1.2,
78,Trial # 79,layer0-5_T2_to_T4.jpg,layer0-5/layer0-5_T2_to_T4.jpg,TT,layer0-5,0.0,78.0,78.0,78.0,,,,,,,,,760.2120980289765,None,1.0,2.242538106860593,760.2120980289765,None,760.2120980289765,None,760.2120980289765,None,1,2022_Apr_10_1139,Semantic-hierachy,2021.1.2,
79,Trial # 80,layer0-5_T2_to_T8.jpg,layer0-5/layer0-5_T2_to_T8.jpg,TT,layer0-5,0.0,79.0,79.0,79.0,,,,,,,,,763.0117045571096,None,1.0,1.364476177841425,763.0117045571096,None,763.0117045571096,None,763.0117045571096,None,1,2022_Apr_10_1139,Semantic-hierachy,2021.1.2,
80,Trial # 81,layer9-17_T3_to_T9.jpg,layer9-17/layer9-17_T3_to_T9.jpg,TT,layer9-17,0.0,80.0,80.0,80.0,,,,,,,,,764.8634674230125,None,2.0,3.1437488668598235,764.8634674230125,None,764.8634674230125,None,764.8634674230125,None,1,2022_Apr_10_1139,Semantic-hierachy,2021.1.2,
81,Trial # 82,layer9-17_O2_to_O5.jpg,layer9-17/layer9-17_O2_to_O5.jpg,OO,layer9-17,0.0,81.0,81.0,81.0,,,,,,,,,768.5631627731491,None,2.0,1.5330932280048728,768.5631627731491,None,768.5631627731491,None,768.5631627731491,None,1,2022_Apr_10_1139,Semantic-hierachy,2021.1.2,
82,Trial # 83,layer6-8_O6_to_O7.jpg,layer6-8/layer6-8_O6_to_O7.jpg,OO,layer6-8,0.0,82.0,82.0,82.0,,,,,,,,,770.9146789889783,None,4.0,2.6997664619702846,770.9146789889783,None,770.9146789889783,None,770.9146789889783,None,1,2022_Apr_10_1139,Semantic-hierachy,2021.1.2,
83,Trial # 84,layer9-17_O11_to_T1.jpg,layer9-17/layer9-17_O11_to_T1.jpg,OT,layer9-17,0.0,83.0,83.0,83.0,,,,,,,,,774.1996834480669,None,2.0,2.226267877034843,774.1996834480669,None,774.1996834480669,None,774.1996834480669,None,1,2022_Apr_10_1139,Semantic-hierachy,2021.1.2,
84,Trial # 85,layer6-8_O5_to_T12.jpg,layer6-8/layer6-8_O5_to_T12.jpg,OT,layer6-8,0.0,84.0,84.0,84.0,,,,,,,,,776.9659863540437,None,3.0,2.4652773020789027,776.9659863540437,None,776.9659863540437,None,776.9659863540437,None,1,2022_Apr_10_1139,Semantic-hierachy,2021.1.2,
85,Trial # 86,layer6-8_O4_to_O7.jpg,layer6-8/layer6-8_O4_to_O7.jpg,OO,layer6-8,0.0,85.0,85.0,85.0,,,,,,,,,780.2016519380268,None,4.0,4.308614635141566,780.2016519380268,None,780.2016519380268,None,780.2016519380268,None,1,2022_Apr_10_1139,Semantic-hierachy,2021.1.2,
86,Trial # 87,layer6-8_T10_to_T8.jpg,layer6-8/layer6-8_T10_to_T8.jpg,TT,layer6-8,0.0,86.0,86.0,86.0,,,,,,,,,785.6532993300352,None,2.0,2.99611084209755,785.6532993300352,None,785.6532993300352,None,785.6532993300352,None,1,2022_Apr_10_1139,Semantic-hierachy,2021.1.2,
87,Trial # 88,layer6-8_O10_to_T3.jpg,layer6-8/layer6-8_O10_to_T3.jpg,OT,layer6-8,0.0,87.0,87.0,87.0,,,,,,,,,790.4883476421237,None,3.0,3.106683674035594,790.4883476421237,None,790.4883476421237,None,790.4883476421237,None,1,2022_Apr_10_1139,Semantic-hierachy,2021.1.2,
88,Trial # 89,layer6-8_O5_to_O9.jpg,layer6-8/layer6-8_O5_to_O9.jpg,OO,layer6-8,0.0,88.0,88.0,88.0,,,,,,,,,794.3217859200668,None,3.0,5.049069902161136,794.3217859200668,None,794.3217859200668,None,794.3217859200668,None,1,2022_Apr_10_1139,Semantic-hierachy,2021.1.2,
89,Trial # 90,layer6-8_O10_to_O11.jpg,layer6-8/layer6-8_O10_to_O11.jpg,OO,layer6-8,0.0,89.0,89.0,89.0,,,,,,,,,800.3071770071983,None,3.0,5.495054004015401,800.3071770071983,None,800.3071770071983,None,800.3071770071983,None,1,2022_Apr_10_1139,Semantic-hierachy,2021.1.2,
90,Trial # 91,layer0-5_O4_to_T5.jpg,layer0-5/layer0-5_O4_to_T5.jpg,OT,layer0-5,0.0,90.0,90.0,90.0,,,,,,,,,807.0920130030718,None,1.0,2.713205046020448,807.0920130030718,None,807.0920130030718,None,807.0920130030718,None,1,2022_Apr_10_1139,Semantic-hierachy,2021.1.2,
91,Trial # 92,layer0-5_T11_to_T12.jpg,layer0-5/layer0-5_T11_to_T12.jpg,TT,layer0-5,0.0,91.0,91.0,91.0,,,,,,,,,810.410530449124,None,1.0,1.1480049868114293,810.410530449124,None,810.410530449124,None,810.410530449124,None,1,2022_Apr_10_1139,Semantic-hierachy,2021.1.2,
92,Trial # 93,layer0-5_T10_to_T3.jpg,layer0-5/layer0-5_T10_to_T3.jpg,TT,layer0-5,0.0,92.0,92.0,92.0,,,,,,,,,812.0768941931892,None,1.0,1.5409176589455456,812.0768941931892,None,812.0768941931892,None,812.0768941931892,None,1,2022_Apr_10_1139,Semantic-hierachy,2021.1.2,
93,Trial # 94,layer0-5_O2_to_O8.jpg,layer0-5/layer0-5_O2_to_O8.jpg,OO,layer0-5,0.0,93.0,93.0,93.0,,,,,,,,,814.0956050229724,None,1.0,1.2326805039774626,814.0956050229724,None,814.0956050229724,None,814.0956050229724,None,1,2022_Apr_10_1139,Semantic-hierachy,2021.1.2,
94,Trial # 95,layer0-5_T3_to_T8.jpg,layer0-5/layer0-5_T3_to_T8.jpg,TT,layer0-5,0.0,94.0,94.0,94.0,,,,,,,,,815.8112521150615,None,1.0,1.0935619389638305,815.8112521150615,None,815.8112521150615,None,815.8112521150615,None,1,2022_Apr_10_1139,Semantic-hierachy,2021.1.2,
95,Trial # 96,layer0-5_O7_to_O8.jpg,layer0-5/layer0-5_O7_to_O8.jpg,OO,layer0-5,0.0,95.0,95.0,95.0,,,,,,,,,817.3456641891971,None,4.0,5.608616523910314,817.3456641891971,None,817.3456641891971,None,817.3456641891971,None,1,2022_Apr_10_1139,Semantic-hierachy,2021.1.2,
96,Trial # 97,layer6-8_T10_to_T6.jpg,layer6-8/layer6-8_T10_to_T6.jpg,TT,layer6-8,0.0,96.0,96.0,96.0,,,,,,,,,823.4805463431403,None,2.0,3.694718935061246,823.4805463431403,None,823.4805463431403,None,823.4805463431403,None,1,2022_Apr_10_1139,Semantic-hierachy,2021.1.2,
97,Trial # 98,layer0-5_O1_to_O5.jpg,layer0-5/layer0-5_O1_to_O5.jpg,OO,layer0-5,0.0,97.0,97.0,97.0,,,,,,,,,827.7317256880924,None,1.0,2.4515185181517154,827.7317256880924,None,827.7317256880924,None,827.7317256880924,None,1,2022_Apr_10_1139,Semantic-hierachy,2021.1.2,
98,Trial # 99,layer6-8_O1_to_O6.jpg,layer6-8/layer6-8_O1_to_O6.jpg,OO,layer6-8,0.0,98.0,98.0,98.0,,,,,,,,,830.7007601831574,None,4.0,3.492740837158636,830.7007601831574,None,830.7007601831574,None,830.7007601831574,None,1,2022_Apr_10_1139,Semantic-hierachy,2021.1.2,
99,Trial # 100,layer6-8_O3_to_T1.jpg,layer6-8/layer6-8_O3_to_T1.jpg,OT,layer6-8,0.0,99.0,99.0,99.0,,,,,,,,,834.818497201195,None,2.0,2.244051483925432,834.818497201195,None,834.818497201195,None,834.818497201195,None,1,2022_Apr_10_1139,Semantic-hierachy,2021.1.2,
100,Trial # 101,layer6-8_T1_to_T9.jpg,layer6-8/layer6-8_T1_to_T9.jpg,TT,layer6-8,0.0,100.0,100.0,100.0,,,,,,,,,837.6349490589928,None,4.0,3.885887546930462,837.6349490589928,None,837.6349490589928,None,837.6349490589928,None,1,2022_Apr_10_1139,Semantic-hierachy,2021.1.2,
101,Trial # 102,layer9-17_O12_to_O6.jpg,layer9-17/layer9-17_O12_to_O6.jpg,OO,layer9-17,0.0,101.0,101.0,101.0,,,,,,,,,842.0862516360357,None,2.0,2.203390612034127,842.0862516360357,None,842.0862516360357,None,842.0862516360357,None,1,2022_Apr_10_1139,Semantic-hierachy,2021.1.2,
102,Trial # 103,layer0-5_T4_to_T9.jpg,layer0-5/layer0-5_T4_to_T9.jpg,TT,layer0-5,0.0,102.0,102.0,102.0,,,,,,,,,844.804702147143,None,1.0,1.6601993010845035,844.804702147143,None,844.804702147143,None,844.804702147143,None,1,2022_Apr_10_1139,Semantic-hierachy,2021.1.2,
103,Trial # 104,layer6-8_O10_to_T1.jpg,layer6-8/layer6-8_O10_to_T1.jpg,OT,layer6-8,0.0,103.0,103.0,103.0,,,,,,,,,847.0045281180646,None,3.0,4.833008721005172,847.0045281180646,None,847.0045281180646,None,847.0045281180646,None,1,2022_Apr_10_1139,Semantic-hierachy,2021.1.2,
104,Trial # 105,layer0-5_O6_to_T2.jpg,layer0-5/layer0-5_O6_to_T2.jpg,OT,layer0-5,0.0,104.0,104.0,104.0,,,,,,,,,853.4562388891354,None,1.0,2.3153831330128014,853.4562388891354,None,853.4562388891354,None,853.4562388891354,None,1,2022_Apr_10_1139,Semantic-hierachy,2021.1.2,
105,Trial # 106,layer9-17_T11_to_T2.jpg,layer9-17/layer9-17_T11_to_T2.jpg,TT,layer9-17,0.0,105.0,105.0,105.0,,,,,,,,,856.5739429211244,None,2.0,2.3884908829350024,856.5739429211244,None,856.5739429211244,None,856.5739429211244,None,1,2022_Apr_10_1139,Semantic-hierachy,2021.1.2,
106,Trial # 107,layer9-17_O12_to_O8.jpg,layer9-17/layer9-17_O12_to_O8.jpg,OO,layer9-17,0.0,106.0,106.0,106.0,,,,,,,,,859.5251609291881,None,2.0,2.5453951719682664,859.5251609291881,None,859.5251609291881,None,859.5251609291881,None,1,2022_Apr_10_1139,Semantic-hierachy,2021.1.2,
107,Trial # 108,layer0-5_T12_to_T3.jpg,layer0-5/layer0-5_T12_to_T3.jpg,TT,layer0-5,0.0,107.0,107.0,107.0,,,,,,,,,863.4592418961693,None,1.0,4.401786845875904,863.4592418961693,None,863.4592418961693,None,863.4592418961693,None,1,2022_Apr_10_1139,Semantic-hierachy,2021.1.2,
108,Trial # 109,layer0-5_T1_to_T10.jpg,layer0-5/layer0-5_T1_to_T10.jpg,TT,layer0-5,0.0,108.0,108.0,108.0,,,,,,,,,868.4612271401566,None,1.0,1.9469062311109155,868.4612271401566,None,868.4612271401566,None,868.4612271401566,None,1,2022_Apr_10_1139,Semantic-hierachy,2021.1.2,
109,Trial # 110,layer6-8_O4_to_T5.jpg,layer6-8/layer6-8_O4_to_T5.jpg,OT,layer6-8,0.0,109.0,109.0,109.0,,,,,,,,,871.8790526799858,None,3.0,2.299008959205821,871.8790526799858,None,871.8790526799858,None,871.8790526799858,None,1,2022_Apr_10_1139,Semantic-hierachy,2021.1.2,
110,Trial # 111,layer9-17_O11_to_O7.jpg,layer9-17/layer9-17_O11_to_O7.jpg,OO,layer9-17,0.0,110.0,110.0,110.0,,,,,,,,,874.930208100006,None,2.0,2.7301227499265224,874.930208100006,None,874.930208100006,None,874.930208100006,None,1,2022_Apr_10_1139,Semantic-hierachy,2021.1.2,
111,Trial # 112,layer0-5_O5_to_O8.jpg,layer0-5/layer0-5_O5_to_O8.jpg,OO,layer0-5,0.0,111.0,111.0,111.0,,,,,,,,,878.3641426791437,None,1.0,2.631460240809247,878.3641426791437,None,878.3641426791437,None,878.3641426791437,None,1,2022_Apr_10_1139,Semantic-hierachy,2021.1.2,
112,Trial # 113,layer0-5_O10_to_O4.jpg,layer0-5/layer0-5_O10_to_O4.jpg,OO,layer0-5,0.0,112.0,112.0,112.0,,,,,,,,,881.7984839191195,None,1.0,6.629339545033872,881.7984839191195,None,881.7984839191195,None,881.7984839191195,None,1,2022_Apr_10_1139,Semantic-hierachy,2021.1.2,
113,Trial # 114,layer9-17_O4_to_O8.jpg,layer9-17/layer9-17_O4_to_O8.jpg,OO,layer9-17,0.0,113.0,113.0,113.0,,,,,,,,,889.18517591618,None,2.0,13.314441789174452,889.18517591618,None,889.18517591618,None,889.18517591618,None,1,2022_Apr_10_1139,Semantic-hierachy,2021.1.2,
114,Trial # 115,layer0-5_O2_to_T8.jpg,layer0-5/layer0-5_O2_to_T8.jpg,OT,layer0-5,0.0,114.0,114.0,114.0,,,,,,,,,903.0719116081018,None,1.0,2.058609116123989,903.0719116081018,None,903.0719116081018,None,903.0719116081018,None,1,2022_Apr_10_1139,Semantic-hierachy,2021.1.2,
115,Trial # 116,layer9-17_T2_to_T3.jpg,layer9-17/layer9-17_T2_to_T3.jpg,TT,layer9-17,0.0,115.0,115.0,115.0,,,,,,,,,905.6729337691796,None,2.0,3.479931397130713,905.6729337691796,None,905.6729337691796,None,905.6729337691796,None,1,2022_Apr_10_1139,Semantic-hierachy,2021.1.2,
116,Trial # 117,layer6-8_O1_to_T10.jpg,layer6-8/layer6-8_O1_to_T10.jpg,OT,layer6-8,0.0,116.0,116.0,116.0,,,,,,,,,909.774092643056,None,3.0,2.1757944200653583,909.774092643056,None,909.774092643056,None,909.774092643056,None,1,2022_Apr_10_1139,Semantic-hierachy,2021.1.2,
117,Trial # 118,layer0-5_T3_to_T7.jpg,layer0-5/layer0-5_T3_to_T7.jpg,TT,layer0-5,0.0,117.0,117.0,117.0,,,,,,,,,912.6914943230804,None,1.0,2.032833583885804,912.6914943230804,None,912.6914943230804,None,912.6914943230804,None,1,2022_Apr_10_1139,Semantic-hierachy,2021.1.2,
118,Trial # 119,layer9-17_O1_to_O12.jpg,layer9-17/layer9-17_O1_to_O12.jpg,OO,layer9-17,0.0,118.0,118.0,118.0,,,,,,,,,915.2267542460468,None,2.0,2.733858311083168,915.2267542460468,None,915.2267542460468,None,915.2267542460468,None,1,2022_Apr_10_1139,Semantic-hierachy,2021.1.2,
119,Trial # 120,layer6-8_O12_to_O2.jpg,layer6-8/layer6-8_O12_to_O2.jpg,OO,layer6-8,0.0,119.0,119.0,119.0,,,,,,,,,918.527228685096,None,3.0,9.099865361116828,918.527228685096,None,918.527228685096,None,918.527228685096,None,1,2022_Apr_10_1139,Semantic-hierachy,2021.1.2,
120,Trial # 121,layer9-17_O10_to_O9.jpg,layer9-17/layer9-17_O10_to_O9.jpg,OO,layer9-17,0.0,120.0,120.0,120.0,,,,,,,,,928.4296122591476,None,2.0,4.025171749992296,928.4296122591476,None,928.4296122591476,None,928.4296122591476,None,1,2022_Apr_10_1139,Semantic-hierachy,2021.1.2,
121,Trial # 122,layer6-8_O4_to_T10.jpg,layer6-8/layer6-8_O4_to_T10.jpg,OT,layer6-8,0.0,121.0,121.0,121.0,,,,,,,,,933.0144595131278,None,3.0,2.0106608998030424,933.0144595131278,None,933.0144595131278,None,933.0144595131278,None,1,2022_Apr_10_1139,Semantic-hierachy,2021.1.2,
122,Trial # 123,layer6-8_O2_to_T3.jpg,layer6-8/layer6-8_O2_to_T3.jpg,OT,layer6-8,0.0,122.0,122.0,122.0,,,,,,,,,935.548655633116,None,3.0,1.378590398002416,935.548655633116,None,935.548655633116,None,935.548655633116,None,1,2022_Apr_10_1139,Semantic-hierachy,2021.1.2,
123,Trial # 124,layer0-5_O1_to_O7.jpg,layer0-5/layer0-5_O1_to_O7.jpg,OO,layer0-5,0.0,123.0,123.0,123.0,,,,,,,,,937.5163741181605,None,1.0,3.267087130108848,937.5163741181605,None,937.5163741181605,None,937.5163741181605,None,1,2022_Apr_10_1139,Semantic-hierachy,2021.1.2,
124,Trial # 125,layer0-5_T8_to_T9.jpg,layer0-5/layer0-5_T8_to_T9.jpg,TT,layer0-5,0.0,124.0,124.0,124.0,,,,,,,,,941.3666861390228,None,1.0,2.6496781120076776,941.3666861390228,None,941.3666861390228,None,941.3666861390228,None,1,2022_Apr_10_1139,Semantic-hierachy,2021.1.2,
125,Trial # 126,layer0-5_O12_to_T8.jpg,layer0-5/layer0-5_O12_to_T8.jpg,OT,layer0-5,0.0,125.0,125.0,125.0,,,,,,,,,944.552619611146,None,1.0,1.113076277077198,944.552619611146,None,944.552619611146,None,944.552619611146,None,1,2022_Apr_10_1139,Semantic-hierachy,2021.1.2,
126,Trial # 127,layer9-17_O4_to_O6.jpg,layer9-17/layer9-17_O4_to_O6.jpg,OO,layer9-17,0.0,126.0,126.0,126.0,,,,,,,,,946.1519080081488,None,2.0,6.713995284866542,946.1519080081488,None,946.1519080081488,None,946.1519080081488,None,1,2022_Apr_10_1139,Semantic-hierachy,2021.1.2,
127,Trial # 128,layer6-8_O12_to_O6.jpg,layer6-8/layer6-8_O12_to_O6.jpg,OO,layer6-8,0.0,127.0,127.0,127.0,,,,,,,,,953.4211804971565,None,4.0,9.952206630026922,953.4211804971565,None,953.4211804971565,None,953.4211804971565,None,1,2022_Apr_10_1139,Semantic-hierachy,2021.1.2,
128,Trial # 129,layer0-5_T4_to_T6.jpg,layer0-5/layer0-5_T4_to_T6.jpg,TT,layer0-5,0.0,128.0,128.0,128.0,,,,,,,,,968.1087193980349,None,1.0,2.5642279849853367,968.1087193980349,None,968.1087193980349,None,968.1087193980349,None,1,2022_Apr_10_1139,Semantic-hierachy,2021.1.2,
129,Trial # 130,layer9-17_O1_to_O3.jpg,layer9-17/layer9-17_O1_to_O3.jpg,OO,layer9-17,0.0,129.0,129.0,129.0,,,,,,,,,971.2430040179752,None,2.0,1.78042073501274,971.2430040179752,None,971.2430040179752,None,971.2430040179752,None,1,2022_Apr_10_1139,Semantic-hierachy,2021.1.2,
130,Trial # 131,layer9-17_O10_to_O3.jpg,layer9-17/layer9-17_O10_to_O3.jpg,OO,layer9-17,0.0,130.0,130.0,130.0,,,,,,,,,973.593528315192,None,2.0,1.1037421801593157,973.593528315192,None,973.593528315192,None,973.593528315192,None,1,2022_Apr_10_1139,Semantic-hierachy,2021.1.2,
131,Trial # 132,layer9-17_O12_to_O3.jpg,layer9-17/layer9-17_O12_to_O3.jpg,OO,layer9-17,0.0,131.0,131.0,131.0,,,,,,,,,975.1953478471842,None,2.0,0.9690896840766072,975.1953478471842,None,975.1953478471842,None,975.1953478471842,None,1,2022_Apr_10_1139,Semantic-hierachy,2021.1.2,
132,Trial # 133,layer9-17_O11_to_O4.jpg,layer9-17/layer9-17_O11_to_O4.jpg,OO,layer9-17,0.0,132.0,132.0,132.0,,,,,,,,,976.6613720580935,None,4.0,4.318902193102986,976.6613720580935,None,976.6613720580935,None,976.6613720580935,None,1,2022_Apr_10_1139,Semantic-hierachy,2021.1.2,
133,Trial # 134,layer9-17_T4_to_T7.jpg,layer9-17/layer9-17_T4_to_T7.jpg,TT,layer9-17,0.0,133.0,133.0,133.0,,,,,,,,,981.6794038591906,None,2.0,5.1005589668639,981.6794038591906,None,981.6794038591906,None,981.6794038591906,None,1,2022_Apr_10_1139,Semantic-hierachy,2021.1.2,
134,Trial # 135,layer9-17_O1_to_T1.jpg,layer9-17/layer9-17_O1_to_T1.jpg,OT,layer9-17,0.0,134.0,134.0,134.0,,,,,,,,,987.6313733509742,None,2.0,11.245524700032547,987.6313733509742,None,987.6313733509742,None,987.6313733509742,None,1,2022_Apr_10_1139,Semantic-hierachy,2021.1.2,
135,Trial # 136,layer6-8_T2_to_T5.jpg,layer6-8/layer6-8_T2_to_T5.jpg,TT,layer6-8,0.0,135.0,135.0,135.0,,,,,,,,,999.7519863001072,None,3.0,5.6990532509516925,999.7519863001072,None,999.7519863001072,None,999.7519863001072,None,1,2022_Apr_10_1139,Semantic-hierachy,2021.1.2,
136,Trial # 137,layer9-17_T11_to_T7.jpg,layer9-17/layer9-17_T11_to_T7.jpg,TT,layer9-17,0.0,136.0,136.0,136.0,,,,,,,,,1006.3715170430952,None,2.0,2.661230026045814,1006.3715170430952,None,1006.3715170430952,None,1006.3715170430952,None,1,2022_Apr_10_1139,Semantic-hierachy,2021.1.2,
137,Trial # 138,layer6-8_O3_to_O8.jpg,layer6-8/layer6-8_O3_to_O8.jpg,OO,layer6-8,0.0,137.0,137.0,137.0,,,,,,,,,1009.5726370930206,None,2.0,5.434750845190138,1009.5726370930206,None,1009.5726370930206,None,1009.5726370930206,None,1,2022_Apr_10_1139,Semantic-hierachy,2021.1.2,
138,Trial # 139,layer6-8_O1_to_T7.jpg,layer6-8/layer6-8_O1_to_T7.jpg,OT,layer6-8,0.0,138.0,138.0,138.0,,,,,,,,,1016.0411433100236,None,3.0,1.89914791402407,1016.0411433100236,None,1016.0411433100236,None,1016.0411433100236,None,1,2022_Apr_10_1139,Semantic-hierachy,2021.1.2,
139,Trial # 140,layer9-17_T1_to_T3.jpg,layer9-17/layer9-17_T1_to_T3.jpg,TT,layer9-17,0.0,139.0,139.0,139.0,,,,,,,,,1018.4408804590348,None,4.0,4.745891320984811,1018.4408804590348,None,1018.4408804590348,None,1018.4408804590348,None,1,2022_Apr_10_1139,Semantic-hierachy,2021.1.2,
140,Trial # 141,layer6-8_O10_to_O12.jpg,layer6-8/layer6-8_O10_to_O12.jpg,OO,layer6-8,0.0,140.0,140.0,140.0,,,,,,,,,1024.260804414982,None,4.0,5.023354904027656,1024.260804414982,None,1024.260804414982,None,1024.260804414982,None,1,2022_Apr_10_1139,Semantic-hierachy,2021.1.2,
141,Trial # 142,layer6-8_O12_to_T11.jpg,layer6-8/layer6-8_O12_to_T11.jpg,OT,layer6-8,0.0,141.0,141.0,141.0,,,,,,,,,1029.879062405089,None,4.0,13.50494799693115,1029.879062405089,None,1029.879062405089,None,1029.879062405089,None,1,2022_Apr_10_1139,Semantic-hierachy,2021.1.2,
142,Trial # 143,layer0-5_O11_to_O5.jpg,layer0-5/layer0-5_O11_to_O5.jpg,OO,layer0-5,0.0,142.0,142.0,142.0,,,,,,,,,1044.9834064859897,None,1.0,2.132912847911939,1044.9834064859897,None,1044.9834064859897,None,1044.9834064859897,None,1,2022_Apr_10_1139,Semantic-hierachy,2021.1.2,
143,Trial # 144,layer6-8_O1_to_O8.jpg,layer6-8/layer6-8_O1_to_O8.jpg,OO,layer6-8,0.0,143.0,143.0,143.0,,,,,,,,,1047.6499562039971,None,2.0,1.862536213127896,1047.6499562039971,None,1047.6499562039971,None,1047.6499562039971,None,1,2022_Apr_10_1139,Semantic-hierachy,2021.1.2,
144,Trial # 145,layer0-5_T2_to_T5.jpg,layer0-5/layer0-5_T2_to_T5.jpg,TT,layer0-5,0.0,144.0,144.0,144.0,,,,,,,,,1050.0017255530693,None,1.0,1.882107209181413,1050.0017255530693,None,1050.0017255530693,None,1050.0017255530693,None,1,2022_Apr_10_1139,Semantic-hierachy,2021.1.2,
145,Trial # 146,layer9-17_O8_to_T3.jpg,layer9-17/layer9-17_O8_to_T3.jpg,OT,layer9-17,0.0,145.0,145.0,145.0,,,,,,,,,1052.3678410821594,None,2.0,2.028289193054661,1052.3678410821594,None,1052.3678410821594,None,1052.3678410821594,None,1,2022_Apr_10_1139,Semantic-hierachy,2021.1.2,
146,Trial # 147,layer9-17_O8_to_T4.jpg,layer9-17/layer9-17_O8_to_T4.jpg,OT,layer9-17,0.0,146.0,146.0,146.0,,,,,,,,,1054.8701750300825,None,4.0,18.42260099411942,1054.8701750300825,None,1054.8701750300825,None,1054.8701750300825,None,1,2022_Apr_10_1139,Semantic-hierachy,2021.1.2,
147,Trial # 148,layer9-17_O4_to_T9.jpg,layer9-17/layer9-17_O4_to_T9.jpg,OT,layer9-17,0.0,147.0,147.0,147.0,,,,,,,,,1073.8080819919703,None,2.0,1.9978255131281912,1073.8080819919703,None,1073.8080819919703,None,1073.8080819919703,None,1,2022_Apr_10_1139,Semantic-hierachy,2021.1.2,
148,Trial # 149,layer6-8_O4_to_O8.jpg,layer6-8/layer6-8_O4_to_O8.jpg,OO,layer6-8,0.0,148.0,148.0,148.0,,,,,,,,,1076.310137605993,None,3.0,3.1226101478096098,1076.310137605993,None,1076.310137605993,None,1076.310137605993,None,1,2022_Apr_10_1139,Semantic-hierachy,2021.1.2,
149,Trial # 150,layer0-5_O12_to_T7.jpg,layer0-5/layer0-5_O12_to_T7.jpg,OT,layer0-5,0.0,149.0,149.0,149.0,,,,,,,,,1080.11125103198,None,1.0,2.2974247820675373,1080.11125103198,None,1080.11125103198,None,1080.11125103198,None,1,2022_Apr_10_1139,Semantic-hierachy,2021.1.2,
150,Trial # 151,layer6-8_T1_to_T3.jpg,layer6-8/layer6-8_T1_to_T3.jpg,TT,layer6-8,,,,,0.0,0.0,0.0,0.0,,,,,1085.1129893441685,None,4.0,5.401857437100261,1085.1129893441685,None,1085.1129893441685,None,1085.1129893441685,None,1,2022_Apr_10_1139,Semantic-hierachy,2021.1.2,
151,Trial # 152,layer0-5_O8_to_O9.jpg,layer0-5/layer0-5_O8_to_O9.jpg,OO,layer0-5,,,,,0.0,1.0,1.0,1.0,,,,,1091.2144519351425,None,1.0,2.5888926240149885,1091.2144519351425,None,1091.2144519351425,None,1091.2144519351425,None,1,2022_Apr_10_1139,Semantic-hierachy,2021.1.2,
152,Trial # 153,layer9-17_T1_to_T5.jpg,layer9-17/layer9-17_T1_to_T5.jpg,TT,layer9-17,,,,,0.0,2.0,2.0,2.0,,,,,1094.5647953799926,None,2.0,1.781062750844285,1094.5647953799926,None,1094.5647953799926,None,1094.5647953799926,None,1,2022_Apr_10_1139,Semantic-hierachy,2021.1.2,
153,Trial # 154,layer6-8_T7_to_T9.jpg,layer6-8/layer6-8_T7_to_T9.jpg,TT,layer6-8,,,,,0.0,3.0,3.0,3.0,,,,,1096.8148869371507,None,4.0,6.852100153919309,1096.8148869371507,None,1096.8148869371507,None,1096.8148869371507,None,1,2022_Apr_10_1139,Semantic-hierachy,2021.1.2,
154,Trial # 155,layer9-17_T12_to_T7.jpg,layer9-17/layer9-17_T12_to_T7.jpg,TT,layer9-17,,,,,0.0,4.0,4.0,4.0,,,,,1104.1851732451469,None,2.0,2.7462282821070403,1104.1851732451469,None,1104.1851732451469,None,1104.1851732451469,None,1,2022_Apr_10_1139,Semantic-hierachy,2021.1.2,
155,Trial # 156,layer0-5_O8_to_T11.jpg,layer0-5/layer0-5_O8_to_T11.jpg,OT,layer0-5,,,,,0.0,5.0,5.0,5.0,,,,,1107.4185350490734,None,1.0,1.5772448501084,1107.4185350490734,None,1107.4185350490734,None,1107.4185350490734,None,1,2022_Apr_10_1139,Semantic-hierachy,2021.1.2,
156,Trial # 157,layer0-5_O1_to_O9.jpg,layer0-5/layer0-5_O1_to_O9.jpg,OO,layer0-5,,,,,0.0,6.0,6.0,6.0,,,,,1109.4193493991625,None,1.0,1.0965524220373482,1109.4193493991625,None,1109.4193493991625,None,1109.4193493991625,None,1,2022_Apr_10_1139,Semantic-hierachy,2021.1.2,
157,Trial # 158,layer0-5_O10_to_O12.jpg,layer0-5/layer0-5_O10_to_O12.jpg,OO,layer0-5,,,,,0.0,7.0,7.0,7.0,,,,,1110.936161522055,None,1.0,2.4298544339835644,1110.936161522055,None,1110.936161522055,None,1110.936161522055,None,1,2022_Apr_10_1139,Semantic-hierachy,2021.1.2,
158,Trial # 159,layer6-8_O10_to_T5.jpg,layer6-8/layer6-8_O10_to_T5.jpg,OT,layer6-8,,,,,0.0,8.0,8.0,8.0,,,,,1113.8039884371683,None,3.0,2.752131158020348,1113.8039884371683,None,1113.8039884371683,None,1113.8039884371683,None,1,2022_Apr_10_1139,Semantic-hierachy,2021.1.2,
159,Trial # 160,layer6-8_O5_to_O6.jpg,layer6-8/layer6-8_O5_to_O6.jpg,OO,layer6-8,,,,,0.0,9.0,9.0,9.0,,,,,1117.054964648094,None,4.0,3.798980793915689,1117.054964648094,None,1117.054964648094,None,1117.054964648094,None,1,2022_Apr_10_1139,Semantic-hierachy,2021.1.2,
160,Trial # 161,layer6-8_O6_to_T11.jpg,layer6-8/layer6-8_O6_to_T11.jpg,OT,layer6-8,,,,,0.0,10.0,10.0,10.0,,,,,1122.2896446750965,None,3.0,2.713484615087509,1122.2896446750965,None,1122.2896446750965,None,1122.2896446750965,None,1,2022_Apr_10_1139,Semantic-hierachy,2021.1.2,
161,Trial # 162,layer9-17_O12_to_O9.jpg,layer9-17/layer9-17_O12_to_O9.jpg,OO,layer9-17,,,,,0.0,11.0,11.0,11.0,,,,,1125.5405808731448,None,2.0,1.948585789185017,1125.5405808731448,None,1125.5405808731448,None,1125.5405808731448,None,1,2022_Apr_10_1139,Semantic-hierachy,2021.1.2,
162,Trial # 163,layer6-8_O12_to_T6.jpg,layer6-8/layer6-8_O12_to_T6.jpg,OT,layer6-8,,,,,0.0,12.0,12.0,12.0,,,,,1127.9422365021892,None,4.0,2.1135355948936194,1127.9422365021892,None,1127.9422365021892,None,1127.9422365021892,None,1,2022_Apr_10_1139,Semantic-hierachy,2021.1.2,
163,Trial # 164,layer0-5_T11_to_T7.jpg,layer0-5/layer0-5_T11_to_T7.jpg,TT,layer0-5,,,,,0.0,13.0,13.0,13.0,,,,,1130.5265362390785,None,1.0,5.48304785694927,1130.5265362390785,None,1130.5265362390785,None,1130.5265362390785,None,1,2022_Apr_10_1139,Semantic-hierachy,2021.1.2,
164,Trial # 165,layer9-17_O10_to_T5.jpg,layer9-17/layer9-17_O10_to_T5.jpg,OT,layer9-17,,,,,0.0,14.0,14.0,14.0,,,,,1136.4774681329727,None,3.0,8.928638685960323,1136.4774681329727,None,1136.4774681329727,None,1136.4774681329727,None,1,2022_Apr_10_1139,Semantic-hierachy,2021.1.2,
165,Trial # 166,layer9-17_T1_to_T6.jpg,layer9-17/layer9-17_T1_to_T6.jpg,TT,layer9-17,,,,,0.0,15.0,15.0,15.0,,,,,1145.9647460361011,None,2.0,1.6895183539018035,1145.9647460361011,None,1145.9647460361011,None,1145.9647460361011,None,1,2022_Apr_10_1139,Semantic-hierachy,2021.1.2,
166,Trial # 167,layer0-5_T1_to_T3.jpg,layer0-5/layer0-5_T1_to_T3.jpg,TT,layer0-5,,,,,0.0,16.0,16.0,16.0,,,,,1148.1306625970174,None,1.0,3.0576188729610294,1148.1306625970174,None,1148.1306625970174,None,1148.1306625970174,None,1,2022_Apr_10_1139,Semantic-hierachy,2021.1.2,
167,Trial # 168,layer0-5_O2_to_O9.jpg,layer0-5/layer0-5_O2_to_O9.jpg,OO,layer0-5,,,,,0.0,17.0,17.0,17.0,,,,,1151.7654345550109,None,1.0,1.5708740050904453,1151.7654345550109,None,1151.7654345550109,None,1151.7654345550109,None,1,2022_Apr_10_1139,Semantic-hierachy,2021.1.2,
168,Trial # 169,layer9-17_O3_to_T4.jpg,layer9-17/layer9-17_O3_to_T4.jpg,OT,layer9-17,,,,,0.0,18.0,18.0,18.0,,,,,1153.833281448111,None,2.0,1.8289407808333635,1153.833281448111,None,1153.833281448111,None,1153.833281448111,None,1,2022_Apr_10_1139,Semantic-hierachy,2021.1.2,
169,Trial # 170,layer6-8_O11_to_O9.jpg,layer6-8/layer6-8_O11_to_O9.jpg,OO,layer6-8,,,,,0.0,19.0,19.0,19.0,,,,,1156.2671896109823,None,2.0,5.493294131942093,1156.2671896109823,None,1156.2671896109823,None,1156.2671896109823,None,1,2022_Apr_10_1139,Semantic-hierachy,2021.1.2,
170,Trial # 171,layer9-17_O1_to_O7.jpg,layer9-17/layer9-17_O1_to_O7.jpg,OO,layer9-17,,,,,0.0,20.0,20.0,20.0,,,,,1166.2211579361465,None,2.0,5.509613845963031,1166.2211579361465,None,1166.2211579361465,None,1166.2211579361465,None,1,2022_Apr_10_1139,Semantic-hierachy,2021.1.2,
171,Trial # 172,layer0-5_T12_to_T4.jpg,layer0-5/layer0-5_T12_to_T4.jpg,TT,layer0-5,,,,,0.0,21.0,21.0,21.0,,,,,1172.2715021190234,None,1.0,1.5335083990357816,1172.2715021190234,None,1172.2715021190234,None,1172.2715021190234,None,1,2022_Apr_10_1139,Semantic-hierachy,2021.1.2,
172,Trial # 173,layer0-5_O4_to_T4.jpg,layer0-5/layer0-5_O4_to_T4.jpg,OT,layer0-5,,,,,0.0,22.0,22.0,22.0,,,,,1174.2560163820162,None,1.0,1.746777811087668,1174.2560163820162,None,1174.2560163820162,None,1174.2560163820162,None,1,2022_Apr_10_1139,Semantic-hierachy,2021.1.2,
173,Trial # 174,layer6-8_T12_to_T5.jpg,layer6-8/layer6-8_T12_to_T5.jpg,TT,layer6-8,,,,,0.0,23.0,23.0,23.0,,,,,1176.4730594221037,None,3.0,18.97000466194004,1176.4730594221037,None,1176.4730594221037,None,1176.4730594221037,None,1,2022_Apr_10_1139,Semantic-hierachy,2021.1.2,
174,Trial # 175,layer6-8_O11_to_T1.jpg,layer6-8/layer6-8_O11_to_T1.jpg,OT,layer6-8,,,,,0.0,24.0,24.0,24.0,,,,,1196.0459665891249,None,4.0,4.850235113874078,1196.0459665891249,None,1196.0459665891249,None,1196.0459665891249,None,1,2022_Apr_10_1139,Semantic-hierachy,2021.1.2,
175,Trial # 176,layer0-5_O7_to_T8.jpg,layer0-5/layer0-5_O7_to_T8.jpg,OT,layer0-5,,,,,0.0,25.0,25.0,25.0,,,,,1201.480811737012,None,4.0,2.793860899982974,1201.480811737012,None,1201.480811737012,None,1201.480811737012,None,1,2022_Apr_10_1139,Semantic-hierachy,2021.1.2,
176,Trial # 177,layer0-5_O11_to_T5.jpg,layer0-5/layer0-5_O11_to_T5.jpg,OT,layer0-5,,,,,0.0,26.0,26.0,26.0,,,,,1205.5833776390646,None,1.0,1.946679888991639,1205.5833776390646,None,1205.5833776390646,None,1205.5833776390646,None,1,2022_Apr_10_1139,Semantic-hierachy,2021.1.2,
177,Trial # 178,layer9-17_O2_to_T2.jpg,layer9-17/layer9-17_O2_to_T2.jpg,OT,layer9-17,,,,,0.0,27.0,27.0,27.0,,,,,1208.0327583460603,None,4.0,4.933658766094595,1208.0327583460603,None,1208.0327583460603,None,1208.0327583460603,None,1,2022_Apr_10_1139,Semantic-hierachy,2021.1.2,
178,Trial # 179,layer0-5_O4_to_T9.jpg,layer0-5/layer0-5_O4_to_T9.jpg,OT,layer0-5,,,,,0.0,28.0,28.0,28.0,,,,,1213.634537304053,None,1.0,2.4775280861649662,1213.634537304053,None,1213.634537304053,None,1213.634537304053,None,1,2022_Apr_10_1139,Semantic-hierachy,2021.1.2,
179,Trial # 180,layer9-17_T6_to_T8.jpg,layer9-17/layer9-17_T6_to_T8.jpg,TT,layer9-17,,,,,0.0,29.0,29.0,29.0,,,,,1216.568664309103,None,2.0,1.7352818930521607,1216.568664309103,None,1216.568664309103,None,1216.568664309103,None,1,2022_Apr_10_1139,Semantic-hierachy,2021.1.2,
180,Trial # 181,layer9-17_O12_to_O5.jpg,layer9-17/layer9-17_O12_to_O5.jpg,OO,layer9-17,,,,,0.0,30.0,30.0,30.0,,,,,1218.7858522001188,None,2.0,1.4641066291369498,1218.7858522001188,None,1218.7858522001188,None,1218.7858522001188,None,1,2022_Apr_10_1139,Semantic-hierachy,2021.1.2,
181,Trial # 182,layer6-8_O1_to_O7.jpg,layer6-8/layer6-8_O1_to_O7.jpg,OO,layer6-8,,,,,0.0,31.0,31.0,31.0,,,,,1220.7046013930812,None,4.0,2.165480947121978,1220.7046013930812,None,1220.7046013930812,None,1220.7046013930812,None,1,2022_Apr_10_1139,Semantic-hierachy,2021.1.2,
182,Trial # 183,layer6-8_O3_to_T10.jpg,layer6-8/layer6-8_O3_to_T10.jpg,OT,layer6-8,,,,,0.0,32.0,32.0,32.0,,,,,1223.3876987101976,None,2.0,2.1138264602050185,1223.3876987101976,None,1223.3876987101976,None,1223.3876987101976,None,1,2022_Apr_10_1139,Semantic-hierachy,2021.1.2,
183,Trial # 184,layer0-5_O1_to_T11.jpg,layer0-5/layer0-5_O1_to_T11.jpg,OT,layer0-5,,,,,0.0,33.0,33.0,33.0,,,,,1225.9895781441592,None,1.0,2.430002123117447,1225.9895781441592,None,1225.9895781441592,None,1225.9895781441592,None,1,2022_Apr_10_1139,Semantic-hierachy,2021.1.2,
184,Trial # 185,layer6-8_O8_to_O9.jpg,layer6-8/layer6-8_O8_to_O9.jpg,OO,layer6-8,,,,,0.0,34.0,34.0,34.0,,,,,1228.9393034640234,None,2.0,3.163875763770193,1228.9393034640234,None,1228.9393034640234,None,1228.9393034640234,None,1,2022_Apr_10_1139,Semantic-hierachy,2021.1.2,
185,Trial # 186,layer9-17_O4_to_O9.jpg,layer9-17/layer9-17_O4_to_O9.jpg,OO,layer9-17,,,,,0.0,35.0,35.0,35.0,,,,,1232.5901705990543,None,4.0,2.4615077557973564,1232.5901705990543,None,1232.5901705990543,None,1232.5901705990543,None,1,2022_Apr_10_1139,Semantic-hierachy,2021.1.2,
186,Trial # 187,layer0-5_O12_to_O5.jpg,layer0-5/layer0-5_O12_to_O5.jpg,OO,layer0-5,,,,,0.0,36.0,36.0,36.0,,,,,1241.027741461061,None,1.0,1.8425682471133769,1241.027741461061,None,1241.027741461061,None,1241.027741461061,None,1,2022_Apr_10_1139,Semantic-hierachy,2021.1.2,
187,Trial # 188,layer6-8_T12_to_T4.jpg,layer6-8/layer6-8_T12_to_T4.jpg,TT,layer6-8,,,,,0.0,37.0,37.0,37.0,,,,,1243.3936692911666,None,2.0,5.451156619004905,1243.3936692911666,None,1243.3936692911666,None,1243.3936692911666,None,1,2022_Apr_10_1139,Semantic-hierachy,2021.1.2,
188,Trial # 189,layer0-5_T6_to_T8.jpg,layer0-5/layer0-5_T6_to_T8.jpg,TT,layer0-5,,,,,0.0,38.0,38.0,38.0,,,,,1249.463379826164,None,1.0,3.7645209920592606,1249.463379826164,None,1249.463379826164,None,1249.463379826164,None,1,2022_Apr_10_1139,Semantic-hierachy,2021.1.2,
189,Trial # 190,layer6-8_O11_to_T2.jpg,layer6-8/layer6-8_O11_to_T2.jpg,OT,layer6-8,,,,,0.0,39.0,39.0,39.0,,,,,1253.9802274340764,None,4.0,13.495976550970228,1253.9802274340764,None,1253.9802274340764,None,1253.9802274340764,None,1,2022_Apr_10_1139,Semantic-hierachy,2021.1.2,
190,Trial # 191,layer6-8_O1_to_O3.jpg,layer6-8/layer6-8_O1_to_O3.jpg,OO,layer6-8,,,,,0.0,40.0,40.0,40.0,,,,,1268.001356640132,None,4.0,2.4383300391491503,1268.001356640132,None,1268.001356640132,None,1268.001356640132,None,1,2022_Apr_10_1139,Semantic-hierachy,2021.1.2,
191,Trial # 192,layer0-5_O7_to_T1.jpg,layer0-5/layer0-5_O7_to_T1.jpg,OT,layer0-5,,,,,0.0,41.0,41.0,41.0,,,,,1270.9857708711645,None,1.0,2.2789017418399453,1270.9857708711645,None,1270.9857708711645,None,1270.9857708711645,None,1,2022_Apr_10_1139,Semantic-hierachy,2021.1.2,
192,Trial # 193,layer6-8_O3_to_T7.jpg,layer6-8/layer6-8_O3_to_T7.jpg,OT,layer6-8,,,,,0.0,42.0,42.0,42.0,,,,,1273.7866282181349,None,3.0,2.2964366748929024,1273.7866282181349,None,1273.7866282181349,None,1273.7866282181349,None,1,2022_Apr_10_1139,Semantic-hierachy,2021.1.2,
193,Trial # 194,layer9-17_T10_to_T6.jpg,layer9-17/layer9-17_T10_to_T6.jpg,TT,layer9-17,,,,,0.0,43.0,43.0,43.0,,,,,1279.3229672121815,None,2.0,1.7011198129039258,1279.3229672121815,None,1279.3229672121815,None,1279.3229672121815,None,1,2022_Apr_10_1139,Semantic-hierachy,2021.1.2,
194,Trial # 195,layer6-8_T2_to_T9.jpg,layer6-8/layer6-8_T2_to_T9.jpg,TT,layer6-8,,,,,0.0,44.0,44.0,44.0,,,,,1281.5386921439786,None,4.0,3.455479431897402,1281.5386921439786,None,1281.5386921439786,None,1281.5386921439786,None,1,2022_Apr_10_1139,Semantic-hierachy,2021.1.2,
195,Trial # 196,layer0-5_O3_to_T3.jpg,layer0-5/layer0-5_O3_to_T3.jpg,OT,layer0-5,,,,,0.0,45.0,45.0,45.0,,,,,1285.6414596650284,None,1.0,3.913733989931643,1285.6414596650284,None,1285.6414596650284,None,1285.6414596650284,None,1,2022_Apr_10_1139,Semantic-hierachy,2021.1.2,
196,Trial # 197,layer9-17_O1_to_O2.jpg,layer9-17/layer9-17_O1_to_O2.jpg,OO,layer9-17,,,,,0.0,46.0,46.0,46.0,,,,,1290.3929223751184,None,4.0,6.698096198961139,1290.3929223751184,None,1290.3929223751184,None,1290.3929223751184,None,1,2022_Apr_10_1139,Semantic-hierachy,2021.1.2,
197,Trial # 198,layer9-17_T2_to_T9.jpg,layer9-17/layer9-17_T2_to_T9.jpg,TT,layer9-17,,,,,0.0,47.0,47.0,47.0,,,,,1298.760896309046,None,2.0,2.4149138641078025,1298.760896309046,None,1298.760896309046,None,1298.760896309046,None,1,2022_Apr_10_1139,Semantic-hierachy,2021.1.2,
198,Trial # 199,layer9-17_O6_to_T10.jpg,layer9-17/layer9-17_O6_to_T10.jpg,OT,layer9-17,,,,,0.0,48.0,48.0,48.0,,,,,1301.7795558890791,None,2.0,2.14593298197724,1301.7795558890791,None,1301.7795558890791,None,1301.7795558890791,None,1,2022_Apr_10_1139,Semantic-hierachy,2021.1.2,
199,Trial # 200,layer0-5_T12_to_T5.jpg,layer0-5/layer0-5_T12_to_T5.jpg,TT,layer0-5,,,,,0.0,49.0,49.0,49.0,,,,,1304.4798635460902,None,1.0,1.835441617993638,1304.4798635460902,None,1304.4798635460902,None,1304.4798635460902,None,1,2022_Apr_10_1139,Semantic-hierachy,2021.1.2,
200,Trial # 201,layer0-5_O10_to_T10.jpg,layer0-5/layer0-5_O10_to_T10.jpg,OT,layer0-5,,,,,0.0,50.0,50.0,50.0,,,,,1306.7801109880677,None,4.0,5.629828004864976,1306.7801109880677,None,1306.7801109880677,None,1306.7801109880677,None,1,2022_Apr_10_1139,Semantic-hierachy,2021.1.2,
201,Trial # 202,layer9-17_T11_to_T12.jpg,layer9-17/layer9-17_T11_to_T12.jpg,TT,layer9-17,,,,,0.0,51.0,51.0,51.0,,,,,1313.2653565600049,None,2.0,1.5197081780061126,1313.2653565600049,None,1313.2653565600049,None,1313.2653565600049,None,1,2022_Apr_10_1139,Semantic-hierachy,2021.1.2,
202,Trial # 203,layer6-8_T3_to_T5.jpg,layer6-8/layer6-8_T3_to_T5.jpg,TT,layer6-8,,,,,0.0,52.0,52.0,52.0,,,,,1315.2840121700428,None,3.0,3.92938624182716,1315.2840121700428,None,1315.2840121700428,None,1315.2840121700428,None,1,2022_Apr_10_1139,Semantic-hierachy,2021.1.2,
203,Trial # 204,layer0-5_O5_to_T10.jpg,layer0-5/layer0-5_O5_to_T10.jpg,OT,layer0-5,,,,,0.0,53.0,53.0,53.0,,,,,1320.084742423147,None,1.0,1.8122913050465288,1320.084742423147,None,1320.084742423147,None,1320.084742423147,None,1,2022_Apr_10_1139,Semantic-hierachy,2021.1.2,
204,Trial # 205,layer0-5_O10_to_O5.jpg,layer0-5/layer0-5_O10_to_O5.jpg,OO,layer0-5,,,,,0.0,54.0,54.0,54.0,,,,,1322.3680645441636,None,1.0,1.5152569650672376,1322.3680645441636,None,1322.3680645441636,None,1322.3680645441636,None,1,2022_Apr_10_1139,Semantic-hierachy,2021.1.2,
205,Trial # 206,layer0-5_O5_to_O7.jpg,layer0-5/layer0-5_O5_to_O7.jpg,OO,layer0-5,,,,,0.0,55.0,55.0,55.0,,,,,1324.3856374900788,None,1.0,1.1787158381193876,1324.3856374900788,None,1324.3856374900788,None,1324.3856374900788,None,1,2022_Apr_10_1139,Semantic-hierachy,2021.1.2,
206,Trial # 207,layer0-5_O3_to_T10.jpg,layer0-5/layer0-5_O3_to_T10.jpg,OT,layer0-5,,,,,0.0,56.0,56.0,56.0,,,,,1326.0206346721388,None,4.0,3.4283146280795336,1326.0206346721388,None,1326.0206346721388,None,1326.0206346721388,None,1,2022_Apr_10_1139,Semantic-hierachy,2021.1.2,
207,Trial # 208,layer0-5_O4_to_O5.jpg,layer0-5/layer0-5_O4_to_O5.jpg,OO,layer0-5,,,,,0.0,57.0,57.0,57.0,,,,,1330.0886625500862,None,1.0,4.9774463679641485,1330.0886625500862,None,1330.0886625500862,None,1330.0886625500862,None,1,2022_Apr_10_1139,Semantic-hierachy,2021.1.2,
208,Trial # 209,layer6-8_T12_to_T3.jpg,layer6-8/layer6-8_T12_to_T3.jpg,TT,layer6-8,,,,,0.0,58.0,58.0,58.0,,,,,1335.5900355970953,None,3.0,3.6825656618457288,1335.5900355970953,None,1335.5900355970953,None,1335.5900355970953,None,1,2022_Apr_10_1139,Semantic-hierachy,2021.1.2,
209,Trial # 210,layer6-8_O7_to_T9.jpg,layer6-8/layer6-8_O7_to_T9.jpg,OT,layer6-8,,,,,0.0,59.0,59.0,59.0,,,,,1339.9749387870545,None,3.0,1.599090632982552,1339.9749387870545,None,1339.9749387870545,None,1339.9749387870545,None,1,2022_Apr_10_1139,Semantic-hierachy,2021.1.2,
210,Trial # 211,layer6-8_O1_to_O11.jpg,layer6-8/layer6-8_O1_to_O11.jpg,OO,layer6-8,,,,,0.0,60.0,60.0,60.0,,,,,1342.2911278600805,None,3.0,6.001496398122981,1342.2911278600805,None,1342.2911278600805,None,1342.2911278600805,None,1,2022_Apr_10_1139,Semantic-hierachy,2021.1.2,
211,Trial # 212,layer6-8_T2_to_T6.jpg,layer6-8/layer6-8_T2_to_T6.jpg,TT,layer6-8,,,,,0.0,61.0,61.0,61.0,,,,,1348.9097652910275,None,3.0,1.8278457708656788,1348.9097652910275,None,1348.9097652910275,None,1348.9097652910275,None,1,2022_Apr_10_1139,Semantic-hierachy,2021.1.2,
212,Trial # 213,layer6-8_O10_to_O6.jpg,layer6-8/layer6-8_O10_to_O6.jpg,OO,layer6-8,,,,,0.0,62.0,62.0,62.0,,,,,1351.6439501941204,None,3.0,3.799175814026967,1351.6439501941204,None,1351.6439501941204,None,1351.6439501941204,None,1,2022_Apr_10_1139,Semantic-hierachy,2021.1.2,
213,Trial # 214,layer9-17_T5_to_T8.jpg,layer9-17/layer9-17_T5_to_T8.jpg,TT,layer9-17,,,,,0.0,63.0,63.0,63.0,,,,,1356.345829528058,None,2.0,1.858521153917536,1356.345829528058,None,1356.345829528058,None,1356.345829528058,None,1,2022_Apr_10_1139,Semantic-hierachy,2021.1.2,
214,Trial # 215,layer9-17_O3_to_T10.jpg,layer9-17/layer9-17_O3_to_T10.jpg,OT,layer9-17,,,,,0.0,64.0,64.0,64.0,,,,,1358.7461921651848,None,2.0,1.3618717060890049,1358.7461921651848,None,1358.7461921651848,None,1358.7461921651848,None,1,2022_Apr_10_1139,Semantic-hierachy,2021.1.2,
215,Trial # 216,layer6-8_O12_to_O3.jpg,layer6-8/layer6-8_O12_to_O3.jpg,OO,layer6-8,,,,,0.0,65.0,65.0,65.0,,,,,1360.7138723991811,None,3.0,4.108838884159923,1360.7138723991811,None,1360.7138723991811,None,1360.7138723991811,None,1,2022_Apr_10_1139,Semantic-hierachy,2021.1.2,
216,Trial # 217,layer0-5_T10_to_T2.jpg,layer0-5/layer0-5_T10_to_T2.jpg,TT,layer0-5,,,,,0.0,66.0,66.0,66.0,,,,,1366.96538117202,None,1.0,2.567584279924631,1366.96538117202,None,1366.96538117202,None,1366.96538117202,None,1,2022_Apr_10_1139,Semantic-hierachy,2021.1.2,
217,Trial # 218,layer9-17_O10_to_O6.jpg,layer9-17/layer9-17_O10_to_O6.jpg,OO,layer9-17,,,,,0.0,67.0,67.0,67.0,,,,,1370.3168317561503,None,3.0,22.842115859035403,1370.3168317561503,None,1370.3168317561503,None,1370.3168317561503,None,1,2022_Apr_10_1139,Semantic-hierachy,2021.1.2,
218,Trial # 219,layer6-8_O6_to_O9.jpg,layer6-8/layer6-8_O6_to_O9.jpg,OO,layer6-8,,,,,0.0,68.0,68.0,68.0,,,,,1394.0403776161838,None,3.0,2.4423234430141747,1394.0403776161838,None,1394.0403776161838,None,1394.0403776161838,None,1,2022_Apr_10_1139,Semantic-hierachy,2021.1.2,
219,Trial # 220,layer0-5_O7_to_T2.jpg,layer0-5/layer0-5_O7_to_T2.jpg,OT,layer0-5,,,,,0.0,69.0,69.0,69.0,,,,,1398.5252560710069,None,1.0,2.340162424836308,1398.5252560710069,None,1398.5252560710069,None,1398.5252560710069,None,1,2022_Apr_10_1139,Semantic-hierachy,2021.1.2,
220,Trial # 221,layer9-17_T12_to_T2.jpg,layer9-17/layer9-17_T12_to_T2.jpg,TT,layer9-17,,,,,0.0,70.0,70.0,70.0,,,,,1401.376192440046,None,2.0,5.457679593935609,1401.376192440046,None,1401.376192440046,None,1401.376192440046,None,1,2022_Apr_10_1139,Semantic-hierachy,2021.1.2,
221,Trial # 222,layer9-17_O8_to_T11.jpg,layer9-17/layer9-17_O8_to_T11.jpg,OT,layer9-17,,,,,0.0,71.0,71.0,71.0,,,,,1407.461030843202,None,4.0,4.027004401898012,1407.461030843202,None,1407.461030843202,None,1407.461030843202,None,1,2022_Apr_10_1139,Semantic-hierachy,2021.1.2,
222,Trial # 223,layer6-8_O3_to_T9.jpg,layer6-8/layer6-8_O3_to_T9.jpg,OT,layer6-8,,,,,0.0,72.0,72.0,72.0,,,,,1412.379357905127,None,2.0,1.928988076047972,1412.379357905127,None,1412.379357905127,None,1412.379357905127,None,1,2022_Apr_10_1139,Semantic-hierachy,2021.1.2,
223,Trial # 224,layer0-5_O6_to_O9.jpg,layer0-5/layer0-5_O6_to_O9.jpg,OO,layer0-5,,,,,0.0,73.0,73.0,73.0,,,,,1414.881321298191,None,1.0,1.839680203935132,1414.881321298191,None,1414.881321298191,None,1414.881321298191,None,1,2022_Apr_10_1139,Semantic-hierachy,2021.1.2,
224,Trial # 225,layer0-5_O12_to_T1.jpg,layer0-5/layer0-5_O12_to_T1.jpg,OT,layer0-5,,,,,0.0,74.0,74.0,74.0,,,,,1417.1974291030783,None,1.0,1.3846634740475563,1417.1974291030783,None,1417.1974291030783,None,1417.1974291030783,None,1,2022_Apr_10_1139,Semantic-hierachy,2021.1.2,
225,Trial # 226,layer9-17_O2_to_T8.jpg,layer9-17/layer9-17_O2_to_T8.jpg,OT,layer9-17,,,,,0.0,75.0,75.0,75.0,,,,,1419.0981495471206,None,2.0,1.9925279740709807,1419.0981495471206,None,1419.0981495471206,None,1419.0981495471206,None,1,2022_Apr_10_1139,Semantic-hierachy,2021.1.2,
226,Trial # 227,layer0-5_T4_to_T8.jpg,layer0-5/layer0-5_T4_to_T8.jpg,TT,layer0-5,,,,,0.0,76.0,76.0,76.0,,,,,1421.5655630391557,None,1.0,1.893021882046014,1421.5655630391557,None,1421.5655630391557,None,1421.5655630391557,None,1,2022_Apr_10_1139,Semantic-hierachy,2021.1.2,
227,Trial # 228,layer9-17_O2_to_T1.jpg,layer9-17/layer9-17_O2_to_T1.jpg,OT,layer9-17,,,,,0.0,77.0,77.0,77.0,,,,,1423.8999600210227,None,2.0,3.18208608799614,1423.8999600210227,None,1423.8999600210227,None,1423.8999600210227,None,1,2022_Apr_10_1139,Semantic-hierachy,2021.1.2,
228,Trial # 229,layer0-5_O11_to_O7.jpg,layer0-5/layer0-5_O11_to_O7.jpg,OO,layer0-5,,,,,0.0,78.0,78.0,78.0,,,,,1428.0674923821352,None,1.0,1.690920214867219,1428.0674923821352,None,1428.0674923821352,None,1428.0674923821352,None,1,2022_Apr_10_1139,Semantic-hierachy,2021.1.2,
229,Trial # 230,layer6-8_T2_to_T8.jpg,layer6-8/layer6-8_T2_to_T8.jpg,TT,layer6-8,,,,,0.0,79.0,79.0,79.0,,,,,1430.2362345061265,None,3.0,2.498865553876385,1430.2362345061265,None,1430.2362345061265,None,1430.2362345061265,None,1,2022_Apr_10_1139,Semantic-hierachy,2021.1.2,
230,Trial # 231,layer9-17_T4_to_T8.jpg,layer9-17/layer9-17_T4_to_T8.jpg,TT,layer9-17,,,,,0.0,80.0,80.0,80.0,,,,,1433.3193058259783,None,2.0,1.97746962797828,1433.3193058259783,None,1433.3193058259783,None,1433.3193058259783,None,1,2022_Apr_10_1139,Semantic-hierachy,2021.1.2,
231,Trial # 232,layer9-17_T11_to_T3.jpg,layer9-17/layer9-17_T11_to_T3.jpg,TT,layer9-17,,,,,0.0,81.0,81.0,81.0,,,,,1435.770276620984,None,2.0,1.9983607411850244,1435.770276620984,None,1435.770276620984,None,1435.770276620984,None,1,2022_Apr_10_1139,Semantic-hierachy,2021.1.2,
232,Trial # 233,layer0-5_O3_to_T9.jpg,layer0-5/layer0-5_O3_to_T9.jpg,OT,layer0-5,,,,,0.0,82.0,82.0,82.0,,,,,1438.287274769973,None,1.0,3.3266391849610955,1438.287274769973,None,1438.287274769973,None,1438.287274769973,None,1,2022_Apr_10_1139,Semantic-hierachy,2021.1.2,
233,Trial # 234,layer9-17_T7_to_T8.jpg,layer9-17/layer9-17_T7_to_T8.jpg,TT,layer9-17,,,,,0.0,83.0,83.0,83.0,,,,,1442.4553099160548,None,3.0,3.099284153897316,1442.4553099160548,None,1442.4553099160548,None,1442.4553099160548,None,1,2022_Apr_10_1139,Semantic-hierachy,2021.1.2,
234,Trial # 235,layer9-17_O3_to_O4.jpg,layer9-17/layer9-17_O3_to_O4.jpg,OO,layer9-17,,,,,0.0,84.0,84.0,84.0,,,,,1446.891381672118,None,2.0,1.4610201891046015,1446.891381672118,None,1446.891381672118,None,1446.891381672118,None,1,2022_Apr_10_1139,Semantic-hierachy,2021.1.2,
235,Trial # 236,layer6-8_O8_to_T6.jpg,layer6-8/layer6-8_O8_to_T6.jpg,OT,layer6-8,,,,,0.0,85.0,85.0,85.0,,,,,1448.8570578000508,None,3.0,2.0264430281240493,1448.8570578000508,None,1448.8570578000508,None,1448.8570578000508,None,1,2022_Apr_10_1139,Semantic-hierachy,2021.1.2,
236,Trial # 237,layer9-17_T6_to_T7.jpg,layer9-17/layer9-17_T6_to_T7.jpg,TT,layer9-17,,,,,0.0,86.0,86.0,86.0,,,,,1451.4414553761017,None,2.0,1.7214121830184013,1451.4414553761017,None,1451.4414553761017,None,1451.4414553761017,None,1,2022_Apr_10_1139,Semantic-hierachy,2021.1.2,
237,Trial # 238,layer0-5_T2_to_T9.jpg,layer0-5/layer0-5_T2_to_T9.jpg,TT,layer0-5,,,,,0.0,87.0,87.0,87.0,,,,,1453.7092808131129,None,1.0,2.2657678651157767,1453.7092808131129,None,1453.7092808131129,None,1453.7092808131129,None,1,2022_Apr_10_1139,Semantic-hierachy,2021.1.2,
238,Trial # 239,layer0-5_O2_to_O5.jpg,layer0-5/layer0-5_O2_to_O5.jpg,OO,layer0-5,,,,,0.0,88.0,88.0,88.0,,,,,1456.442876678193,None,1.0,4.030781744979322,1456.442876678193,None,1456.442876678193,None,1456.442876678193,None,1,2022_Apr_10_1139,Semantic-hierachy,2021.1.2,
239,Trial # 240,layer6-8_O1_to_O5.jpg,layer6-8/layer6-8_O1_to_O5.jpg,OO,layer6-8,,,,,0.0,89.0,89.0,89.0,,,,,1461.1277765140403,None,4.0,4.156666481867433,1461.1277765140403,None,1461.1277765140403,None,1461.1277765140403,None,1,2022_Apr_10_1139,Semantic-hierachy,2021.1.2,
240,Trial # 241,layer9-17_O3_to_O7.jpg,layer9-17/layer9-17_O3_to_O7.jpg,OO,layer9-17,,,,,0.0,90.0,90.0,90.0,,,,,1465.895919996081,None,2.0,1.7721927049569786,1465.895919996081,None,1465.895919996081,None,1465.895919996081,None,1,2022_Apr_10_1139,Semantic-hierachy,2021.1.2,
241,Trial # 242,layer6-8_O11_to_O8.jpg,layer6-8/layer6-8_O11_to_O8.jpg,OO,layer6-8,,,,,0.0,91.0,91.0,91.0,,,,,1468.1967479470186,None,4.0,5.289586168015376,1468.1967479470186,None,1468.1967479470186,None,1468.1967479470186,None,1,2022_Apr_10_1139,Semantic-hierachy,2021.1.2,
242,Trial # 243,layer9-17_T1_to_T12.jpg,layer9-17/layer9-17_T1_to_T12.jpg,TT,layer9-17,,,,,0.0,92.0,92.0,92.0,,,,,1474.6657171270344,None,2.0,1.8479625470936296,1474.6657171270344,None,1474.6657171270344,None,1474.6657171270344,None,1,2022_Apr_10_1139,Semantic-hierachy,2021.1.2,
243,Trial # 244,layer9-17_O6_to_O8.jpg,layer9-17/layer9-17_O6_to_O8.jpg,OO,layer9-17,,,,,0.0,93.0,93.0,93.0,,,,,1477.0159677050542,None,4.0,5.890309471869841,1477.0159677050542,None,1477.0159677050542,None,1477.0159677050542,None,1,2022_Apr_10_1139,Semantic-hierachy,2021.1.2,
244,Trial # 245,layer6-8_O4_to_T11.jpg,layer6-8/layer6-8_O4_to_T11.jpg,OT,layer6-8,,,,,0.0,94.0,94.0,94.0,,,,,1487.6528461831622,None,3.0,3.0074995800387114,1487.6528461831622,None,1487.6528461831622,None,1487.6528461831622,None,1,2022_Apr_10_1139,Semantic-hierachy,2021.1.2,
245,Trial # 246,layer9-17_T10_to_T3.jpg,layer9-17/layer9-17_T10_to_T3.jpg,TT,layer9-17,,,,,0.0,95.0,95.0,95.0,,,,,1491.2040216200985,None,2.0,2.0427119131200016,1491.2040216200985,None,1491.2040216200985,None,1491.2040216200985,None,1,2022_Apr_10_1139,Semantic-hierachy,2021.1.2,
246,Trial # 247,layer0-5_O10_to_O8.jpg,layer0-5/layer0-5_O10_to_O8.jpg,OO,layer0-5,,,,,0.0,96.0,96.0,96.0,,,,,1493.737875631079,None,1.0,1.7469901870936155,1493.737875631079,None,1493.737875631079,None,1493.737875631079,None,1,2022_Apr_10_1139,Semantic-hierachy,2021.1.2,
247,Trial # 248,layer6-8_O3_to_T12.jpg,layer6-8/layer6-8_O3_to_T12.jpg,OT,layer6-8,,,,,0.0,97.0,97.0,97.0,,,,,1496.0231462609954,None,2.0,1.929621276212856,1496.0231462609954,None,1496.0231462609954,None,1496.0231462609954,None,1,2022_Apr_10_1139,Semantic-hierachy,2021.1.2,
248,Trial # 249,layer0-5_O12_to_T9.jpg,layer0-5/layer0-5_O12_to_T9.jpg,OT,layer0-5,,,,,0.0,98.0,98.0,98.0,,,,,1498.5395298381336,None,1.0,7.816124856937677,1498.5395298381336,None,1498.5395298381336,None,1498.5395298381336,None,1,2022_Apr_10_1139,Semantic-hierachy,2021.1.2,
249,Trial # 250,layer9-17_T1_to_T9.jpg,layer9-17/layer9-17_T1_to_T9.jpg,TT,layer9-17,,,,,0.0,99.0,99.0,99.0,,,,,1506.85865742201,None,4.0,7.698787393979728,1506.85865742201,None,1506.85865742201,None,1506.85865742201,None,1,2022_Apr_10_1139,Semantic-hierachy,2021.1.2,
250,Trial # 251,layer9-17_T11_to_T8.jpg,layer9-17/layer9-17_T11_to_T8.jpg,TT,layer9-17,,,,,0.0,100.0,100.0,100.0,,,,,1515.0450146030637,None,2.0,1.7445252030156553,1515.0450146030637,None,1515.0450146030637,None,1515.0450146030637,None,1,2022_Apr_10_1139,Semantic-hierachy,2021.1.2,
251,Trial # 252,layer9-17_T11_to_T5.jpg,layer9-17/layer9-17_T11_to_T5.jpg,TT,layer9-17,,,,,0.0,101.0,101.0,101.0,,,,,1517.3456361191347,None,3.0,4.659934442956001,1517.3456361191347,None,1517.3456361191347,None,1517.3456361191347,None,1,2022_Apr_10_1139,Semantic-hierachy,2021.1.2,
252,Trial # 253,layer6-8_T10_to_T12.jpg,layer6-8/layer6-8_T10_to_T12.jpg,TT,layer6-8,,,,,0.0,102.0,102.0,102.0,,,,,1522.7136372281238,None,3.0,5.394693187903613,1522.7136372281238,None,1522.7136372281238,None,1522.7136372281238,None,1,2022_Apr_10_1139,Semantic-hierachy,2021.1.2,
253,Trial # 254,layer9-17_O5_to_T1.jpg,layer9-17/layer9-17_O5_to_T1.jpg,OT,layer9-17,,,,,0.0,103.0,103.0,103.0,,,,,1529.5160231241025,None,2.0,3.2942662029527128,1529.5160231241025,None,1529.5160231241025,None,1529.5160231241025,None,1,2022_Apr_10_1139,Semantic-hierachy,2021.1.2,
254,Trial # 255,layer6-8_T2_to_T3.jpg,layer6-8/layer6-8_T2_to_T3.jpg,TT,layer6-8,,,,,0.0,104.0,104.0,104.0,,,,,1533.2667599911802,None,3.0,2.749251540051773,1533.2667599911802,None,1533.2667599911802,None,1533.2667599911802,None,1,2022_Apr_10_1139,Semantic-hierachy,2021.1.2,
255,Trial # 256,layer6-8_O2_to_T6.jpg,layer6-8/layer6-8_O2_to_T6.jpg,OT,layer6-8,,,,,0.0,105.0,105.0,105.0,,,,,1537.2511973890942,None,3.0,3.0967240929603577,1537.2511973890942,None,1537.2511973890942,None,1537.2511973890942,None,1,2022_Apr_10_1139,Semantic-hierachy,2021.1.2,
256,Trial # 257,layer6-8_T11_to_T9.jpg,layer6-8/layer6-8_T11_to_T9.jpg,TT,layer6-8,,,,,0.0,106.0,106.0,106.0,,,,,1542.8534770491533,None,4.0,4.722572695929557,1542.8534770491533,None,1542.8534770491533,None,1542.8534770491533,None,1,2022_Apr_10_1139,Semantic-hierachy,2021.1.2,
257,Trial # 258,layer6-8_O5_to_T9.jpg,layer6-8/layer6-8_O5_to_T9.jpg,OT,layer6-8,,,,,0.0,107.0,107.0,107.0,,,,,1548.1380411200223,None,3.0,5.626732542179525,1548.1380411200223,None,1548.1380411200223,None,1548.1380411200223,None,1,2022_Apr_10_1139,Semantic-hierachy,2021.1.2,
258,Trial # 259,layer6-8_O9_to_T8.jpg,layer6-8/layer6-8_O9_to_T8.jpg,OT,layer6-8,,,,,0.0,108.0,108.0,108.0,,,,,1554.2746956271585,None,3.0,3.896283027948812,1554.2746956271585,None,1554.2746956271585,None,1554.2746956271585,None,1,2022_Apr_10_1139,Semantic-hierachy,2021.1.2,
259,Trial # 260,layer6-8_T1_to_T5.jpg,layer6-8/layer6-8_T1_to_T5.jpg,TT,layer6-8,,,,,0.0,109.0,109.0,109.0,,,,,1558.7077469700016,None,4.0,2.875551074976101,1558.7077469700016,None,1558.7077469700016,None,1558.7077469700016,None,1,2022_Apr_10_1139,Semantic-hierachy,2021.1.2,
260,Trial # 261,layer0-5_O11_to_T2.jpg,layer0-5/layer0-5_O11_to_T2.jpg,OT,layer0-5,,,,,0.0,110.0,110.0,110.0,,,,,1562.1090603661723,None,1.0,3.80054467683658,1562.1090603661723,None,1562.1090603661723,None,1562.1090603661723,None,1,2022_Apr_10_1139,Semantic-hierachy,2021.1.2,
261,Trial # 262,layer0-5_O7_to_T4.jpg,layer0-5/layer0-5_O7_to_T4.jpg,OT,layer0-5,,,,,0.0,111.0,111.0,111.0,,,,,1566.9437774980906,None,1.0,1.3279625829309225,1566.9437774980906,None,1566.9437774980906,None,1566.9437774980906,None,1,2022_Apr_10_1139,Semantic-hierachy,2021.1.2,
262,Trial # 263,layer6-8_T12_to_T8.jpg,layer6-8/layer6-8_T12_to_T8.jpg,TT,layer6-8,,,,,0.0,112.0,112.0,112.0,,,,,1568.7440512750763,None,2.0,1.7772968839854002,1568.7440512750763,None,1568.7440512750763,None,1568.7440512750763,None,1,2022_Apr_10_1139,Semantic-hierachy,2021.1.2,
263,Trial # 264,layer6-8_O4_to_O9.jpg,layer6-8/layer6-8_O4_to_O9.jpg,OO,layer6-8,,,,,0.0,113.0,113.0,113.0,,,,,1570.9797614940908,None,4.0,3.901376344030723,1570.9797614940908,None,1570.9797614940908,None,1570.9797614940908,None,1,2022_Apr_10_1139,Semantic-hierachy,2021.1.2,
264,Trial # 265,layer0-5_T1_to_T5.jpg,layer0-5/layer0-5_T1_to_T5.jpg,TT,layer0-5,,,,,0.0,114.0,114.0,114.0,,,,,1575.4634238060098,None,1.0,1.8872766138520087,1575.4634238060098,None,1575.4634238060098,None,1575.4634238060098,None,1,2022_Apr_10_1139,Semantic-hierachy,2021.1.2,
265,Trial # 266,layer0-5_O12_to_O7.jpg,layer0-5/layer0-5_O12_to_O7.jpg,OO,layer0-5,,,,,0.0,115.0,115.0,115.0,,,,,1577.8139443581458,None,1.0,1.408000478055328,1577.8139443581458,None,1577.8139443581458,None,1577.8139443581458,None,1,2022_Apr_10_1139,Semantic-hierachy,2021.1.2,
266,Trial # 267,layer6-8_T8_to_T9.jpg,layer6-8/layer6-8_T8_to_T9.jpg,TT,layer6-8,,,,,0.0,116.0,116.0,116.0,,,,,1579.7325483281163,None,3.0,10.58445147308521,1579.7325483281163,None,1579.7325483281163,None,1579.7325483281163,None,1,2022_Apr_10_1139,Semantic-hierachy,2021.1.2,
267,Trial # 268,layer9-17_O11_to_T10.jpg,layer9-17/layer9-17_O11_to_T10.jpg,OT,layer9-17,,,,,0.0,117.0,117.0,117.0,,,,,1592.2184607991949,None,2.0,1.5731705860234797,1592.2184607991949,None,1592.2184607991949,None,1592.2184607991949,None,1,2022_Apr_10_1139,Semantic-hierachy,2021.1.2,
268,Trial # 269,layer0-5_O8_to_T9.jpg,layer0-5/layer0-5_O8_to_T9.jpg,OT,layer0-5,,,,,0.0,118.0,118.0,118.0,,,,,1594.219248016132,None,1.0,1.6459839390590787,1594.219248016132,None,1594.219248016132,None,1594.219248016132,None,1,2022_Apr_10_1139,Semantic-hierachy,2021.1.2,
269,Trial # 270,layer9-17_O10_to_O11.jpg,layer9-17/layer9-17_O10_to_O11.jpg,OO,layer9-17,,,,,0.0,119.0,119.0,119.0,,,,,1596.403099784162,None,3.0,4.528765282128006,1596.403099784162,None,1596.403099784162,None,1596.403099784162,None,1,2022_Apr_10_1139,Semantic-hierachy,2021.1.2,
270,Trial # 271,layer0-5_T1_to_T9.jpg,layer0-5/layer0-5_T1_to_T9.jpg,TT,layer0-5,,,,,0.0,120.0,120.0,120.0,,,,,1601.5889966120012,None,1.0,1.628128832904622,1601.5889966120012,None,1601.5889966120012,None,1601.5889966120012,None,1,2022_Apr_10_1139,Semantic-hierachy,2021.1.2,
271,Trial # 272,layer6-8_T11_to_T8.jpg,layer6-8/layer6-8_T11_to_T8.jpg,TT,layer6-8,,,,,0.0,121.0,121.0,121.0,,,,,1603.755353690125,None,3.0,2.4731424988713115,1603.755353690125,None,1603.755353690125,None,1603.755353690125,None,1,2022_Apr_10_1139,Semantic-hierachy,2021.1.2,
272,Trial # 273,layer9-17_O10_to_O12.jpg,layer9-17/layer9-17_O10_to_O12.jpg,OO,layer9-17,,,,,0.0,122.0,122.0,122.0,,,,,1606.6893340570386,None,2.0,2.728496675845236,1606.6893340570386,None,1606.6893340570386,None,1606.6893340570386,None,1,2022_Apr_10_1139,Semantic-hierachy,2021.1.2,
273,Trial # 274,layer0-5_T12_to_T6.jpg,layer0-5/layer0-5_T12_to_T6.jpg,TT,layer0-5,,,,,0.0,123.0,123.0,123.0,,,,,1609.92504821904,None,1.0,2.516781921032816,1609.92504821904,None,1609.92504821904,None,1609.92504821904,None,1,2022_Apr_10_1139,Semantic-hierachy,2021.1.2,
274,Trial # 275,layer9-17_O11_to_O5.jpg,layer9-17/layer9-17_O11_to_O5.jpg,OO,layer9-17,,,,,0.0,124.0,124.0,124.0,,,,,1612.9245812310835,None,2.0,2.8915167490486056,1612.9245812310835,None,1612.9245812310835,None,1612.9245812310835,None,1,2022_Apr_10_1139,Semantic-hierachy,2021.1.2,
275,Trial # 276,layer9-17_O1_to_O4.jpg,layer9-17/layer9-17_O1_to_O4.jpg,OO,layer9-17,,,,,0.0,125.0,125.0,125.0,,,,,1616.9429583391177,None,4.0,4.063961395993829,1616.9429583391177,None,1616.9429583391177,None,1616.9429583391177,None,1,2022_Apr_10_1139,Semantic-hierachy,2021.1.2,
276,Trial # 277,layer6-8_O11_to_O3.jpg,layer6-8/layer6-8_O11_to_O3.jpg,OO,layer6-8,,,,,0.0,126.0,126.0,126.0,,,,,1621.578170594992,None,2.0,3.725989004131407,1621.578170594992,None,1621.578170594992,None,1621.578170594992,None,1,2022_Apr_10_1139,Semantic-hierachy,2021.1.2,
277,Trial # 278,layer6-8_T10_to_T11.jpg,layer6-8/layer6-8_T10_to_T11.jpg,TT,layer6-8,,,,,0.0,127.0,127.0,127.0,,,,,1625.8133808611892,None,3.0,2.2407153989188373,1625.8133808611892,None,1625.8133808611892,None,1625.8133808611892,None,1,2022_Apr_10_1139,Semantic-hierachy,2021.1.2,
278,Trial # 279,layer0-5_O7_to_T3.jpg,layer0-5/layer0-5_O7_to_T3.jpg,OT,layer0-5,,,,,0.0,128.0,128.0,128.0,,,,,1628.5128955550026,None,1.0,2.251769875874743,1628.5128955550026,None,1628.5128955550026,None,1628.5128955550026,None,1,2022_Apr_10_1139,Semantic-hierachy,2021.1.2,
279,Trial # 280,layer9-17_T1_to_T10.jpg,layer9-17/layer9-17_T1_to_T10.jpg,TT,layer9-17,,,,,0.0,129.0,129.0,129.0,,,,,1631.5640512541868,None,2.0,3.1232871571555734,1631.5640512541868,None,1631.5640512541868,None,1631.5640512541868,None,1,2022_Apr_10_1139,Semantic-hierachy,2021.1.2,
280,Trial # 281,layer9-17_O6_to_T7.jpg,layer9-17/layer9-17_O6_to_T7.jpg,OT,layer9-17,,,,,0.0,130.0,130.0,130.0,,,,,1635.3325893271249,None,2.0,1.660337917972356,1635.3325893271249,None,1635.3325893271249,None,1635.3325893271249,None,1,2022_Apr_10_1139,Semantic-hierachy,2021.1.2,
281,Trial # 282,layer0-5_O10_to_O7.jpg,layer0-5/layer0-5_O10_to_O7.jpg,OO,layer0-5,,,,,0.0,131.0,131.0,131.0,,,,,1637.4824432570022,None,1.0,1.9152533588930964,1637.4824432570022,None,1637.4824432570022,None,1637.4824432570022,None,1,2022_Apr_10_1139,Semantic-hierachy,2021.1.2,
282,Trial # 283,layer0-5_O1_to_O11.jpg,layer0-5/layer0-5_O1_to_O11.jpg,OO,layer0-5,,,,,0.0,132.0,132.0,132.0,,,,,1640.000747050159,None,1.0,1.7590801171027124,1640.000747050159,None,1640.000747050159,None,1640.000747050159,None,1,2022_Apr_10_1139,Semantic-hierachy,2021.1.2,
283,Trial # 284,layer6-8_O7_to_O8.jpg,layer6-8/layer6-8_O7_to_O8.jpg,OO,layer6-8,,,,,0.0,133.0,133.0,133.0,,,,,1643.2680258201435,None,2.0,2.368263185955584,1643.2680258201435,None,1643.2680258201435,None,1643.2680258201435,None,1,2022_Apr_10_1139,Semantic-hierachy,2021.1.2,
284,Trial # 285,layer0-5_T7_to_T8.jpg,layer0-5/layer0-5_T7_to_T8.jpg,TT,layer0-5,,,,,0.0,134.0,134.0,134.0,,,,,1646.2184765131678,None,1.0,1.5566303678788245,1646.2184765131678,None,1646.2184765131678,None,1646.2184765131678,None,1,2022_Apr_10_1139,Semantic-hierachy,2021.1.2,
285,Trial # 286,layer9-17_T11_to_T6.jpg,layer9-17/layer9-17_T11_to_T6.jpg,TT,layer9-17,,,,,0.0,135.0,135.0,135.0,,,,,1648.2523416080512,None,4.0,8.232117219129577,1648.2523416080512,None,1648.2523416080512,None,1648.2523416080512,None,1,2022_Apr_10_1139,Semantic-hierachy,2021.1.2,
286,Trial # 287,layer0-5_T2_to_T7.jpg,layer0-5/layer0-5_T2_to_T7.jpg,TT,layer0-5,,,,,0.0,136.0,136.0,136.0,,,,,1657.0095565749798,None,1.0,6.367076899157837,1657.0095565749798,None,1657.0095565749798,None,1657.0095565749798,None,1,2022_Apr_10_1139,Semantic-hierachy,2021.1.2,
287,Trial # 288,layer9-17_O10_to_O2.jpg,layer9-17/layer9-17_O10_to_O2.jpg,OO,layer9-17,,,,,0.0,137.0,137.0,137.0,,,,,1664.0570914351847,None,2.0,1.9408915671519933,1664.0570914351847,None,1664.0570914351847,None,1664.0570914351847,None,1,2022_Apr_10_1139,Semantic-hierachy,2021.1.2,
288,Trial # 289,layer0-5_T10_to_T9.jpg,layer0-5/layer0-5_T10_to_T9.jpg,TT,layer0-5,,,,,0.0,138.0,138.0,138.0,,,,,1666.508514958201,None,4.0,7.978113217977807,1666.508514958201,None,1666.508514958201,None,1666.508514958201,None,1,2022_Apr_10_1139,Semantic-hierachy,2021.1.2,
289,Trial # 290,layer6-8_O11_to_O5.jpg,layer6-8/layer6-8_O11_to_O5.jpg,OO,layer6-8,,,,,0.0,139.0,139.0,139.0,,,,,1675.0108837850858,None,2.0,2.7435143319889903,1675.0108837850858,None,1675.0108837850858,None,1675.0108837850858,None,1,2022_Apr_10_1139,Semantic-hierachy,2021.1.2,
290,Trial # 291,layer6-8_O3_to_O7.jpg,layer6-8/layer6-8_O3_to_O7.jpg,OO,layer6-8,,,,,0.0,140.0,140.0,140.0,,,,,1678.2618629450444,None,2.0,2.514269958017394,1678.2618629450444,None,1678.2618629450444,None,1678.2618629450444,None,1,2022_Apr_10_1139,Semantic-hierachy,2021.1.2,
291,Trial # 292,layer9-17_O12_to_T11.jpg,layer9-17/layer9-17_O12_to_T11.jpg,OT,layer9-17,,,,,0.0,141.0,141.0,141.0,,,,,1681.2460701661184,None,2.0,1.6114328138064593,1681.2460701661184,None,1681.2460701661184,None,1681.2460701661184,None,1,2022_Apr_10_1139,Semantic-hierachy,2021.1.2,
292,Trial # 293,layer9-17_O2_to_O4.jpg,layer9-17/layer9-17_O2_to_O4.jpg,OO,layer9-17,,,,,0.0,142.0,142.0,142.0,,,,,1683.347122478066,None,4.0,4.54580259998329,1683.347122478066,None,1683.347122478066,None,1683.347122478066,None,1,2022_Apr_10_1139,Semantic-hierachy,2021.1.2,
293,Trial # 294,layer6-8_O1_to_T12.jpg,layer6-8/layer6-8_O1_to_T12.jpg,OT,layer6-8,,,,,0.0,143.0,143.0,143.0,,,,,1688.5648140441626,None,3.0,1.7810564010869712,1688.5648140441626,None,1688.5648140441626,None,1688.5648140441626,None,1,2022_Apr_10_1139,Semantic-hierachy,2021.1.2,
294,Trial # 295,layer9-17_O11_to_T5.jpg,layer9-17/layer9-17_O11_to_T5.jpg,OT,layer9-17,,,,,0.0,144.0,144.0,144.0,,,,,1690.8332926230505,None,2.0,7.704015495022759,1690.8332926230505,None,1690.8332926230505,None,1690.8332926230505,None,1,2022_Apr_10_1139,Semantic-hierachy,2021.1.2,
295,Trial # 296,layer0-5_O10_to_O9.jpg,layer0-5/layer0-5_O10_to_O9.jpg,OO,layer0-5,,,,,0.0,145.0,145.0,145.0,,,,,1699.084624035051,None,1.0,1.8102737220469864,1699.084624035051,None,1699.084624035051,None,1699.084624035051,None,1,2022_Apr_10_1139,Semantic-hierachy,2021.1.2,
296,Trial # 297,layer6-8_O12_to_T10.jpg,layer6-8/layer6-8_O12_to_T10.jpg,OT,layer6-8,,,,,0.0,146.0,146.0,146.0,,,,,1701.4032752381172,None,3.0,1.891558577073738,1701.4032752381172,None,1701.4032752381172,None,1701.4032752381172,None,1,2022_Apr_10_1139,Semantic-hierachy,2021.1.2,
297,Trial # 298,layer6-8_O3_to_T2.jpg,layer6-8/layer6-8_O3_to_T2.jpg,OT,layer6-8,,,,,0.0,147.0,147.0,147.0,,,,,1703.986226159148,None,2.0,1.7271258330438286,1703.986226159148,None,1703.986226159148,None,1703.986226159148,None,1,2022_Apr_10_1139,Semantic-hierachy,2021.1.2,
298,Trial # 299,layer9-17_O2_to_T5.jpg,layer9-17/layer9-17_O2_to_T5.jpg,OT,layer9-17,,,,,0.0,148.0,148.0,148.0,,,,,1706.520370543003,None,4.0,2.1724785540718585,1706.520370543003,None,1706.520370543003,None,1706.520370543003,None,1,2022_Apr_10_1139,Semantic-hierachy,2021.1.2,
299,Trial # 300,layer0-5_O3_to_T7.jpg,layer0-5/layer0-5_O3_to_T7.jpg,OT,layer0-5,,,,,0.0,149.0,149.0,149.0,,,,,1709.3225102541037,None,1.0,1.8619763569440693,1709.3225102541037,None,1709.3225102541037,None,1709.3225102541037,None,1,2022_Apr_10_1139,Semantic-hierachy,2021.1.2,
300,Trial # 301,layer9-17_O11_to_O6.jpg,layer9-17/layer9-17_O11_to_O6.jpg,OO,layer9-17,,,,,,,,,0.0,0.0,0.0,0.0,1714.5572925941087,None,4.0,7.622460092185065,1714.5572925941087,None,1714.5572925941087,None,1714.5572925941087,None,1,2022_Apr_10_1139,Semantic-hierachy,2021.1.2,
301,Trial # 302,layer0-5_O3_to_O7.jpg,layer0-5/layer0-5_O3_to_O7.jpg,OO,layer0-5,,,,,,,,,0.0,1.0,1.0,1.0,1722.8588992231523,None,1.0,1.7964427820406854,1722.8588992231523,None,1722.8588992231523,None,1722.8588992231523,None,1,2022_Apr_10_1139,Semantic-hierachy,2021.1.2,
302,Trial # 303,layer6-8_O11_to_T3.jpg,layer6-8/layer6-8_O11_to_T3.jpg,OT,layer6-8,,,,,,,,,0.0,2.0,2.0,2.0,1725.1439701311756,None,3.0,2.0425935280509293,1725.1439701311756,None,1725.1439701311756,None,1725.1439701311756,None,1,2022_Apr_10_1139,Semantic-hierachy,2021.1.2,
303,Trial # 304,layer6-8_O2_to_T7.jpg,layer6-8/layer6-8_O2_to_T7.jpg,OT,layer6-8,,,,,,,,,0.0,3.0,3.0,3.0,1727.6934139851946,None,3.0,1.2339010809082538,1727.6934139851946,None,1727.6934139851946,None,1727.6934139851946,None,1,2022_Apr_10_1139,Semantic-hierachy,2021.1.2,
304,Trial # 305,layer0-5_T1_to_T7.jpg,layer0-5/layer0-5_T1_to_T7.jpg,TT,layer0-5,,,,,,,,,0.0,4.0,4.0,4.0,1729.4451547630597,None,1.0,3.8059687518980354,1729.4451547630597,None,1729.4451547630597,None,1729.4451547630597,None,1,2022_Apr_10_1139,Semantic-hierachy,2021.1.2,
305,Trial # 306,layer6-8_O7_to_T11.jpg,layer6-8/layer6-8_O7_to_T11.jpg,OT,layer6-8,,,,,,,,,0.0,5.0,5.0,5.0,1733.7290484851692,None,3.0,1.928280174965039,1733.7290484851692,None,1733.7290484851692,None,1733.7290484851692,None,1,2022_Apr_10_1139,Semantic-hierachy,2021.1.2,
306,Trial # 307,layer9-17_O5_to_T5.jpg,layer9-17/layer9-17_O5_to_T5.jpg,OT,layer9-17,,,,,,,,,0.0,6.0,6.0,6.0,1736.1460124261212,None,2.0,2.98336495901458,1736.1460124261212,None,1736.1460124261212,None,1736.1460124261212,None,1,2022_Apr_10_1139,Semantic-hierachy,2021.1.2,
307,Trial # 308,layer9-17_T12_to_T5.jpg,layer9-17/layer9-17_T12_to_T5.jpg,TT,layer9-17,,,,,,,,,0.0,7.0,7.0,7.0,1739.597772181034,None,2.0,3.478635888081044,1739.597772181034,None,1739.597772181034,None,1739.597772181034,None,1,2022_Apr_10_1139,Semantic-hierachy,2021.1.2,
308,Trial # 309,layer6-8_O11_to_O2.jpg,layer6-8/layer6-8_O11_to_O2.jpg,OO,layer6-8,,,,,,,,,0.0,8.0,8.0,8.0,1743.548641972011,None,2.0,1.7315581429284066,1743.548641972011,None,1743.548641972011,None,1743.548641972011,None,1,2022_Apr_10_1139,Semantic-hierachy,2021.1.2,
309,Trial # 310,layer6-8_O10_to_O7.jpg,layer6-8/layer6-8_O10_to_O7.jpg,OO,layer6-8,,,,,,,,,0.0,9.0,9.0,9.0,1745.7167273489758,None,2.0,1.895578149007633,1745.7167273489758,None,1745.7167273489758,None,1745.7167273489758,None,1,2022_Apr_10_1139,Semantic-hierachy,2021.1.2,
310,Trial # 311,layer9-17_O10_to_T11.jpg,layer9-17/layer9-17_O10_to_T11.jpg,OT,layer9-17,,,,,,,,,0.0,10.0,10.0,10.0,1748.06639735098,None,4.0,4.711966976057738,1748.06639735098,None,1748.06639735098,None,1748.06639735098,None,1,2022_Apr_10_1139,Semantic-hierachy,2021.1.2,
311,Trial # 312,layer6-8_O11_to_O12.jpg,layer6-8/layer6-8_O11_to_O12.jpg,OO,layer6-8,,,,,,,,,0.0,11.0,11.0,11.0,1753.268158273073,None,4.0,5.910971156088635,1753.268158273073,None,1753.268158273073,None,1753.268158273073,None,1,2022_Apr_10_1139,Semantic-hierachy,2021.1.2,
312,Trial # 313,layer9-17_O9_to_T8.jpg,layer9-17/layer9-17_O9_to_T8.jpg,OT,layer9-17,,,,,,,,,0.0,12.0,12.0,12.0,1760.0550088260788,None,2.0,6.795470019103959,1760.0550088260788,None,1760.0550088260788,None,1760.0550088260788,None,1,2022_Apr_10_1139,Semantic-hierachy,2021.1.2,
313,Trial # 314,layer0-5_O3_to_T2.jpg,layer0-5/layer0-5_O3_to_T2.jpg,OT,layer0-5,,,,,,,,,0.0,13.0,13.0,13.0,1767.489596546162,None,1.0,1.6273412369191649,1767.489596546162,None,1767.489596546162,None,1767.489596546162,None,1,2022_Apr_10_1139,Semantic-hierachy,2021.1.2,
314,Trial # 315,layer9-17_T1_to_T11.jpg,layer9-17/layer9-17_T1_to_T11.jpg,TT,layer9-17,,,,,,,,,0.0,14.0,14.0,14.0,1769.5902016470209,None,2.0,1.87874760106206,1769.5902016470209,None,1769.5902016470209,None,1769.5902016470209,None,1,2022_Apr_10_1139,Semantic-hierachy,2021.1.2,
315,Trial # 316,layer6-8_T10_to_T7.jpg,layer6-8/layer6-8_T10_to_T7.jpg,TT,layer6-8,,,,,,,,,0.0,15.0,15.0,15.0,1771.9572985800914,None,4.0,12.060950813116506,1771.9572985800914,None,1771.9572985800914,None,1771.9572985800914,None,1,2022_Apr_10_1139,Semantic-hierachy,2021.1.2,
316,Trial # 317,layer0-5_T6_to_T7.jpg,layer0-5/layer0-5_T6_to_T7.jpg,TT,layer0-5,,,,,,,,,0.0,16.0,16.0,16.0,1784.9623504499905,None,1.0,2.076712463982404,1784.9623504499905,None,1784.9623504499905,None,1784.9623504499905,None,1,2022_Apr_10_1139,Semantic-hierachy,2021.1.2,
317,Trial # 318,layer9-17_O1_to_T3.jpg,layer9-17/layer9-17_O1_to_T3.jpg,OT,layer9-17,,,,,,,,,0.0,17.0,17.0,17.0,1787.5453060599975,None,2.0,1.6928531499579549,1787.5453060599975,None,1787.5453060599975,None,1787.5453060599975,None,1,2022_Apr_10_1139,Semantic-hierachy,2021.1.2,
318,Trial # 319,layer0-5_O2_to_T5.jpg,layer0-5/layer0-5_O2_to_T5.jpg,OT,layer0-5,,,,,,,,,0.0,18.0,18.0,18.0,1789.7128477131482,None,4.0,8.305517234839499,1789.7128477131482,None,1789.7128477131482,None,1789.7128477131482,None,1,2022_Apr_10_1139,Semantic-hierachy,2021.1.2,
319,Trial # 320,layer6-8_O7_to_T10.jpg,layer6-8/layer6-8_O7_to_T10.jpg,OT,layer6-8,,,,,,,,,0.0,19.0,19.0,19.0,1798.7156398780644,None,3.0,2.994912788970396,1798.7156398780644,None,1798.7156398780644,None,1798.7156398780644,None,1,2022_Apr_10_1139,Semantic-hierachy,2021.1.2,
320,Trial # 321,layer0-5_O5_to_O6.jpg,layer0-5/layer0-5_O5_to_O6.jpg,OO,layer0-5,,,,,,,,,0.0,20.0,20.0,20.0,1802.350090041058,None,1.0,1.8755819608923048,1802.350090041058,None,1802.350090041058,None,1802.350090041058,None,1,2022_Apr_10_1139,Semantic-hierachy,2021.1.2,
321,Trial # 322,layer9-17_O5_to_T4.jpg,layer9-17/layer9-17_O5_to_T4.jpg,OT,layer9-17,,,,,,,,,0.0,21.0,21.0,21.0,1804.968514244072,None,2.0,1.7395129499491304,1804.968514244072,None,1804.968514244072,None,1804.968514244072,None,1,2022_Apr_10_1139,Semantic-hierachy,2021.1.2,
322,Trial # 323,layer0-5_T12_to_T2.jpg,layer0-5/layer0-5_T12_to_T2.jpg,TT,layer0-5,,,,,,,,,0.0,22.0,22.0,22.0,1807.1847705831751,None,1.0,1.995301794959232,1807.1847705831751,None,1807.1847705831751,None,1807.1847705831751,None,1,2022_Apr_10_1139,Semantic-hierachy,2021.1.2,
323,Trial # 324,layer0-5_O2_to_O4.jpg,layer0-5/layer0-5_O2_to_O4.jpg,OO,layer0-5,,,,,,,,,0.0,23.0,23.0,23.0,1809.887057316024,None,1.0,2.049025567015633,1809.887057316024,None,1809.887057316024,None,1809.887057316024,None,1,2022_Apr_10_1139,Semantic-hierachy,2021.1.2,
324,Trial # 325,layer6-8_O1_to_O9.jpg,layer6-8/layer6-8_O1_to_O9.jpg,OO,layer6-8,,,,,,,,,0.0,24.0,24.0,24.0,1812.5530502721667,None,4.0,2.812653479864821,1812.5530502721667,None,1812.5530502721667,None,1812.5530502721667,None,1,2022_Apr_10_1139,Semantic-hierachy,2021.1.2,
325,Trial # 326,layer0-5_T3_to_T5.jpg,layer0-5/layer0-5_T3_to_T5.jpg,TT,layer0-5,,,,,,,,,0.0,25.0,25.0,25.0,1816.25431576604,None,1.0,2.378642881056294,1816.25431576604,None,1816.25431576604,None,1816.25431576604,None,1,2022_Apr_10_1139,Semantic-hierachy,2021.1.2,
326,Trial # 327,layer6-8_O8_to_T12.jpg,layer6-8/layer6-8_O8_to_T12.jpg,OT,layer6-8,,,,,,,,,0.0,26.0,26.0,26.0,1819.171872003004,None,3.0,3.87876563007012,1819.171872003004,None,1819.171872003004,None,1819.171872003004,None,1,2022_Apr_10_1139,Semantic-hierachy,2021.1.2,
327,Trial # 328,layer9-17_T11_to_T4.jpg,layer9-17/layer9-17_T11_to_T4.jpg,TT,layer9-17,,,,,,,,,0.0,27.0,27.0,27.0,1828.1912439311848,None,2.0,1.6581753951031717,1828.1912439311848,None,1828.1912439311848,None,1828.1912439311848,None,1,2022_Apr_10_1139,Semantic-hierachy,2021.1.2,
328,Trial # 329,layer9-17_O6_to_T2.jpg,layer9-17/layer9-17_O6_to_T2.jpg,OT,layer9-17,,,,,,,,,0.0,28.0,28.0,28.0,1830.426502701128,None,2.0,1.957044456154108,1830.426502701128,None,1830.426502701128,None,1830.426502701128,None,1,2022_Apr_10_1139,Semantic-hierachy,2021.1.2,
329,Trial # 330,layer9-17_T10_to_T9.jpg,layer9-17/layer9-17_T10_to_T9.jpg,TT,layer9-17,,,,,,,,,0.0,29.0,29.0,29.0,1832.792737269076,None,2.0,2.2279677600599825,1832.792737269076,None,1832.792737269076,None,1832.792737269076,None,1,2022_Apr_10_1139,Semantic-hierachy,2021.1.2,
330,Trial # 331,layer0-5_O2_to_O3.jpg,layer0-5/layer0-5_O2_to_O3.jpg,OO,layer0-5,,,,,,,,,0.0,30.0,30.0,30.0,1835.527162549086,None,1.0,2.2915480711963028,1835.527162549086,None,1835.527162549086,None,1835.527162549086,None,1,2022_Apr_10_1139,Semantic-hierachy,2021.1.2,
331,Trial # 332,layer6-8_O1_to_O12.jpg,layer6-8/layer6-8_O1_to_O12.jpg,OO,layer6-8,,,,,,,,,0.0,31.0,31.0,31.0,1838.27748864214,None,2.0,3.070958800846711,1838.27748864214,None,1838.27748864214,None,1838.27748864214,None,1,2022_Apr_10_1139,Semantic-hierachy,2021.1.2,
332,Trial # 333,layer0-5_O5_to_T12.jpg,layer0-5/layer0-5_O5_to_T12.jpg,OT,layer0-5,,,,,,,,,0.0,32.0,32.0,32.0,1842.345674338052,None,1.0,1.6838110678363591,1842.345674338052,None,1842.345674338052,None,1842.345674338052,None,1,2022_Apr_10_1139,Semantic-hierachy,2021.1.2,
333,Trial # 334,layer9-17_O11_to_T6.jpg,layer9-17/layer9-17_O11_to_T6.jpg,OT,layer9-17,,,,,,,,,0.0,33.0,33.0,33.0,1844.5468402700496,None,4.0,3.046483637066558,1844.5468402700496,None,1844.5468402700496,None,1844.5468402700496,None,1,2022_Apr_10_1139,Semantic-hierachy,2021.1.2,
334,Trial # 335,layer0-5_O4_to_T1.jpg,layer0-5/layer0-5_O4_to_T1.jpg,OT,layer0-5,,,,,,,,,0.0,34.0,34.0,34.0,1848.4976602890529,None,1.0,2.561953093158081,1848.4976602890529,None,1848.4976602890529,None,1848.4976602890529,None,1,2022_Apr_10_1139,Semantic-hierachy,2021.1.2,
335,Trial # 336,layer6-8_T1_to_T6.jpg,layer6-8/layer6-8_T1_to_T6.jpg,TT,layer6-8,,,,,,,,,0.0,35.0,35.0,35.0,1851.565089212032,None,4.0,3.8235449008643614,1851.565089212032,None,1851.565089212032,None,1851.565089212032,None,1,2022_Apr_10_1139,Semantic-hierachy,2021.1.2,
336,Trial # 337,layer0-5_O12_to_O6.jpg,layer0-5/layer0-5_O12_to_O6.jpg,OO,layer0-5,,,,,,,,,0.0,36.0,36.0,36.0,1855.9501857780847,None,1.0,1.7461657009553164,1855.9501857780847,None,1855.9501857780847,None,1855.9501857780847,None,1,2022_Apr_10_1139,Semantic-hierachy,2021.1.2,
337,Trial # 338,layer0-5_O1_to_O10.jpg,layer0-5/layer0-5_O1_to_O10.jpg,OO,layer0-5,,,,,,,,,0.0,37.0,37.0,37.0,1858.200631533051,None,1.0,2.248621609993279,1858.200631533051,None,1858.200631533051,None,1858.200631533051,None,1,2022_Apr_10_1139,Semantic-hierachy,2021.1.2,
338,Trial # 339,layer0-5_O9_to_T9.jpg,layer0-5/layer0-5_O9_to_T9.jpg,OT,layer0-5,,,,,,,,,0.0,38.0,38.0,38.0,1861.069464734057,None,1.0,4.000618729973212,1861.069464734057,None,1861.069464734057,None,1861.069464734057,None,1,2022_Apr_10_1139,Semantic-hierachy,2021.1.2,
339,Trial # 340,layer6-8_O6_to_T10.jpg,layer6-8/layer6-8_O6_to_T10.jpg,OT,layer6-8,,,,,,,,,0.0,39.0,39.0,39.0,1865.537240180187,None,3.0,1.7634884668514132,1865.537240180187,None,1865.537240180187,None,1865.537240180187,None,1,2022_Apr_10_1139,Semantic-hierachy,2021.1.2,
340,Trial # 341,layer9-17_O3_to_T3.jpg,layer9-17/layer9-17_O3_to_T3.jpg,OT,layer9-17,,,,,,,,,0.0,40.0,40.0,40.0,1867.78698685416,None,2.0,2.129097877070308,1867.78698685416,None,1867.78698685416,None,1867.78698685416,None,1,2022_Apr_10_1139,Semantic-hierachy,2021.1.2,
341,Trial # 342,layer0-5_O8_to_T8.jpg,layer0-5/layer0-5_O8_to_T8.jpg,OT,layer0-5,,,,,,,,,0.0,41.0,41.0,41.0,1870.3554318221288,None,1.0,2.4939704530406743,1870.3554318221288,None,1870.3554318221288,None,1870.3554318221288,None,1,2022_Apr_10_1139,Semantic-hierachy,2021.1.2,
342,Trial # 343,layer9-17_O11_to_O3.jpg,layer9-17/layer9-17_O11_to_O3.jpg,OO,layer9-17,,,,,,,,,0.0,42.0,42.0,42.0,1873.372431767173,None,2.0,1.7758271237835288,1873.372431767173,None,1873.372431767173,None,1873.372431767173,None,1,2022_Apr_10_1139,Semantic-hierachy,2021.1.2,
343,Trial # 344,layer9-17_O10_to_T12.jpg,layer9-17/layer9-17_O10_to_T12.jpg,OT,layer9-17,,,,,,,,,0.0,43.0,43.0,43.0,1875.589436142007,None,2.0,1.4289830320049075,1875.589436142007,None,1875.589436142007,None,1875.589436142007,None,1,2022_Apr_10_1139,Semantic-hierachy,2021.1.2,
344,Trial # 345,layer6-8_T3_to_T6.jpg,layer6-8/layer6-8_T3_to_T6.jpg,TT,layer6-8,,,,,,,,,0.0,44.0,44.0,44.0,1878.2403338451404,None,3.0,3.8013487909920514,1878.2403338451404,None,1878.2403338451404,None,1878.2403338451404,None,1,2022_Apr_10_1139,Semantic-hierachy,2021.1.2,
345,Trial # 346,layer6-8_O1_to_O4.jpg,layer6-8/layer6-8_O1_to_O4.jpg,OO,layer6-8,,,,,,,,,0.0,45.0,45.0,45.0,1882.591326915193,None,4.0,3.129732955945656,1882.591326915193,None,1882.591326915193,None,1882.591326915193,None,1,2022_Apr_10_1139,Semantic-hierachy,2021.1.2,
346,Trial # 347,layer0-5_O8_to_T3.jpg,layer0-5/layer0-5_O8_to_T3.jpg,OT,layer0-5,,,,,,,,,0.0,46.0,46.0,46.0,1887.444078879198,None,1.0,2.085883075837046,1887.444078879198,None,1887.444078879198,None,1887.444078879198,None,1,2022_Apr_10_1139,Semantic-hierachy,2021.1.2,
347,Trial # 348,layer9-17_T2_to_T7.jpg,layer9-17/layer9-17_T2_to_T7.jpg,TT,layer9-17,,,,,,,,,0.0,47.0,47.0,47.0,1890.0284535461103,None,2.0,2.8792342650704086,1890.0284535461103,None,1890.0284535461103,None,1890.0284535461103,None,1,2022_Apr_10_1139,Semantic-hierachy,2021.1.2,
348,Trial # 349,layer0-5_O9_to_T4.jpg,layer0-5/layer0-5_O9_to_T4.jpg,OT,layer0-5,,,,,,,,,0.0,48.0,48.0,48.0,1894.429091994185,None,1.0,2.3090631279628724,1894.429091994185,None,1894.429091994185,None,1894.429091994185,None,1,2022_Apr_10_1139,Semantic-hierachy,2021.1.2,
349,Trial # 350,layer9-17_T12_to_T9.jpg,layer9-17/layer9-17_T12_to_T9.jpg,TT,layer9-17,,,,,,,,,0.0,49.0,49.0,49.0,1897.263029515976,None,2.0,3.847643595188856,1897.263029515976,None,1897.263029515976,None,1897.263029515976,None,1,2022_Apr_10_1139,Semantic-hierachy,2021.1.2,
350,Trial # 351,layer6-8_O11_to_O6.jpg,layer6-8/layer6-8_O11_to_O6.jpg,OO,layer6-8,,,,,,,,,0.0,50.0,50.0,50.0,1901.647229406052,None,2.0,3.911818297812715,1901.647229406052,None,1901.647229406052,None,1901.647229406052,None,1,2022_Apr_10_1139,Semantic-hierachy,2021.1.2,
351,Trial # 352,layer0-5_O10_to_O11.jpg,layer0-5/layer0-5_O10_to_O11.jpg,OO,layer0-5,,,,,,,,,0.0,51.0,51.0,51.0,1906.08332383004,None,1.0,2.04366452107206,1906.08332383004,None,1906.08332383004,None,1906.08332383004,None,1,2022_Apr_10_1139,Semantic-hierachy,2021.1.2,
352,Trial # 353,layer9-17_O4_to_T7.jpg,layer9-17/layer9-17_O4_to_T7.jpg,OT,layer9-17,,,,,,,,,0.0,52.0,52.0,52.0,1908.6156312881503,None,2.0,1.743587396107614,1908.6156312881503,None,1908.6156312881503,None,1908.6156312881503,None,1,2022_Apr_10_1139,Semantic-hierachy,2021.1.2,
353,Trial # 354,layer0-5_O2_to_T11.jpg,layer0-5/layer0-5_O2_to_T11.jpg,OT,layer0-5,,,,,,,,,0.0,53.0,53.0,53.0,1910.834863292053,None,1.0,3.811850110068917,1910.834863292053,None,1910.834863292053,None,1910.834863292053,None,1,2022_Apr_10_1139,Semantic-hierachy,2021.1.2,
354,Trial # 355,layer9-17_O5_to_O6.jpg,layer9-17/layer9-17_O5_to_O6.jpg,OO,layer9-17,,,,,,,,,0.0,54.0,54.0,54.0,1914.8858413919809,None,2.0,1.7162112270016223,1914.8858413919809,None,1914.8858413919809,None,1914.8858413919809,None,1,2022_Apr_10_1139,Semantic-hierachy,2021.1.2,
355,Trial # 356,layer6-8_O5_to_T10.jpg,layer6-8/layer6-8_O5_to_T10.jpg,OT,layer6-8,,,,,,,,,0.0,55.0,55.0,55.0,1916.802910130005,None,3.0,2.4343809310812503,1916.802910130005,None,1916.802910130005,None,1916.802910130005,None,1,2022_Apr_10_1139,Semantic-hierachy,2021.1.2,
356,Trial # 357,layer6-8_T3_to_T4.jpg,layer6-8/layer6-8_T3_to_T4.jpg,TT,layer6-8,,,,,,,,,0.0,56.0,56.0,56.0,1919.4199661111925,None,4.0,4.95707659306936,1919.4199661111925,None,1919.4199661111925,None,1919.4199661111925,None,1,2022_Apr_10_1139,Semantic-hierachy,2021.1.2,
357,Trial # 358,layer6-8_T4_to_T8.jpg,layer6-8/layer6-8_T4_to_T8.jpg,TT,layer6-8,,,,,,,,,0.0,57.0,57.0,57.0,1924.605461803032,None,4.0,3.8896117410622537,1924.605461803032,None,1924.605461803032,None,1924.605461803032,None,1,2022_Apr_10_1139,Semantic-hierachy,2021.1.2,
358,Trial # 359,layer0-5_O2_to_T4.jpg,layer0-5/layer0-5_O2_to_T4.jpg,OT,layer0-5,,,,,,,,,0.0,58.0,58.0,58.0,1928.689045746112,None,1.0,1.9664670948404817,1928.689045746112,None,1928.689045746112,None,1928.689045746112,None,1,2022_Apr_10_1139,Semantic-hierachy,2021.1.2,
359,Trial # 360,layer0-5_O4_to_O7.jpg,layer0-5/layer0-5_O4_to_O7.jpg,OO,layer0-5,,,,,,,,,0.0,59.0,59.0,59.0,1930.840784947155,None,1.0,1.4021557609084994,1930.840784947155,None,1930.840784947155,None,1930.840784947155,None,1,2022_Apr_10_1139,Semantic-hierachy,2021.1.2,
360,Trial # 361,layer9-17_O12_to_T7.jpg,layer9-17/layer9-17_O12_to_T7.jpg,OT,layer9-17,,,,,,,,,0.0,60.0,60.0,60.0,1932.4069353821687,None,2.0,1.4478563640732318,1932.4069353821687,None,1932.4069353821687,None,1932.4069353821687,None,1,2022_Apr_10_1139,Semantic-hierachy,2021.1.2,
361,Trial # 362,layer6-8_O11_to_T8.jpg,layer6-8/layer6-8_O11_to_T8.jpg,OT,layer6-8,,,,,,,,,0.0,61.0,61.0,61.0,1934.007097878028,None,3.0,1.7942648569587618,1934.007097878028,None,1934.007097878028,None,1934.007097878028,None,1,2022_Apr_10_1139,Semantic-hierachy,2021.1.2,
362,Trial # 363,layer9-17_O10_to_T6.jpg,layer9-17/layer9-17_O10_to_T6.jpg,OT,layer9-17,,,,,,,,,0.0,62.0,62.0,62.0,1935.9757426381111,None,2.0,7.508240014081821,1935.9757426381111,None,1935.9757426381111,None,1935.9757426381111,None,1,2022_Apr_10_1139,Semantic-hierachy,2021.1.2,
363,Trial # 364,layer0-5_O5_to_T7.jpg,layer0-5/layer0-5_O5_to_T7.jpg,OT,layer0-5,,,,,,,,,0.0,63.0,63.0,63.0,1943.643817719072,None,1.0,1.801941683981568,1943.643817719072,None,1943.643817719072,None,1943.643817719072,None,1,2022_Apr_10_1139,Semantic-hierachy,2021.1.2,
