,Trial_num,image_name,image_path,pair_type,layers,block1.thisRepN,block1.thisTrialN,block1.thisN,block1.thisIndex,block2.thisRepN,block2.thisTrialN,block2.thisN,block2.thisIndex,block3.thisRepN,block3.thisTrialN,block3.thisN,block3.thisIndex,image_8.started,image_8.stopped,selected_semantic.response,selected_semantic.rt,selected_semantic.started,selected_semantic.stopped,Instruction.started,Instruction.stopped,Trial_number.started,Trial_number.stopped,session,date,expName,psychopyVersion,Unnamed: 33
0,Trial # 1,layer0-5_O2_to_T1.jpg,layer0-5/layer0-5_O2_to_T1.jpg,OT,layer0-5,0.0,0.0,0.0,0.0,,,,,,,,,41.16291255899705,None,1.0,50.02963267103769,41.16291255899705,None,41.16291255899705,None,41.16291255899705,None,1,2022_Apr_22_1101,Semantic-hierachy,2021.1.2,
1,Trial # 2,layer0-5_O11_to_T7.jpg,layer0-5/layer0-5_O11_to_T7.jpg,OT,layer0-5,0.0,1.0,1.0,1.0,,,,,,,,,92.51124500995502,None,1.0,4.042298307875171,92.51124500995502,None,92.51124500995502,None,92.51124500995502,None,1,2022_Apr_22_1101,Semantic-hierachy,2021.1.2,
2,Trial # 3,layer6-8_O3_to_O5.jpg,layer6-8/layer6-8_O3_to_O5.jpg,OO,layer6-8,0.0,2.0,2.0,2.0,,,,,,,,,96.9297760319896,None,4.0,6.004595448030159,96.9297760319896,None,96.9297760319896,None,96.9297760319896,None,1,2022_Apr_22_1101,Semantic-hierachy,2021.1.2,
3,Trial # 4,layer6-8_O11_to_O4.jpg,layer6-8/layer6-8_O11_to_O4.jpg,OO,layer6-8,0.0,3.0,3.0,3.0,,,,,,,,,103.31411378504708,None,3.0,2.867192205972969,103.31411378504708,None,103.31411378504708,None,103.31411378504708,None,1,2022_Apr_22_1101,Semantic-hierachy,2021.1.2,
4,Trial # 5,layer6-8_O8_to_T8.jpg,layer6-8/layer6-8_O8_to_T8.jpg,OT,layer6-8,0.0,4.0,4.0,4.0,,,,,,,,,106.56571586593054,None,4.0,17.745043575996533,106.56571586593054,None,106.56571586593054,None,106.56571586593054,None,1,2022_Apr_22_1101,Semantic-hierachy,2021.1.2,
5,Trial # 6,layer0-5_O11_to_O8.jpg,layer0-5/layer0-5_O11_to_O8.jpg,OO,layer0-5,0.0,5.0,5.0,5.0,,,,,,,,,124.62197391898373,None,1.0,3.9200447930488735,124.62197391898373,None,124.62197391898373,None,124.62197391898373,None,1,2022_Apr_22_1101,Semantic-hierachy,2021.1.2,
6,Trial # 7,layer0-5_T10_to_T11.jpg,layer0-5/layer0-5_T10_to_T11.jpg,TT,layer0-5,0.0,6.0,6.0,6.0,,,,,,,,,128.8566986899823,None,1.0,1.4059740498196334,128.8566986899823,None,128.8566986899823,None,128.8566986899823,None,1,2022_Apr_22_1101,Semantic-hierachy,2021.1.2,
7,Trial # 8,layer9-17_O6_to_O9.jpg,layer9-17/layer9-17_O6_to_O9.jpg,OO,layer9-17,0.0,7.0,7.0,7.0,,,,,,,,,131.190057604108,None,2.0,2.347653579199686,131.190057604108,None,131.190057604108,None,131.190057604108,None,1,2022_Apr_22_1101,Semantic-hierachy,2021.1.2,
8,Trial # 9,layer6-8_O12_to_O9.jpg,layer6-8/layer6-8_O12_to_O9.jpg,OO,layer6-8,0.0,8.0,8.0,8.0,,,,,,,,,133.87430692696944,None,3.0,3.0437872430775315,133.87430692696944,None,133.87430692696944,None,133.87430692696944,None,1,2022_Apr_22_1101,Semantic-hierachy,2021.1.2,
9,Trial # 10,layer0-5_O10_to_T2.jpg,layer0-5/layer0-5_O10_to_T2.jpg,OT,layer0-5,0.0,9.0,9.0,9.0,,,,,,,,,137.3253877889365,None,4.0,2.560195341007784,137.3253877889365,None,137.3253877889365,None,137.3253877889365,None,1,2022_Apr_22_1101,Semantic-hierachy,2021.1.2,
10,Trial # 11,layer9-17_T10_to_T2.jpg,layer9-17/layer9-17_T10_to_T2.jpg,TT,layer9-17,0.0,10.0,10.0,10.0,,,,,,,,,140.34388131508604,None,3.0,22.62923072185368,140.34388131508604,None,140.34388131508604,None,140.34388131508604,None,1,2022_Apr_22_1101,Semantic-hierachy,2021.1.2,
11,Trial # 12,layer6-8_T6_to_T7.jpg,layer6-8/layer6-8_T6_to_T7.jpg,TT,layer6-8,0.0,11.0,11.0,11.0,,,,,,,,,163.45033225696534,None,3.0,3.804111205041409,163.45033225696534,None,163.45033225696534,None,163.45033225696534,None,1,2022_Apr_22_1101,Semantic-hierachy,2021.1.2,
12,Trial # 13,layer9-17_O10_to_T2.jpg,layer9-17/layer9-17_O10_to_T2.jpg,OT,layer9-17,0.0,12.0,12.0,12.0,,,,,,,,,167.5178566109389,None,2.0,1.8671164971310643,167.5178566109389,None,167.5178566109389,None,167.5178566109389,None,1,2022_Apr_22_1101,Semantic-hierachy,2021.1.2,
13,Trial # 14,layer6-8_T4_to_T7.jpg,layer6-8/layer6-8_T4_to_T7.jpg,TT,layer6-8,0.0,13.0,13.0,13.0,,,,,,,,,169.7860705810599,None,3.0,4.905368289910257,169.7860705810599,None,169.7860705810599,None,169.7860705810599,None,1,2022_Apr_22_1101,Semantic-hierachy,2021.1.2,
14,Trial # 15,layer9-17_O8_to_T2.jpg,layer9-17/layer9-17_O8_to_T2.jpg,OT,layer9-17,0.0,14.0,14.0,14.0,,,,,,,,,175.07155248499475,None,2.0,1.809676583856344,175.07155248499475,None,175.07155248499475,None,175.07155248499475,None,1,2022_Apr_22_1101,Semantic-hierachy,2021.1.2,
15,Trial # 16,layer0-5_T6_to_T9.jpg,layer0-5/layer0-5_T6_to_T9.jpg,TT,layer0-5,0.0,15.0,15.0,15.0,,,,,,,,,177.38742424198426,None,1.0,1.687354364199564,177.38742424198426,None,177.38742424198426,None,177.38742424198426,None,1,2022_Apr_22_1101,Semantic-hierachy,2021.1.2,
16,Trial # 17,layer0-5_O11_to_O12.jpg,layer0-5/layer0-5_O11_to_O12.jpg,OO,layer0-5,0.0,16.0,16.0,16.0,,,,,,,,,179.3891875280533,None,1.0,1.3218838630709795,179.3891875280533,None,179.3891875280533,None,179.3891875280533,None,1,2022_Apr_22_1101,Semantic-hierachy,2021.1.2,
17,Trial # 18,layer0-5_T11_to_T5.jpg,layer0-5/layer0-5_T11_to_T5.jpg,TT,layer0-5,0.0,17.0,17.0,17.0,,,,,,,,,181.0399625909049,None,1.0,1.12351261312142,181.0399625909049,None,181.0399625909049,None,181.0399625909049,None,1,2022_Apr_22_1101,Semantic-hierachy,2021.1.2,
18,Trial # 19,layer0-5_O6_to_T12.jpg,layer0-5/layer0-5_O6_to_T12.jpg,OT,layer0-5,0.0,18.0,18.0,18.0,,,,,,,,,183.372548962012,None,1.0,1.826631983043626,183.372548962012,None,183.372548962012,None,183.372548962012,None,1,2022_Apr_22_1101,Semantic-hierachy,2021.1.2,
19,Trial # 20,layer6-8_T6_to_T8.jpg,layer6-8/layer6-8_T6_to_T8.jpg,TT,layer6-8,0.0,19.0,19.0,19.0,,,,,,,,,185.59030754305425,None,3.0,3.748544990085066,185.59030754305425,None,185.59030754305425,None,185.59030754305425,None,1,2022_Apr_22_1101,Semantic-hierachy,2021.1.2,
20,Trial # 21,layer9-17_T2_to_T5.jpg,layer9-17/layer9-17_T2_to_T5.jpg,TT,layer9-17,0.0,20.0,20.0,20.0,,,,,,,,,189.6093578340952,None,2.0,1.8839674880728128,189.6093578340952,None,189.6093578340952,None,189.6093578340952,None,1,2022_Apr_22_1101,Semantic-hierachy,2021.1.2,
21,Trial # 22,layer6-8_O2_to_O6.jpg,layer6-8/layer6-8_O2_to_O6.jpg,OO,layer6-8,0.0,21.0,21.0,21.0,,,,,,,,,191.9917685398832,None,4.0,2.97698063403368,191.9917685398832,None,191.9917685398832,None,191.9917685398832,None,1,2022_Apr_22_1101,Semantic-hierachy,2021.1.2,
22,Trial # 23,layer9-17_O3_to_T12.jpg,layer9-17/layer9-17_O3_to_T12.jpg,OT,layer9-17,0.0,22.0,22.0,22.0,,,,,,,,,195.2271313020028,None,2.0,1.804045545868576,195.2271313020028,None,195.2271313020028,None,195.2271313020028,None,1,2022_Apr_22_1101,Semantic-hierachy,2021.1.2,
23,Trial # 24,layer0-5_O11_to_O3.jpg,layer0-5/layer0-5_O11_to_O3.jpg,OO,layer0-5,0.0,23.0,23.0,23.0,,,,,,,,,197.41024483996443,None,1.0,1.767536831088364,197.41024483996443,None,197.41024483996443,None,197.41024483996443,None,1,2022_Apr_22_1101,Semantic-hierachy,2021.1.2,
24,Trial # 25,layer6-8_O2_to_O9.jpg,layer6-8/layer6-8_O2_to_O9.jpg,OO,layer6-8,0.0,24.0,24.0,24.0,,,,,,,,,199.5620412291028,None,4.0,2.0865661080460995,199.5620412291028,None,199.5620412291028,None,199.5620412291028,None,1,2022_Apr_22_1101,Semantic-hierachy,2021.1.2,
25,Trial # 26,layer9-17_O10_to_O8.jpg,layer9-17/layer9-17_O10_to_O8.jpg,OO,layer9-17,0.0,25.0,25.0,25.0,,,,,,,,,203.0458087879233,None,3.0,8.11390871903859,203.0458087879233,None,203.0458087879233,None,203.0458087879233,None,1,2022_Apr_22_1101,Semantic-hierachy,2021.1.2,
26,Trial # 27,layer9-17_T4_to_T6.jpg,layer9-17/layer9-17_T4_to_T6.jpg,TT,layer9-17,0.0,26.0,26.0,26.0,,,,,,,,,211.5483682199847,None,2.0,2.1713250698521733,211.5483682199847,None,211.5483682199847,None,211.5483682199847,None,1,2022_Apr_22_1101,Semantic-hierachy,2021.1.2,
27,Trial # 28,layer6-8_O7_to_T8.jpg,layer6-8/layer6-8_O7_to_T8.jpg,OT,layer6-8,0.0,27.0,27.0,27.0,,,,,,,,,214.0997421699576,None,3.0,3.604278926970437,214.0997421699576,None,214.0997421699576,None,214.0997421699576,None,1,2022_Apr_22_1101,Semantic-hierachy,2021.1.2,
28,Trial # 29,layer6-8_T4_to_T5.jpg,layer6-8/layer6-8_T4_to_T5.jpg,TT,layer6-8,0.0,28.0,28.0,28.0,,,,,,,,,218.901682084892,None,3.0,3.313552981941029,218.901682084892,None,218.901682084892,None,218.901682084892,None,1,2022_Apr_22_1101,Semantic-hierachy,2021.1.2,
29,Trial # 30,layer6-8_T10_to_T9.jpg,layer6-8/layer6-8_T10_to_T9.jpg,TT,layer6-8,0.0,29.0,29.0,29.0,,,,,,,,,222.60156137589365,None,3.0,3.971890127053484,222.60156137589365,None,222.60156137589365,None,222.60156137589365,None,1,2022_Apr_22_1101,Semantic-hierachy,2021.1.2,
30,Trial # 31,layer9-17_O1_to_O8.jpg,layer9-17/layer9-17_O1_to_O8.jpg,OO,layer9-17,0.0,30.0,30.0,30.0,,,,,,,,,227.5194987310097,None,2.0,3.129910859046504,227.5194987310097,None,227.5194987310097,None,227.5194987310097,None,1,2022_Apr_22_1101,Semantic-hierachy,2021.1.2,
31,Trial # 32,layer9-17_O12_to_O7.jpg,layer9-17/layer9-17_O12_to_O7.jpg,OO,layer9-17,0.0,31.0,31.0,31.0,,,,,,,,,230.9548151849304,None,2.0,2.234650108963251,230.9548151849304,None,230.9548151849304,None,230.9548151849304,None,1,2022_Apr_22_1101,Semantic-hierachy,2021.1.2,
32,Trial # 33,layer9-17_T10_to_T12.jpg,layer9-17/layer9-17_T10_to_T12.jpg,TT,layer9-17,0.0,32.0,32.0,32.0,,,,,,,,,233.53879053494893,None,3.0,2.225627769948914,233.53879053494893,None,233.53879053494893,None,233.53879053494893,None,1,2022_Apr_22_1101,Semantic-hierachy,2021.1.2,
33,Trial # 34,layer0-5_T2_to_T6.jpg,layer0-5/layer0-5_T2_to_T6.jpg,TT,layer0-5,0.0,33.0,33.0,33.0,,,,,,,,,236.62320380588065,None,1.0,3.288273906102404,236.62320380588065,None,236.62320380588065,None,236.62320380588065,None,1,2022_Apr_22_1101,Semantic-hierachy,2021.1.2,
34,Trial # 35,layer6-8_T11_to_T2.jpg,layer6-8/layer6-8_T11_to_T2.jpg,TT,layer6-8,0.0,34.0,34.0,34.0,,,,,,,,,240.24054833711125,None,3.0,4.937045983038843,240.24054833711125,None,240.24054833711125,None,240.24054833711125,None,1,2022_Apr_22_1101,Semantic-hierachy,2021.1.2,
35,Trial # 36,layer6-8_O4_to_T3.jpg,layer6-8/layer6-8_O4_to_T3.jpg,OT,layer6-8,0.0,35.0,35.0,35.0,,,,,,,,,246.2756443649996,None,3.0,1.6767491670325398,246.2756443649996,None,246.2756443649996,None,246.2756443649996,None,1,2022_Apr_22_1101,Semantic-hierachy,2021.1.2,
36,Trial # 37,layer6-8_O3_to_T11.jpg,layer6-8/layer6-8_O3_to_T11.jpg,OT,layer6-8,0.0,36.0,36.0,36.0,,,,,,,,,248.32590551208705,None,2.0,1.6607664830517024,248.32590551208705,None,248.32590551208705,None,248.32590551208705,None,1,2022_Apr_22_1101,Semantic-hierachy,2021.1.2,
37,Trial # 38,layer6-8_T1_to_T2.jpg,layer6-8/layer6-8_T1_to_T2.jpg,TT,layer6-8,0.0,37.0,37.0,37.0,,,,,,,,,250.3935080349911,None,3.0,4.137149352114648,250.3935080349911,None,250.3935080349911,None,250.3935080349911,None,1,2022_Apr_22_1101,Semantic-hierachy,2021.1.2,
38,Trial # 39,layer9-17_O2_to_O6.jpg,layer9-17/layer9-17_O2_to_O6.jpg,OO,layer9-17,0.0,38.0,38.0,38.0,,,,,,,,,254.9625239749439,None,4.0,3.472128913970664,254.9625239749439,None,254.9625239749439,None,254.9625239749439,None,1,2022_Apr_22_1101,Semantic-hierachy,2021.1.2,
39,Trial # 40,layer9-17_O4_to_T2.jpg,layer9-17/layer9-17_O4_to_T2.jpg,OT,layer9-17,0.0,39.0,39.0,39.0,,,,,,,,,259.08037360804155,None,2.0,3.420458673033864,259.08037360804155,None,259.08037360804155,None,259.08037360804155,None,1,2022_Apr_22_1101,Semantic-hierachy,2021.1.2,
40,Trial # 41,layer6-8_O5_to_T3.jpg,layer6-8/layer6-8_O5_to_T3.jpg,OT,layer6-8,0.0,40.0,40.0,40.0,,,,,,,,,262.8801151260268,None,3.0,1.9718485199846327,262.8801151260268,None,262.8801151260268,None,262.8801151260268,None,1,2022_Apr_22_1101,Semantic-hierachy,2021.1.2,
41,Trial # 42,layer6-8_O2_to_O3.jpg,layer6-8/layer6-8_O2_to_O3.jpg,OO,layer6-8,0.0,41.0,41.0,41.0,,,,,,,,,265.18213368207216,None,4.0,7.304426246089861,265.18213368207216,None,265.18213368207216,None,265.18213368207216,None,1,2022_Apr_22_1101,Semantic-hierachy,2021.1.2,
42,Trial # 43,layer6-8_O1_to_T6.jpg,layer6-8/layer6-8_O1_to_T6.jpg,OT,layer6-8,0.0,42.0,42.0,42.0,,,,,,,,,272.8166029059794,None,2.0,1.97574057104066,272.8166029059794,None,272.8166029059794,None,272.8166029059794,None,1,2022_Apr_22_1101,Semantic-hierachy,2021.1.2,
43,Trial # 44,layer6-8_O2_to_T12.jpg,layer6-8/layer6-8_O2_to_T12.jpg,OT,layer6-8,0.0,43.0,43.0,43.0,,,,,,,,,275.11810657405294,None,3.0,1.5540102710947394,275.11810657405294,None,275.11810657405294,None,275.11810657405294,None,1,2022_Apr_22_1101,Semantic-hierachy,2021.1.2,
44,Trial # 45,layer9-17_O2_to_O8.jpg,layer9-17/layer9-17_O2_to_O8.jpg,OO,layer9-17,0.0,44.0,44.0,44.0,,,,,,,,,276.9849039199762,None,2.0,5.895195202901959,276.9849039199762,None,276.9849039199762,None,276.9849039199762,None,1,2022_Apr_22_1101,Semantic-hierachy,2021.1.2,
45,Trial # 46,layer9-17_O10_to_O4.jpg,layer9-17/layer9-17_O10_to_O4.jpg,OO,layer9-17,0.0,45.0,45.0,45.0,,,,,,,,,283.7710145378951,None,3.0,8.864509474020451,283.7710145378951,None,283.7710145378951,None,283.7710145378951,None,1,2022_Apr_22_1101,Semantic-hierachy,2021.1.2,
46,Trial # 47,layer0-5_O1_to_O4.jpg,layer0-5/layer0-5_O1_to_O4.jpg,OO,layer0-5,0.0,46.0,46.0,46.0,,,,,,,,,293.80721156089567,None,1.0,2.1330414270050824,293.80721156089567,None,293.80721156089567,None,293.80721156089567,None,1,2022_Apr_22_1101,Semantic-hierachy,2021.1.2,
47,Trial # 48,layer0-5_T4_to_T5.jpg,layer0-5/layer0-5_T4_to_T5.jpg,TT,layer0-5,0.0,47.0,47.0,47.0,,,,,,,,,297.1078148840461,None,1.0,2.1194467630703,297.1078148840461,None,297.1078148840461,None,297.1078148840461,None,1,2022_Apr_22_1101,Semantic-hierachy,2021.1.2,
48,Trial # 49,layer9-17_T12_to_T8.jpg,layer9-17/layer9-17_T12_to_T8.jpg,TT,layer9-17,0.0,48.0,48.0,48.0,,,,,,,,,299.9767725460697,None,2.0,1.8183547400403768,299.9767725460697,None,299.9767725460697,None,299.9767725460697,None,1,2022_Apr_22_1101,Semantic-hierachy,2021.1.2,
49,Trial # 50,layer0-5_T10_to_T5.jpg,layer0-5/layer0-5_T10_to_T5.jpg,TT,layer0-5,0.0,49.0,49.0,49.0,,,,,,,,,302.0764244729653,None,1.0,1.818389693973586,302.0764244729653,None,302.0764244729653,None,302.0764244729653,None,1,2022_Apr_22_1101,Semantic-hierachy,2021.1.2,
50,Trial # 51,layer6-8_O10_to_O8.jpg,layer6-8/layer6-8_O10_to_O8.jpg,OO,layer6-8,0.0,50.0,50.0,50.0,,,,,,,,,304.2438001779374,None,3.0,2.736852395813912,304.2438001779374,None,304.2438001779374,None,304.2438001779374,None,1,2022_Apr_22_1101,Semantic-hierachy,2021.1.2,
51,Trial # 52,layer9-17_O3_to_O5.jpg,layer9-17/layer9-17_O3_to_O5.jpg,OO,layer9-17,0.0,51.0,51.0,51.0,,,,,,,,,316.364268590929,None,2.0,1.8338952320627868,316.364268590929,None,316.364268590929,None,316.364268590929,None,1,2022_Apr_22_1101,Semantic-hierachy,2021.1.2,
52,Trial # 53,layer6-8_T1_to_T12.jpg,layer6-8/layer6-8_T1_to_T12.jpg,TT,layer6-8,0.0,52.0,52.0,52.0,,,,,,,,,318.5807286889758,None,3.0,2.0239086931105703,318.5807286889758,None,318.5807286889758,None,318.5807286889758,None,1,2022_Apr_22_1101,Semantic-hierachy,2021.1.2,
53,Trial # 54,layer0-5_O4_to_O9.jpg,layer0-5/layer0-5_O4_to_O9.jpg,OO,layer0-5,0.0,53.0,53.0,53.0,,,,,,,,,321.08248196705244,None,1.0,2.20547557901591,321.08248196705244,None,321.08248196705244,None,321.08248196705244,None,1,2022_Apr_22_1101,Semantic-hierachy,2021.1.2,
54,Trial # 55,layer0-5_O5_to_O9.jpg,layer0-5/layer0-5_O5_to_O9.jpg,OO,layer0-5,0.0,54.0,54.0,54.0,,,,,,,,,323.63677779911086,None,1.0,2.5895190390292555,323.63677779911086,None,323.63677779911086,None,323.63677779911086,None,1,2022_Apr_22_1101,Semantic-hierachy,2021.1.2,
55,Trial # 56,layer0-5_O1_to_O2.jpg,layer0-5/layer0-5_O1_to_O2.jpg,OO,layer0-5,0.0,55.0,55.0,55.0,,,,,,,,,328.7842802919913,None,1.0,1.2093937089666724,328.7842802919913,None,328.7842802919913,None,328.7842802919913,None,1,2022_Apr_22_1101,Semantic-hierachy,2021.1.2,
56,Trial # 57,layer9-17_T12_to_T3.jpg,layer9-17/layer9-17_T12_to_T3.jpg,TT,layer9-17,0.0,56.0,56.0,56.0,,,,,,,,,330.3693802000489,None,2.0,1.7233960330486298,330.3693802000489,None,330.3693802000489,None,330.3693802000489,None,1,2022_Apr_22_1101,Semantic-hierachy,2021.1.2,
57,Trial # 58,layer0-5_O7_to_O9.jpg,layer0-5/layer0-5_O7_to_O9.jpg,OO,layer0-5,0.0,57.0,57.0,57.0,,,,,,,,,332.90219921898097,None,1.0,1.8672990039922297,332.90219921898097,None,332.90219921898097,None,332.90219921898097,None,1,2022_Apr_22_1101,Semantic-hierachy,2021.1.2,
58,Trial # 59,layer0-5_T5_to_T9.jpg,layer0-5/layer0-5_T5_to_T9.jpg,TT,layer0-5,0.0,58.0,58.0,58.0,,,,,,,,,335.1198392070364,None,1.0,1.3886491749435663,335.1198392070364,None,335.1198392070364,None,335.1198392070364,None,1,2022_Apr_22_1101,Semantic-hierachy,2021.1.2,
59,Trial # 60,layer9-17_O1_to_O9.jpg,layer9-17/layer9-17_O1_to_O9.jpg,OO,layer9-17,0.0,59.0,59.0,59.0,,,,,,,,,338.05357807292603,None,3.0,16.400846416130662,338.05357807292603,None,338.05357807292603,None,338.05357807292603,None,1,2022_Apr_22_1101,Semantic-hierachy,2021.1.2,
60,Trial # 61,layer0-5_O6_to_O7.jpg,layer0-5/layer0-5_O6_to_O7.jpg,OO,layer0-5,0.0,60.0,60.0,60.0,,,,,,,,,356.54265300906263,None,1.0,2.4240264350082725,356.54265300906263,None,356.54265300906263,None,356.54265300906263,None,1,2022_Apr_22_1101,Semantic-hierachy,2021.1.2,
61,Trial # 62,layer9-17_T5_to_T6.jpg,layer9-17/layer9-17_T5_to_T6.jpg,TT,layer9-17,0.0,61.0,61.0,61.0,,,,,,,,,359.89478627289645,None,3.0,2.083438497968018,359.89478627289645,None,359.89478627289645,None,359.89478627289645,None,1,2022_Apr_22_1101,Semantic-hierachy,2021.1.2,
62,Trial # 63,layer9-17_T4_to_T9.jpg,layer9-17/layer9-17_T4_to_T9.jpg,TT,layer9-17,0.0,62.0,62.0,62.0,,,,,,,,,364.096342748031,None,2.0,1.602139672962949,364.096342748031,None,364.096342748031,None,364.096342748031,None,1,2022_Apr_22_1101,Semantic-hierachy,2021.1.2,
63,Trial # 64,layer0-5_O11_to_T1.jpg,layer0-5/layer0-5_O11_to_T1.jpg,OT,layer0-5,0.0,63.0,63.0,63.0,,,,,,,,,366.0794513949659,None,1.0,1.6716265389695764,366.0794513949659,None,366.0794513949659,None,366.0794513949659,None,1,2022_Apr_22_1101,Semantic-hierachy,2021.1.2,
64,Trial # 65,layer6-8_T5_to_T9.jpg,layer6-8/layer6-8_T5_to_T9.jpg,TT,layer6-8,0.0,64.0,64.0,64.0,,,,,,,,,368.1466452470049,None,3.0,3.3624776089563966,368.1466452470049,None,368.1466452470049,None,368.1466452470049,None,1,2022_Apr_22_1101,Semantic-hierachy,2021.1.2,
65,Trial # 66,layer0-5_T4_to_T7.jpg,layer0-5/layer0-5_T4_to_T7.jpg,TT,layer0-5,0.0,65.0,65.0,65.0,,,,,,,,,372.6149309829343,None,1.0,2.2875691310036927,372.6149309829343,None,372.6149309829343,None,372.6149309829343,None,1,2022_Apr_22_1101,Semantic-hierachy,2021.1.2,
66,Trial # 67,layer0-5_O2_to_O6.jpg,layer0-5/layer0-5_O2_to_O6.jpg,OO,layer0-5,0.0,66.0,66.0,66.0,,,,,,,,,375.79945769393817,None,1.0,1.2089628060348332,375.79945769393817,None,375.79945769393817,None,375.79945769393817,None,1,2022_Apr_22_1101,Semantic-hierachy,2021.1.2,
67,Trial # 68,layer9-17_O12_to_T3.jpg,layer9-17/layer9-17_O12_to_T3.jpg,OT,layer9-17,0.0,67.0,67.0,67.0,,,,,,,,,377.4498859399464,None,2.0,1.4567540159914645,377.4498859399464,None,377.4498859399464,None,377.4498859399464,None,1,2022_Apr_22_1101,Semantic-hierachy,2021.1.2,
68,Trial # 69,layer9-17_O7_to_O9.jpg,layer9-17/layer9-17_O7_to_O9.jpg,OO,layer9-17,0.0,68.0,68.0,68.0,,,,,,,,,379.283446345944,None,3.0,3.774940200848505,379.283446345944,None,379.283446345944,None,379.283446345944,None,1,2022_Apr_22_1101,Semantic-hierachy,2021.1.2,
69,Trial # 70,layer9-17_T1_to_T8.jpg,layer9-17/layer9-17_T1_to_T8.jpg,TT,layer9-17,0.0,69.0,69.0,69.0,,,,,,,,,383.3679788480513,None,3.0,3.236260546837002,383.3679788480513,None,383.3679788480513,None,383.3679788480513,None,1,2022_Apr_22_1101,Semantic-hierachy,2021.1.2,
70,Trial # 71,layer0-5_O3_to_T8.jpg,layer0-5/layer0-5_O3_to_T8.jpg,OT,layer0-5,0.0,70.0,70.0,70.0,,,,,,,,,386.9857502710074,None,1.0,1.611208789050579,386.9857502710074,None,386.9857502710074,None,386.9857502710074,None,1,2022_Apr_22_1101,Semantic-hierachy,2021.1.2,
71,Trial # 72,layer9-17_O9_to_T2.jpg,layer9-17/layer9-17_O9_to_T2.jpg,OT,layer9-17,0.0,71.0,71.0,71.0,,,,,,,,,390.03713612793945,None,3.0,3.773452573921531,390.03713612793945,None,390.03713612793945,None,390.03713612793945,None,1,2022_Apr_22_1101,Semantic-hierachy,2021.1.2,
72,Trial # 73,layer9-17_O5_to_O7.jpg,layer9-17/layer9-17_O5_to_O7.jpg,OO,layer9-17,0.0,72.0,72.0,72.0,,,,,,,,,395.1549797479529,None,2.0,2.574624623870477,395.1549797479529,None,395.1549797479529,None,395.1549797479529,None,1,2022_Apr_22_1101,Semantic-hierachy,2021.1.2,
73,Trial # 74,layer0-5_T11_to_T9.jpg,layer0-5/layer0-5_T11_to_T9.jpg,TT,layer0-5,0.0,73.0,73.0,73.0,,,,,,,,,398.7056813009549,None,1.0,1.6547554931603372,398.7056813009549,None,398.7056813009549,None,398.7056813009549,None,1,2022_Apr_22_1101,Semantic-hierachy,2021.1.2,
74,Trial # 75,layer0-5_O11_to_T12.jpg,layer0-5/layer0-5_O11_to_T12.jpg,OT,layer0-5,0.0,74.0,74.0,74.0,,,,,,,,,400.69024724606425,None,1.0,1.340989583870396,400.69024724606425,None,400.69024724606425,None,400.69024724606425,None,1,2022_Apr_22_1101,Semantic-hierachy,2021.1.2,
75,Trial # 76,layer9-17_T7_to_T9.jpg,layer9-17/layer9-17_T7_to_T9.jpg,TT,layer9-17,0.0,75.0,75.0,75.0,,,,,,,,,402.4236264550127,None,4.0,3.911314048804343,402.4236264550127,None,402.4236264550127,None,402.4236264550127,None,1,2022_Apr_22_1101,Semantic-hierachy,2021.1.2,
76,Trial # 77,layer6-8_O6_to_T2.jpg,layer6-8/layer6-8_O6_to_T2.jpg,OT,layer6-8,0.0,76.0,76.0,76.0,,,,,,,,,407.6422865809873,None,4.0,3.833462884183973,407.6422865809873,None,407.6422865809873,None,407.6422865809873,None,1,2022_Apr_22_1101,Semantic-hierachy,2021.1.2,
77,Trial # 78,layer9-17_T4_to_T5.jpg,layer9-17/layer9-17_T4_to_T5.jpg,TT,layer9-17,0.0,77.0,77.0,77.0,,,,,,,,,412.74343457398936,None,2.0,2.1999443699605763,412.74343457398936,None,412.74343457398936,None,412.74343457398936,None,1,2022_Apr_22_1101,Semantic-hierachy,2021.1.2,
78,Trial # 79,layer0-5_T2_to_T4.jpg,layer0-5/layer0-5_T2_to_T4.jpg,TT,layer0-5,0.0,78.0,78.0,78.0,,,,,,,,,416.04463187791407,None,1.0,1.7914729830808938,416.04463187791407,None,416.04463187791407,None,416.04463187791407,None,1,2022_Apr_22_1101,Semantic-hierachy,2021.1.2,
79,Trial # 80,layer0-5_T2_to_T8.jpg,layer0-5/layer0-5_T2_to_T8.jpg,TT,layer0-5,0.0,79.0,79.0,79.0,,,,,,,,,418.2786684599705,None,1.0,1.5916902360040694,418.2786684599705,None,418.2786684599705,None,418.2786684599705,None,1,2022_Apr_22_1101,Semantic-hierachy,2021.1.2,
80,Trial # 81,layer9-17_T3_to_T9.jpg,layer9-17/layer9-17_T3_to_T9.jpg,TT,layer9-17,0.0,80.0,80.0,80.0,,,,,,,,,420.3965127898846,None,2.0,6.941430254140869,420.3965127898846,None,420.3965127898846,None,420.3965127898846,None,1,2022_Apr_22_1101,Semantic-hierachy,2021.1.2,
81,Trial # 82,layer9-17_O2_to_O5.jpg,layer9-17/layer9-17_O2_to_O5.jpg,OO,layer9-17,0.0,81.0,81.0,81.0,,,,,,,,,427.898120750906,None,2.0,1.7727646050043404,427.898120750906,None,427.898120750906,None,427.898120750906,None,1,2022_Apr_22_1101,Semantic-hierachy,2021.1.2,
82,Trial # 83,layer6-8_O6_to_O7.jpg,layer6-8/layer6-8_O6_to_O7.jpg,OO,layer6-8,0.0,82.0,82.0,82.0,,,,,,,,,430.73307077609934,None,4.0,2.5762012519408017,430.73307077609934,None,430.73307077609934,None,430.73307077609934,None,1,2022_Apr_22_1101,Semantic-hierachy,2021.1.2,
83,Trial # 84,layer9-17_O11_to_T1.jpg,layer9-17/layer9-17_O11_to_T1.jpg,OT,layer9-17,0.0,83.0,83.0,83.0,,,,,,,,,433.6329770490993,None,2.0,1.905930183129385,433.6329770490993,None,433.6329770490993,None,433.6329770490993,None,1,2022_Apr_22_1101,Semantic-hierachy,2021.1.2,
84,Trial # 85,layer6-8_O5_to_T12.jpg,layer6-8/layer6-8_O5_to_T12.jpg,OT,layer6-8,0.0,84.0,84.0,84.0,,,,,,,,,435.8850593171082,None,3.0,2.1423056120984256,435.8850593171082,None,435.8850593171082,None,435.8850593171082,None,1,2022_Apr_22_1101,Semantic-hierachy,2021.1.2,
85,Trial # 86,layer6-8_O4_to_O7.jpg,layer6-8/layer6-8_O4_to_O7.jpg,OO,layer6-8,0.0,85.0,85.0,85.0,,,,,,,,,438.3350219060667,None,4.0,2.4462437629699707,438.3350219060667,None,438.3350219060667,None,438.3350219060667,None,1,2022_Apr_22_1101,Semantic-hierachy,2021.1.2,
86,Trial # 87,layer6-8_T10_to_T8.jpg,layer6-8/layer6-8_T10_to_T8.jpg,TT,layer6-8,0.0,86.0,86.0,86.0,,,,,,,,,441.2529720920138,None,3.0,1.5913699909579009,441.2529720920138,None,441.2529720920138,None,441.2529720920138,None,1,2022_Apr_22_1101,Semantic-hierachy,2021.1.2,
87,Trial # 88,layer6-8_O10_to_T3.jpg,layer6-8/layer6-8_O10_to_T3.jpg,OT,layer6-8,0.0,87.0,87.0,87.0,,,,,,,,,443.2697645169683,None,3.0,2.225108480080962,443.2697645169683,None,443.2697645169683,None,443.2697645169683,None,1,2022_Apr_22_1101,Semantic-hierachy,2021.1.2,
88,Trial # 89,layer6-8_O5_to_O9.jpg,layer6-8/layer6-8_O5_to_O9.jpg,OO,layer6-8,0.0,88.0,88.0,88.0,,,,,,,,,445.8714982219972,None,4.0,2.910083953058347,445.8714982219972,None,445.8714982219972,None,445.8714982219972,None,1,2022_Apr_22_1101,Semantic-hierachy,2021.1.2,
89,Trial # 90,layer6-8_O10_to_O11.jpg,layer6-8/layer6-8_O10_to_O11.jpg,OO,layer6-8,0.0,89.0,89.0,89.0,,,,,,,,,449.1053270460106,None,3.0,1.9979257229715583,449.1053270460106,None,449.1053270460106,None,449.1053270460106,None,1,2022_Apr_22_1101,Semantic-hierachy,2021.1.2,
90,Trial # 91,layer0-5_O4_to_T5.jpg,layer0-5/layer0-5_O4_to_T5.jpg,OT,layer0-5,0.0,90.0,90.0,90.0,,,,,,,,,451.8062161630951,None,1.0,1.9730077260173853,451.8062161630951,None,451.8062161630951,None,451.8062161630951,None,1,2022_Apr_22_1101,Semantic-hierachy,2021.1.2,
91,Trial # 92,layer0-5_T11_to_T12.jpg,layer0-5/layer0-5_T11_to_T12.jpg,TT,layer0-5,0.0,91.0,91.0,91.0,,,,,,,,,454.6568316880148,None,1.0,1.784408045001328,454.6568316880148,None,454.6568316880148,None,454.6568316880148,None,1,2022_Apr_22_1101,Semantic-hierachy,2021.1.2,
92,Trial # 93,layer0-5_T10_to_T3.jpg,layer0-5/layer0-5_T10_to_T3.jpg,TT,layer0-5,0.0,92.0,92.0,92.0,,,,,,,,,456.8069787649438,None,1.0,1.726893473882228,456.8069787649438,None,456.8069787649438,None,456.8069787649438,None,1,2022_Apr_22_1101,Semantic-hierachy,2021.1.2,
93,Trial # 94,layer0-5_O2_to_O8.jpg,layer0-5/layer0-5_O2_to_O8.jpg,OO,layer0-5,0.0,93.0,93.0,93.0,,,,,,,,,458.9077449790202,None,1.0,1.5106395320035515,458.9077449790202,None,458.9077449790202,None,458.9077449790202,None,1,2022_Apr_22_1101,Semantic-hierachy,2021.1.2,
94,Trial # 95,layer0-5_T3_to_T8.jpg,layer0-5/layer0-5_T3_to_T8.jpg,TT,layer0-5,0.0,94.0,94.0,94.0,,,,,,,,,460.8094339740928,None,1.0,2.3057200589682907,460.8094339740928,None,460.8094339740928,None,460.8094339740928,None,1,2022_Apr_22_1101,Semantic-hierachy,2021.1.2,
95,Trial # 96,layer0-5_O7_to_O8.jpg,layer0-5/layer0-5_O7_to_O8.jpg,OO,layer0-5,0.0,95.0,95.0,95.0,,,,,,,,,464.0769298679661,None,1.0,2.4827702108304948,464.0769298679661,None,464.0769298679661,None,464.0769298679661,None,1,2022_Apr_22_1101,Semantic-hierachy,2021.1.2,
96,Trial # 97,layer6-8_T10_to_T6.jpg,layer6-8/layer6-8_T10_to_T6.jpg,TT,layer6-8,0.0,96.0,96.0,96.0,,,,,,,,,466.927170664072,None,2.0,3.2825556229799986,466.927170664072,None,466.927170664072,None,466.927170664072,None,1,2022_Apr_22_1101,Semantic-hierachy,2021.1.2,
97,Trial # 98,layer0-5_O1_to_O5.jpg,layer0-5/layer0-5_O1_to_O5.jpg,OO,layer0-5,0.0,97.0,97.0,97.0,,,,,,,,,470.7291871190537,None,1.0,2.081834197044373,470.7291871190537,None,470.7291871190537,None,470.7291871190537,None,1,2022_Apr_22_1101,Semantic-hierachy,2021.1.2,
98,Trial # 99,layer6-8_O1_to_O6.jpg,layer6-8/layer6-8_O1_to_O6.jpg,OO,layer6-8,0.0,98.0,98.0,98.0,,,,,,,,,474.2803329420276,None,3.0,3.9978471198119214,474.2803329420276,None,474.2803329420276,None,474.2803329420276,None,1,2022_Apr_22_1101,Semantic-hierachy,2021.1.2,
99,Trial # 100,layer6-8_O3_to_T1.jpg,layer6-8/layer6-8_O3_to_T1.jpg,OT,layer6-8,0.0,99.0,99.0,99.0,,,,,,,,,479.98166229808703,None,2.0,2.4392045638524,479.98166229808703,None,479.98166229808703,None,479.98166229808703,None,1,2022_Apr_22_1101,Semantic-hierachy,2021.1.2,
100,Trial # 101,layer6-8_T1_to_T9.jpg,layer6-8/layer6-8_T1_to_T9.jpg,TT,layer6-8,0.0,100.0,100.0,100.0,,,,,,,,,482.831936450908,None,3.0,2.4905013570096344,482.831936450908,None,482.831936450908,None,482.831936450908,None,1,2022_Apr_22_1101,Semantic-hierachy,2021.1.2,
101,Trial # 102,layer9-17_O12_to_O6.jpg,layer9-17/layer9-17_O12_to_O6.jpg,OO,layer9-17,0.0,101.0,101.0,101.0,,,,,,,,,485.7173280159477,None,2.0,2.40763279190287,485.7173280159477,None,485.7173280159477,None,485.7173280159477,None,1,2022_Apr_22_1101,Semantic-hierachy,2021.1.2,
102,Trial # 103,layer0-5_T4_to_T9.jpg,layer0-5/layer0-5_T4_to_T9.jpg,TT,layer0-5,0.0,102.0,102.0,102.0,,,,,,,,,489.0512787750922,None,1.0,1.7615681749302894,489.0512787750922,None,489.0512787750922,None,489.0512787750922,None,1,2022_Apr_22_1101,Semantic-hierachy,2021.1.2,
103,Trial # 104,layer6-8_O10_to_T1.jpg,layer6-8/layer6-8_O10_to_T1.jpg,OT,layer6-8,0.0,103.0,103.0,103.0,,,,,,,,,491.1855119690299,None,3.0,2.336160985054448,491.1855119690299,None,491.1855119690299,None,491.1855119690299,None,1,2022_Apr_22_1101,Semantic-hierachy,2021.1.2,
104,Trial # 105,layer0-5_O6_to_T2.jpg,layer0-5/layer0-5_O6_to_T2.jpg,OT,layer0-5,0.0,104.0,104.0,104.0,,,,,,,,,494.4701381649356,None,1.0,1.8897295619826764,494.4701381649356,None,494.4701381649356,None,494.4701381649356,None,1,2022_Apr_22_1101,Semantic-hierachy,2021.1.2,
105,Trial # 106,layer9-17_T11_to_T2.jpg,layer9-17/layer9-17_T11_to_T2.jpg,TT,layer9-17,0.0,105.0,105.0,105.0,,,,,,,,,496.7196169490926,None,2.0,2.043205928057432,496.7196169490926,None,496.7196169490926,None,496.7196169490926,None,1,2022_Apr_22_1101,Semantic-hierachy,2021.1.2,
106,Trial # 107,layer9-17_O12_to_O8.jpg,layer9-17/layer9-17_O12_to_O8.jpg,OO,layer9-17,0.0,106.0,106.0,106.0,,,,,,,,,499.20416359300725,None,2.0,2.3837431790307164,499.20416359300725,None,499.20416359300725,None,499.20416359300725,None,1,2022_Apr_22_1101,Semantic-hierachy,2021.1.2,
107,Trial # 108,layer0-5_T12_to_T3.jpg,layer0-5/layer0-5_T12_to_T3.jpg,TT,layer0-5,0.0,107.0,107.0,107.0,,,,,,,,,501.9042331569362,None,1.0,5.44700846914202,501.9042331569362,None,501.9042331569362,None,501.9042331569362,None,1,2022_Apr_22_1101,Semantic-hierachy,2021.1.2,
108,Trial # 109,layer0-5_T1_to_T10.jpg,layer0-5/layer0-5_T1_to_T10.jpg,TT,layer0-5,0.0,108.0,108.0,108.0,,,,,,,,,508.5062794680707,None,1.0,2.237637144979089,508.5062794680707,None,508.5062794680707,None,508.5062794680707,None,1,2022_Apr_22_1101,Semantic-hierachy,2021.1.2,
109,Trial # 110,layer6-8_O4_to_T5.jpg,layer6-8/layer6-8_O4_to_T5.jpg,OT,layer6-8,0.0,109.0,109.0,109.0,,,,,,,,,511.0741014799569,None,3.0,3.74165642587468,511.0741014799569,None,511.0741014799569,None,511.0741014799569,None,1,2022_Apr_22_1101,Semantic-hierachy,2021.1.2,
110,Trial # 111,layer9-17_O11_to_O7.jpg,layer9-17/layer9-17_O11_to_O7.jpg,OO,layer9-17,0.0,110.0,110.0,110.0,,,,,,,,,516.009099697927,None,2.0,1.901570348069072,516.009099697927,None,516.009099697927,None,516.009099697927,None,1,2022_Apr_22_1101,Semantic-hierachy,2021.1.2,
111,Trial # 112,layer0-5_O5_to_O8.jpg,layer0-5/layer0-5_O5_to_O8.jpg,OO,layer0-5,0.0,111.0,111.0,111.0,,,,,,,,,519.6603043240029,None,1.0,1.641314819920808,519.6603043240029,None,519.6603043240029,None,519.6603043240029,None,1,2022_Apr_22_1101,Semantic-hierachy,2021.1.2,
112,Trial # 113,layer0-5_O10_to_O4.jpg,layer0-5/layer0-5_O10_to_O4.jpg,OO,layer0-5,0.0,112.0,112.0,112.0,,,,,,,,,521.6937305130996,None,1.0,1.7412371030077338,521.6937305130996,None,521.6937305130996,None,521.6937305130996,None,1,2022_Apr_22_1101,Semantic-hierachy,2021.1.2,
113,Trial # 114,layer9-17_O4_to_O8.jpg,layer9-17/layer9-17_O4_to_O8.jpg,OO,layer9-17,0.0,113.0,113.0,113.0,,,,,,,,,523.8284567890223,None,3.0,9.003551236120984,523.8284567890223,None,523.8284567890223,None,523.8284567890223,None,1,2022_Apr_22_1101,Semantic-hierachy,2021.1.2,
114,Trial # 115,layer0-5_O2_to_T8.jpg,layer0-5/layer0-5_O2_to_T8.jpg,OT,layer0-5,0.0,114.0,114.0,114.0,,,,,,,,,533.6474899579771,None,1.0,3.024936099071056,533.6474899579771,None,533.6474899579771,None,533.6474899579771,None,1,2022_Apr_22_1101,Semantic-hierachy,2021.1.2,
115,Trial # 116,layer9-17_T2_to_T3.jpg,layer9-17/layer9-17_T2_to_T3.jpg,TT,layer9-17,0.0,115.0,115.0,115.0,,,,,,,,,536.9982180830557,None,2.0,2.2407569219358265,536.9982180830557,None,536.9982180830557,None,536.9982180830557,None,1,2022_Apr_22_1101,Semantic-hierachy,2021.1.2,
116,Trial # 117,layer6-8_O1_to_T10.jpg,layer6-8/layer6-8_O1_to_T10.jpg,OT,layer6-8,0.0,116.0,116.0,116.0,,,,,,,,,539.632906448096,None,3.0,2.0282611690927297,539.632906448096,None,539.632906448096,None,539.632906448096,None,1,2022_Apr_22_1101,Semantic-hierachy,2021.1.2,
117,Trial # 118,layer0-5_T3_to_T7.jpg,layer0-5/layer0-5_T3_to_T7.jpg,TT,layer0-5,0.0,117.0,117.0,117.0,,,,,,,,,542.2175818879623,None,1.0,1.9028942859731608,542.2175818879623,None,542.2175818879623,None,542.2175818879623,None,1,2022_Apr_22_1101,Semantic-hierachy,2021.1.2,
118,Trial # 119,layer9-17_O1_to_O12.jpg,layer9-17/layer9-17_O1_to_O12.jpg,OO,layer9-17,0.0,118.0,118.0,118.0,,,,,,,,,544.4181585859042,None,2.0,2.243625898147002,544.4181585859042,None,544.4181585859042,None,544.4181585859042,None,1,2022_Apr_22_1101,Semantic-hierachy,2021.1.2,
119,Trial # 120,layer6-8_O12_to_O2.jpg,layer6-8/layer6-8_O12_to_O2.jpg,OO,layer6-8,0.0,119.0,119.0,119.0,,,,,,,,,547.0191112880129,None,3.0,2.625461956951767,547.0191112880129,None,547.0191112880129,None,547.0191112880129,None,1,2022_Apr_22_1101,Semantic-hierachy,2021.1.2,
120,Trial # 121,layer9-17_O10_to_O9.jpg,layer9-17/layer9-17_O10_to_O9.jpg,OO,layer9-17,0.0,120.0,120.0,120.0,,,,,,,,,550.119722195901,None,2.0,2.058329256018624,550.119722195901,None,550.119722195901,None,550.119722195901,None,1,2022_Apr_22_1101,Semantic-hierachy,2021.1.2,
121,Trial # 122,layer6-8_O4_to_T10.jpg,layer6-8/layer6-8_O4_to_T10.jpg,OT,layer6-8,0.0,121.0,121.0,121.0,,,,,,,,,552.5036868411116,None,3.0,3.984768011141568,552.5036868411116,None,552.5036868411116,None,552.5036868411116,None,1,2022_Apr_22_1101,Semantic-hierachy,2021.1.2,
122,Trial # 123,layer6-8_O2_to_T3.jpg,layer6-8/layer6-8_O2_to_T3.jpg,OT,layer6-8,0.0,122.0,122.0,122.0,,,,,,,,,556.854567124974,None,3.0,2.0053593390621245,556.854567124974,None,556.854567124974,None,556.854567124974,None,1,2022_Apr_22_1101,Semantic-hierachy,2021.1.2,
123,Trial # 124,layer0-5_O1_to_O7.jpg,layer0-5/layer0-5_O1_to_O7.jpg,OO,layer0-5,0.0,123.0,123.0,123.0,,,,,,,,,559.2565360169392,None,1.0,1.8583871589507908,559.2565360169392,None,559.2565360169392,None,559.2565360169392,None,1,2022_Apr_22_1101,Semantic-hierachy,2021.1.2,
124,Trial # 125,layer0-5_T8_to_T9.jpg,layer0-5/layer0-5_T8_to_T9.jpg,TT,layer0-5,0.0,124.0,124.0,124.0,,,,,,,,,561.422825061949,None,1.0,3.20879628486,561.422825061949,None,561.422825061949,None,561.422825061949,None,1,2022_Apr_22_1101,Semantic-hierachy,2021.1.2,
125,Trial # 126,layer0-5_O12_to_T8.jpg,layer0-5/layer0-5_O12_to_T8.jpg,OT,layer0-5,0.0,125.0,125.0,125.0,,,,,,,,,564.9249227698892,None,1.0,1.5594437569379809,564.9249227698892,None,564.9249227698892,None,564.9249227698892,None,1,2022_Apr_22_1101,Semantic-hierachy,2021.1.2,
126,Trial # 127,layer9-17_O4_to_O6.jpg,layer9-17/layer9-17_O4_to_O6.jpg,OO,layer9-17,0.0,126.0,126.0,126.0,,,,,,,,,566.8076839339919,None,3.0,3.40734595595859,566.8076839339919,None,566.8076839339919,None,566.8076839339919,None,1,2022_Apr_22_1101,Semantic-hierachy,2021.1.2,
127,Trial # 128,layer6-8_O12_to_O6.jpg,layer6-8/layer6-8_O12_to_O6.jpg,OO,layer6-8,0.0,127.0,127.0,127.0,,,,,,,,,570.5095071659889,None,3.0,5.075031008105725,570.5095071659889,None,570.5095071659889,None,570.5095071659889,None,1,2022_Apr_22_1101,Semantic-hierachy,2021.1.2,
128,Trial # 129,layer0-5_T4_to_T6.jpg,layer0-5/layer0-5_T4_to_T6.jpg,TT,layer0-5,0.0,128.0,128.0,128.0,,,,,,,,,576.994430703111,None,1.0,2.136691100895405,576.994430703111,None,576.994430703111,None,576.994430703111,None,1,2022_Apr_22_1101,Semantic-hierachy,2021.1.2,
129,Trial # 130,layer9-17_O1_to_O3.jpg,layer9-17/layer9-17_O1_to_O3.jpg,OO,layer9-17,0.0,129.0,129.0,129.0,,,,,,,,,579.4794191610999,None,2.0,1.6032820160035044,579.4794191610999,None,579.4794191610999,None,579.4794191610999,None,1,2022_Apr_22_1101,Semantic-hierachy,2021.1.2,
130,Trial # 131,layer9-17_O10_to_O3.jpg,layer9-17/layer9-17_O10_to_O3.jpg,OO,layer9-17,0.0,130.0,130.0,130.0,,,,,,,,,581.3795461771078,None,2.0,1.093672662973404,581.3795461771078,None,581.3795461771078,None,581.3795461771078,None,1,2022_Apr_22_1101,Semantic-hierachy,2021.1.2,
131,Trial # 132,layer9-17_O12_to_O3.jpg,layer9-17/layer9-17_O12_to_O3.jpg,OO,layer9-17,0.0,131.0,131.0,131.0,,,,,,,,,582.7791198110208,None,2.0,0.9761333749629556,582.7791198110208,None,582.7791198110208,None,582.7791198110208,None,1,2022_Apr_22_1101,Semantic-hierachy,2021.1.2,
132,Trial # 133,layer9-17_O11_to_O4.jpg,layer9-17/layer9-17_O11_to_O4.jpg,OO,layer9-17,0.0,132.0,132.0,132.0,,,,,,,,,584.5314366579987,None,3.0,5.217262661084533,584.5314366579987,None,584.5314366579987,None,584.5314366579987,None,1,2022_Apr_22_1101,Semantic-hierachy,2021.1.2,
133,Trial # 134,layer9-17_T4_to_T7.jpg,layer9-17/layer9-17_T4_to_T7.jpg,TT,layer9-17,0.0,133.0,133.0,133.0,,,,,,,,,590.0326624559239,None,2.0,1.990873235045001,590.0326624559239,None,590.0326624559239,None,590.0326624559239,None,1,2022_Apr_22_1101,Semantic-hierachy,2021.1.2,
134,Trial # 135,layer9-17_O1_to_T1.jpg,layer9-17/layer9-17_O1_to_T1.jpg,OT,layer9-17,0.0,134.0,134.0,134.0,,,,,,,,,593.2655278909951,None,2.0,2.2333290800452232,593.2655278909951,None,593.2655278909951,None,593.2655278909951,None,1,2022_Apr_22_1101,Semantic-hierachy,2021.1.2,
135,Trial # 136,layer6-8_T2_to_T5.jpg,layer6-8/layer6-8_T2_to_T5.jpg,TT,layer6-8,0.0,135.0,135.0,135.0,,,,,,,,,595.7837158550974,None,3.0,4.781573999207467,595.7837158550974,None,595.7837158550974,None,595.7837158550974,None,1,2022_Apr_22_1101,Semantic-hierachy,2021.1.2,
136,Trial # 137,layer9-17_T11_to_T7.jpg,layer9-17/layer9-17_T11_to_T7.jpg,TT,layer9-17,0.0,136.0,136.0,136.0,,,,,,,,,600.836093259044,None,2.0,1.4414016369264573,600.836093259044,None,600.836093259044,None,600.836093259044,None,1,2022_Apr_22_1101,Semantic-hierachy,2021.1.2,
137,Trial # 138,layer6-8_O3_to_O8.jpg,layer6-8/layer6-8_O3_to_O8.jpg,OO,layer6-8,0.0,137.0,137.0,137.0,,,,,,,,,602.5190776430536,None,2.0,1.990475837141276,602.5190776430536,None,602.5190776430536,None,602.5190776430536,None,1,2022_Apr_22_1101,Semantic-hierachy,2021.1.2,
138,Trial # 139,layer6-8_O1_to_T7.jpg,layer6-8/layer6-8_O1_to_T7.jpg,OT,layer6-8,0.0,138.0,138.0,138.0,,,,,,,,,604.7376262999605,None,3.0,2.363269821042195,604.7376262999605,None,604.7376262999605,None,604.7376262999605,None,1,2022_Apr_22_1101,Semantic-hierachy,2021.1.2,
139,Trial # 140,layer9-17_T1_to_T3.jpg,layer9-17/layer9-17_T1_to_T3.jpg,TT,layer9-17,0.0,139.0,139.0,139.0,,,,,,,,,607.3535329159349,None,3.0,1.872525937855244,607.3535329159349,None,607.3535329159349,None,607.3535329159349,None,1,2022_Apr_22_1101,Semantic-hierachy,2021.1.2,
140,Trial # 141,layer6-8_O10_to_O12.jpg,layer6-8/layer6-8_O10_to_O12.jpg,OO,layer6-8,0.0,140.0,140.0,140.0,,,,,,,,,609.5048779440112,None,3.0,1.6103560260962697,609.5048779440112,None,609.5048779440112,None,609.5048779440112,None,1,2022_Apr_22_1101,Semantic-hierachy,2021.1.2,
141,Trial # 142,layer6-8_O12_to_T11.jpg,layer6-8/layer6-8_O12_to_T11.jpg,OT,layer6-8,0.0,141.0,141.0,141.0,,,,,,,,,613.9395643400494,None,2.0,7.366444990038872,613.9395643400494,None,613.9395643400494,None,613.9395643400494,None,1,2022_Apr_22_1101,Semantic-hierachy,2021.1.2,
142,Trial # 143,layer0-5_O11_to_O5.jpg,layer0-5/layer0-5_O11_to_O5.jpg,OO,layer0-5,0.0,142.0,142.0,142.0,,,,,,,,,622.7089624931104,None,1.0,2.1452479690779,622.7089624931104,None,622.7089624931104,None,622.7089624931104,None,1,2022_Apr_22_1101,Semantic-hierachy,2021.1.2,
143,Trial # 144,layer6-8_O1_to_O8.jpg,layer6-8/layer6-8_O1_to_O8.jpg,OO,layer6-8,0.0,143.0,143.0,143.0,,,,,,,,,625.1771759390831,None,2.0,2.432041781954468,625.1771759390831,None,625.1771759390831,None,625.1771759390831,None,1,2022_Apr_22_1101,Semantic-hierachy,2021.1.2,
144,Trial # 145,layer0-5_T2_to_T5.jpg,layer0-5/layer0-5_T2_to_T5.jpg,TT,layer0-5,0.0,144.0,144.0,144.0,,,,,,,,,627.9938098879065,None,1.0,2.044494962086901,627.9938098879065,None,627.9938098879065,None,627.9938098879065,None,1,2022_Apr_22_1101,Semantic-hierachy,2021.1.2,
145,Trial # 146,layer9-17_O8_to_T3.jpg,layer9-17/layer9-17_O8_to_T3.jpg,OT,layer9-17,0.0,145.0,145.0,145.0,,,,,,,,,631.0950931669213,None,2.0,1.4580468209460378,631.0950931669213,None,631.0950931669213,None,631.0950931669213,None,1,2022_Apr_22_1101,Semantic-hierachy,2021.1.2,
146,Trial # 147,layer9-17_O8_to_T4.jpg,layer9-17/layer9-17_O8_to_T4.jpg,OT,layer9-17,0.0,146.0,146.0,146.0,,,,,,,,,632.9284002950881,None,3.0,2.0088210930116475,632.9284002950881,None,632.9284002950881,None,632.9284002950881,None,1,2022_Apr_22_1101,Semantic-hierachy,2021.1.2,
147,Trial # 148,layer9-17_O4_to_T9.jpg,layer9-17/layer9-17_O4_to_T9.jpg,OT,layer9-17,0.0,147.0,147.0,147.0,,,,,,,,,635.2791810629424,None,2.0,2.139812848996371,635.2791810629424,None,635.2791810629424,None,635.2791810629424,None,1,2022_Apr_22_1101,Semantic-hierachy,2021.1.2,
148,Trial # 149,layer6-8_O4_to_O8.jpg,layer6-8/layer6-8_O4_to_O8.jpg,OO,layer6-8,0.0,148.0,148.0,148.0,,,,,,,,,637.9962997389957,None,2.0,7.025661011924967,637.9962997389957,None,637.9962997389957,None,637.9962997389957,None,1,2022_Apr_22_1101,Semantic-hierachy,2021.1.2,
149,Trial # 150,layer0-5_O12_to_T7.jpg,layer0-5/layer0-5_O12_to_T7.jpg,OT,layer0-5,0.0,149.0,149.0,149.0,,,,,,,,,645.3820477998815,None,1.0,1.831179921049625,645.3820477998815,None,645.3820477998815,None,645.3820477998815,None,1,2022_Apr_22_1101,Semantic-hierachy,2021.1.2,
150,Trial # 151,layer6-8_T1_to_T3.jpg,layer6-8/layer6-8_T1_to_T3.jpg,TT,layer6-8,,,,,0.0,0.0,0.0,0.0,,,,,651.067906905897,None,3.0,2.019470944069326,651.067906905897,None,651.067906905897,None,651.067906905897,None,1,2022_Apr_22_1101,Semantic-hierachy,2021.1.2,
151,Trial # 152,layer0-5_O8_to_O9.jpg,layer0-5/layer0-5_O8_to_O9.jpg,OO,layer0-5,,,,,0.0,1.0,1.0,1.0,,,,,653.4684178410098,None,1.0,4.849626219132915,653.4684178410098,None,653.4684178410098,None,653.4684178410098,None,1,2022_Apr_22_1101,Semantic-hierachy,2021.1.2,
152,Trial # 153,layer9-17_T1_to_T5.jpg,layer9-17/layer9-17_T1_to_T5.jpg,TT,layer9-17,,,,,0.0,2.0,2.0,2.0,,,,,658.6856313140597,None,2.0,1.5183146549388766,658.6856313140597,None,658.6856313140597,None,658.6856313140597,None,1,2022_Apr_22_1101,Semantic-hierachy,2021.1.2,
153,Trial # 154,layer6-8_T7_to_T9.jpg,layer6-8/layer6-8_T7_to_T9.jpg,TT,layer6-8,,,,,0.0,3.0,3.0,3.0,,,,,660.5209596098866,None,3.0,2.1517061481717974,660.5209596098866,None,660.5209596098866,None,660.5209596098866,None,1,2022_Apr_22_1101,Semantic-hierachy,2021.1.2,
154,Trial # 155,layer9-17_T12_to_T7.jpg,layer9-17/layer9-17_T12_to_T7.jpg,TT,layer9-17,,,,,0.0,4.0,4.0,4.0,,,,,662.9385102929082,None,2.0,2.165594410849735,662.9385102929082,None,662.9385102929082,None,662.9385102929082,None,1,2022_Apr_22_1101,Semantic-hierachy,2021.1.2,
155,Trial # 156,layer0-5_O8_to_T11.jpg,layer0-5/layer0-5_O8_to_T11.jpg,OT,layer0-5,,,,,0.0,5.0,5.0,5.0,,,,,665.4894212090876,None,1.0,1.44032622105442,665.4894212090876,None,665.4894212090876,None,665.4894212090876,None,1,2022_Apr_22_1101,Semantic-hierachy,2021.1.2,
156,Trial # 157,layer0-5_O1_to_O9.jpg,layer0-5/layer0-5_O1_to_O9.jpg,OO,layer0-5,,,,,0.0,6.0,6.0,6.0,,,,,667.321983023081,None,1.0,1.900864914059639,667.321983023081,None,667.321983023081,None,667.321983023081,None,1,2022_Apr_22_1101,Semantic-hierachy,2021.1.2,
157,Trial # 158,layer0-5_O10_to_O12.jpg,layer0-5/layer0-5_O10_to_O12.jpg,OO,layer0-5,,,,,0.0,7.0,7.0,7.0,,,,,670.057155109942,None,1.0,1.331255246186629,670.057155109942,None,670.057155109942,None,670.057155109942,None,1,2022_Apr_22_1101,Semantic-hierachy,2021.1.2,
158,Trial # 159,layer6-8_O10_to_T5.jpg,layer6-8/layer6-8_O10_to_T5.jpg,OT,layer6-8,,,,,0.0,8.0,8.0,8.0,,,,,671.8240214108955,None,3.0,2.261264255968854,671.8240214108955,None,671.8240214108955,None,671.8240214108955,None,1,2022_Apr_22_1101,Semantic-hierachy,2021.1.2,
159,Trial # 160,layer6-8_O5_to_O6.jpg,layer6-8/layer6-8_O5_to_O6.jpg,OO,layer6-8,,,,,0.0,9.0,9.0,9.0,,,,,674.4588432989549,None,4.0,4.39275339897722,674.4588432989549,None,674.4588432989549,None,674.4588432989549,None,1,2022_Apr_22_1101,Semantic-hierachy,2021.1.2,
160,Trial # 161,layer6-8_O6_to_T11.jpg,layer6-8/layer6-8_O6_to_T11.jpg,OT,layer6-8,,,,,0.0,10.0,10.0,10.0,,,,,683.7609761089552,None,2.0,3.0637008789926767,683.7609761089552,None,683.7609761089552,None,683.7609761089552,None,1,2022_Apr_22_1101,Semantic-hierachy,2021.1.2,
161,Trial # 162,layer9-17_O12_to_O9.jpg,layer9-17/layer9-17_O12_to_O9.jpg,OO,layer9-17,,,,,0.0,11.0,11.0,11.0,,,,,687.5956459511071,None,2.0,1.290691092144698,687.5956459511071,None,687.5956459511071,None,687.5956459511071,None,1,2022_Apr_22_1101,Semantic-hierachy,2021.1.2,
162,Trial # 163,layer6-8_O12_to_T6.jpg,layer6-8/layer6-8_O12_to_T6.jpg,OT,layer6-8,,,,,0.0,12.0,12.0,12.0,,,,,689.2965943489689,None,3.0,1.7885130147915334,689.2965943489689,None,689.2965943489689,None,689.2965943489689,None,1,2022_Apr_22_1101,Semantic-hierachy,2021.1.2,
163,Trial # 164,layer0-5_T11_to_T7.jpg,layer0-5/layer0-5_T11_to_T7.jpg,TT,layer0-5,,,,,0.0,13.0,13.0,13.0,,,,,691.4793950919993,None,1.0,2.740304569946602,691.4793950919993,None,691.4793950919993,None,691.4793950919993,None,1,2022_Apr_22_1101,Semantic-hierachy,2021.1.2,
164,Trial # 165,layer9-17_O10_to_T5.jpg,layer9-17/layer9-17_O10_to_T5.jpg,OT,layer9-17,,,,,0.0,14.0,14.0,14.0,,,,,694.5648919409141,None,3.0,7.478002747986466,694.5648919409141,None,694.5648919409141,None,694.5648919409141,None,1,2022_Apr_22_1101,Semantic-hierachy,2021.1.2,
165,Trial # 166,layer9-17_T1_to_T6.jpg,layer9-17/layer9-17_T1_to_T6.jpg,TT,layer9-17,,,,,0.0,15.0,15.0,15.0,,,,,702.4832202498801,None,2.0,1.3721820919308811,702.4832202498801,None,702.4832202498801,None,702.4832202498801,None,1,2022_Apr_22_1101,Semantic-hierachy,2021.1.2,
166,Trial # 167,layer0-5_T1_to_T3.jpg,layer0-5/layer0-5_T1_to_T3.jpg,TT,layer0-5,,,,,0.0,16.0,16.0,16.0,,,,,704.1349355929997,None,1.0,2.489085661014542,704.1349355929997,None,704.1349355929997,None,704.1349355929997,None,1,2022_Apr_22_1101,Semantic-hierachy,2021.1.2,
167,Trial # 168,layer0-5_O2_to_O9.jpg,layer0-5/layer0-5_O2_to_O9.jpg,OO,layer0-5,,,,,0.0,17.0,17.0,17.0,,,,,707.0175925279036,None,1.0,1.2725087730214,707.0175925279036,None,707.0175925279036,None,707.0175925279036,None,1,2022_Apr_22_1101,Semantic-hierachy,2021.1.2,
168,Trial # 169,layer9-17_O3_to_T4.jpg,layer9-17/layer9-17_O3_to_T4.jpg,OT,layer9-17,,,,,0.0,18.0,18.0,18.0,,,,,708.6350805719849,None,2.0,1.4084204300306735,708.6350805719849,None,708.6350805719849,None,708.6350805719849,None,1,2022_Apr_22_1101,Semantic-hierachy,2021.1.2,
169,Trial # 170,layer6-8_O11_to_O9.jpg,layer6-8/layer6-8_O11_to_O9.jpg,OO,layer6-8,,,,,0.0,19.0,19.0,19.0,,,,,710.3532345530111,None,3.0,2.878674943000078,710.3532345530111,None,710.3532345530111,None,710.3532345530111,None,1,2022_Apr_22_1101,Semantic-hierachy,2021.1.2,
170,Trial # 171,layer9-17_O1_to_O7.jpg,layer9-17/layer9-17_O1_to_O7.jpg,OO,layer9-17,,,,,0.0,20.0,20.0,20.0,,,,,714.3377207010053,None,4.0,6.312636055983603,714.3377207010053,None,714.3377207010053,None,714.3377207010053,None,1,2022_Apr_22_1101,Semantic-hierachy,2021.1.2,
171,Trial # 172,layer0-5_T12_to_T4.jpg,layer0-5/layer0-5_T12_to_T4.jpg,TT,layer0-5,,,,,0.0,21.0,21.0,21.0,,,,,720.9720614610706,None,1.0,2.1263138689100742,720.9720614610706,None,720.9720614610706,None,720.9720614610706,None,1,2022_Apr_22_1101,Semantic-hierachy,2021.1.2,
172,Trial # 173,layer0-5_O4_to_T4.jpg,layer0-5/layer0-5_O4_to_T4.jpg,OT,layer0-5,,,,,0.0,22.0,22.0,22.0,,,,,723.4895507409237,None,1.0,1.6905221790075302,723.4895507409237,None,723.4895507409237,None,723.4895507409237,None,1,2022_Apr_22_1101,Semantic-hierachy,2021.1.2,
173,Trial # 174,layer6-8_T12_to_T5.jpg,layer6-8/layer6-8_T12_to_T5.jpg,TT,layer6-8,,,,,0.0,23.0,23.0,23.0,,,,,725.5407774769701,None,3.0,13.846163641894236,725.5407774769701,None,725.5407774769701,None,725.5407774769701,None,1,2022_Apr_22_1101,Semantic-hierachy,2021.1.2,
174,Trial # 175,layer6-8_O11_to_T1.jpg,layer6-8/layer6-8_O11_to_T1.jpg,OT,layer6-8,,,,,0.0,24.0,24.0,24.0,,,,,744.9976026068907,None,3.0,1.9413548121228807,744.9976026068907,None,744.9976026068907,None,744.9976026068907,None,1,2022_Apr_22_1101,Semantic-hierachy,2021.1.2,
175,Trial # 176,layer0-5_O7_to_T8.jpg,layer0-5/layer0-5_O7_to_T8.jpg,OT,layer0-5,,,,,0.0,25.0,25.0,25.0,,,,,749.5813977338839,None,1.0,1.6078950059600174,749.5813977338839,None,749.5813977338839,None,749.5813977338839,None,1,2022_Apr_22_1101,Semantic-hierachy,2021.1.2,
176,Trial # 177,layer0-5_O11_to_T5.jpg,layer0-5/layer0-5_O11_to_T5.jpg,OT,layer0-5,,,,,0.0,26.0,26.0,26.0,,,,,751.4813991030678,None,1.0,1.007009725086391,751.4813991030678,None,751.4813991030678,None,751.4813991030678,None,1,2022_Apr_22_1101,Semantic-hierachy,2021.1.2,
177,Trial # 178,layer9-17_O2_to_T2.jpg,layer9-17/layer9-17_O2_to_T2.jpg,OT,layer9-17,,,,,0.0,27.0,27.0,27.0,,,,,752.6821428760886,None,4.0,2.9927437407895923,752.6821428760886,None,752.6821428760886,None,752.6821428760886,None,1,2022_Apr_22_1101,Semantic-hierachy,2021.1.2,
178,Trial # 179,layer0-5_O4_to_T9.jpg,layer0-5/layer0-5_O4_to_T9.jpg,OT,layer0-5,,,,,0.0,28.0,28.0,28.0,,,,,756.1003916019108,None,1.0,1.781392042990774,756.1003916019108,None,756.1003916019108,None,756.1003916019108,None,1,2022_Apr_22_1101,Semantic-hierachy,2021.1.2,
179,Trial # 180,layer9-17_T6_to_T8.jpg,layer9-17/layer9-17_T6_to_T8.jpg,TT,layer9-17,,,,,0.0,29.0,29.0,29.0,,,,,758.1673177410848,None,2.0,1.8091505030170083,758.1673177410848,None,758.1673177410848,None,758.1673177410848,None,1,2022_Apr_22_1101,Semantic-hierachy,2021.1.2,
180,Trial # 181,layer9-17_O12_to_O5.jpg,layer9-17/layer9-17_O12_to_O5.jpg,OO,layer9-17,,,,,0.0,30.0,30.0,30.0,,,,,760.31836999394,None,2.0,1.291907228063792,760.31836999394,None,760.31836999394,None,760.31836999394,None,1,2022_Apr_22_1101,Semantic-hierachy,2021.1.2,
181,Trial # 182,layer6-8_O1_to_O7.jpg,layer6-8/layer6-8_O1_to_O7.jpg,OO,layer6-8,,,,,0.0,31.0,31.0,31.0,,,,,761.8356290538795,None,4.0,2.165153724141419,761.8356290538795,None,761.8356290538795,None,761.8356290538795,None,1,2022_Apr_22_1101,Semantic-hierachy,2021.1.2,
182,Trial # 183,layer6-8_O3_to_T10.jpg,layer6-8/layer6-8_O3_to_T10.jpg,OT,layer6-8,,,,,0.0,32.0,32.0,32.0,,,,,764.4857340538874,None,2.0,1.5387830680701882,764.4857340538874,None,764.4857340538874,None,764.4857340538874,None,1,2022_Apr_22_1101,Semantic-hierachy,2021.1.2,
183,Trial # 184,layer0-5_O1_to_T11.jpg,layer0-5/layer0-5_O1_to_T11.jpg,OT,layer0-5,,,,,0.0,33.0,33.0,33.0,,,,,768.1697183221113,None,1.0,1.7966954519506544,768.1697183221113,None,768.1697183221113,None,768.1697183221113,None,1,2022_Apr_22_1101,Semantic-hierachy,2021.1.2,
184,Trial # 185,layer6-8_O8_to_O9.jpg,layer6-8/layer6-8_O8_to_O9.jpg,OO,layer6-8,,,,,0.0,34.0,34.0,34.0,,,,,770.3542632660829,None,2.0,2.995902500115335,770.3542632660829,None,770.3542632660829,None,770.3542632660829,None,1,2022_Apr_22_1101,Semantic-hierachy,2021.1.2,
185,Trial # 186,layer9-17_O4_to_O9.jpg,layer9-17/layer9-17_O4_to_O9.jpg,OO,layer9-17,,,,,0.0,35.0,35.0,35.0,,,,,773.6881353741046,None,2.0,2.756243725074455,773.6881353741046,None,773.6881353741046,None,773.6881353741046,None,1,2022_Apr_22_1101,Semantic-hierachy,2021.1.2,
186,Trial # 187,layer0-5_O12_to_O5.jpg,layer0-5/layer0-5_O12_to_O5.jpg,OO,layer0-5,,,,,0.0,36.0,36.0,36.0,,,,,776.8561357678846,None,1.0,1.959404421970248,776.8561357678846,None,776.8561357678846,None,776.8561357678846,None,1,2022_Apr_22_1101,Semantic-hierachy,2021.1.2,
187,Trial # 188,layer6-8_T12_to_T4.jpg,layer6-8/layer6-8_T12_to_T4.jpg,TT,layer6-8,,,,,0.0,37.0,37.0,37.0,,,,,779.2083189559635,None,2.0,6.259227870032191,779.2083189559635,None,779.2083189559635,None,779.2083189559635,None,1,2022_Apr_22_1101,Semantic-hierachy,2021.1.2,
188,Trial # 189,layer0-5_T6_to_T8.jpg,layer0-5/layer0-5_T6_to_T8.jpg,TT,layer0-5,,,,,0.0,38.0,38.0,38.0,,,,,786.1092625900637,None,1.0,1.7622366989962757,786.1092625900637,None,786.1092625900637,None,786.1092625900637,None,1,2022_Apr_22_1101,Semantic-hierachy,2021.1.2,
189,Trial # 190,layer6-8_O11_to_T2.jpg,layer6-8/layer6-8_O11_to_T2.jpg,OT,layer6-8,,,,,0.0,39.0,39.0,39.0,,,,,788.192436248064,None,3.0,2.0598116850014776,788.192436248064,None,788.192436248064,None,788.192436248064,None,1,2022_Apr_22_1101,Semantic-hierachy,2021.1.2,
190,Trial # 191,layer6-8_O1_to_O3.jpg,layer6-8/layer6-8_O1_to_O3.jpg,OO,layer6-8,,,,,0.0,40.0,40.0,40.0,,,,,790.6112267540302,None,4.0,3.5773084750399,790.6112267540302,None,790.6112267540302,None,790.6112267540302,None,1,2022_Apr_22_1101,Semantic-hierachy,2021.1.2,
191,Trial # 192,layer0-5_O7_to_T1.jpg,layer0-5/layer0-5_O7_to_T1.jpg,OT,layer0-5,,,,,0.0,41.0,41.0,41.0,,,,,794.4293692999054,None,1.0,2.2941164860967547,794.4293692999054,None,794.4293692999054,None,794.4293692999054,None,1,2022_Apr_22_1101,Semantic-hierachy,2021.1.2,
192,Trial # 193,layer6-8_O3_to_T7.jpg,layer6-8/layer6-8_O3_to_T7.jpg,OT,layer6-8,,,,,0.0,42.0,42.0,42.0,,,,,796.9788735639304,None,2.0,6.361708116019145,796.9788735639304,None,796.9788735639304,None,796.9788735639304,None,1,2022_Apr_22_1101,Semantic-hierachy,2021.1.2,
193,Trial # 194,layer9-17_T10_to_T6.jpg,layer9-17/layer9-17_T10_to_T6.jpg,TT,layer9-17,,,,,0.0,43.0,43.0,43.0,,,,,803.6471504240762,None,2.0,1.565301395021379,803.6471504240762,None,803.6471504240762,None,803.6471504240762,None,1,2022_Apr_22_1101,Semantic-hierachy,2021.1.2,
194,Trial # 195,layer6-8_T2_to_T9.jpg,layer6-8/layer6-8_T2_to_T9.jpg,TT,layer6-8,,,,,0.0,44.0,44.0,44.0,,,,,805.516071123071,None,4.0,2.492863410850987,805.516071123071,None,805.516071123071,None,805.516071123071,None,1,2022_Apr_22_1101,Semantic-hierachy,2021.1.2,
195,Trial # 196,layer0-5_O3_to_T3.jpg,layer0-5/layer0-5_O3_to_T3.jpg,OT,layer0-5,,,,,0.0,45.0,45.0,45.0,,,,,808.432615040103,None,1.0,2.160706274909898,808.432615040103,None,808.432615040103,None,808.432615040103,None,1,2022_Apr_22_1101,Semantic-hierachy,2021.1.2,
196,Trial # 197,layer9-17_O1_to_O2.jpg,layer9-17/layer9-17_O1_to_O2.jpg,OO,layer9-17,,,,,0.0,46.0,46.0,46.0,,,,,810.9010901609436,None,4.0,4.894536793930456,810.9010901609436,None,810.9010901609436,None,810.9010901609436,None,1,2022_Apr_22_1101,Semantic-hierachy,2021.1.2,
197,Trial # 198,layer9-17_T2_to_T9.jpg,layer9-17/layer9-17_T2_to_T9.jpg,TT,layer9-17,,,,,0.0,47.0,47.0,47.0,,,,,817.4357535890304,None,2.0,1.555719651049003,817.4357535890304,None,817.4357535890304,None,817.4357535890304,None,1,2022_Apr_22_1101,Semantic-hierachy,2021.1.2,
198,Trial # 199,layer9-17_O6_to_T10.jpg,layer9-17/layer9-17_O6_to_T10.jpg,OT,layer9-17,,,,,0.0,48.0,48.0,48.0,,,,,819.8031287449412,None,2.0,1.3558687798213214,819.8031287449412,None,819.8031287449412,None,819.8031287449412,None,1,2022_Apr_22_1101,Semantic-hierachy,2021.1.2,
199,Trial # 200,layer0-5_T12_to_T5.jpg,layer0-5/layer0-5_T12_to_T5.jpg,TT,layer0-5,,,,,0.0,49.0,49.0,49.0,,,,,822.0196629068814,None,1.0,1.7737996401265264,822.0196629068814,None,822.0196629068814,None,822.0196629068814,None,1,2022_Apr_22_1101,Semantic-hierachy,2021.1.2,
200,Trial # 201,layer0-5_O10_to_T10.jpg,layer0-5/layer0-5_O10_to_T10.jpg,OT,layer0-5,,,,,0.0,50.0,50.0,50.0,,,,,824.1544483539183,None,1.0,3.592564422171563,824.1544483539183,None,824.1544483539183,None,824.1544483539183,None,1,2022_Apr_22_1101,Semantic-hierachy,2021.1.2,
201,Trial # 202,layer9-17_T11_to_T12.jpg,layer9-17/layer9-17_T11_to_T12.jpg,TT,layer9-17,,,,,0.0,51.0,51.0,51.0,,,,,828.1551395109855,None,2.0,1.4560759351588786,828.1551395109855,None,828.1551395109855,None,828.1551395109855,None,1,2022_Apr_22_1101,Semantic-hierachy,2021.1.2,
202,Trial # 203,layer6-8_T3_to_T5.jpg,layer6-8/layer6-8_T3_to_T5.jpg,TT,layer6-8,,,,,0.0,52.0,52.0,52.0,,,,,829.8894331189804,None,3.0,2.192127755144611,829.8894331189804,None,829.8894331189804,None,829.8894331189804,None,1,2022_Apr_22_1101,Semantic-hierachy,2021.1.2,
203,Trial # 204,layer0-5_O5_to_T10.jpg,layer0-5/layer0-5_O5_to_T10.jpg,OT,layer0-5,,,,,0.0,53.0,53.0,53.0,,,,,833.1233078478836,None,1.0,3.685461161891,833.1233078478836,None,833.1233078478836,None,833.1233078478836,None,1,2022_Apr_22_1101,Semantic-hierachy,2021.1.2,
204,Trial # 205,layer0-5_O10_to_O5.jpg,layer0-5/layer0-5_O10_to_O5.jpg,OO,layer0-5,,,,,0.0,54.0,54.0,54.0,,,,,837.1921139559709,None,1.0,1.2852599679026753,837.1921139559709,None,837.1921139559709,None,837.1921139559709,None,1,2022_Apr_22_1101,Semantic-hierachy,2021.1.2,
205,Trial # 206,layer0-5_O5_to_O7.jpg,layer0-5/layer0-5_O5_to_O7.jpg,OO,layer0-5,,,,,0.0,55.0,55.0,55.0,,,,,839.6258119740523,None,1.0,1.03990845894441,839.6258119740523,None,839.6258119740523,None,839.6258119740523,None,1,2022_Apr_22_1101,Semantic-hierachy,2021.1.2,
206,Trial # 207,layer0-5_O3_to_T10.jpg,layer0-5/layer0-5_O3_to_T10.jpg,OT,layer0-5,,,,,0.0,56.0,56.0,56.0,,,,,840.9935384269338,None,1.0,1.123516510007903,840.9935384269338,None,840.9935384269338,None,840.9935384269338,None,1,2022_Apr_22_1101,Semantic-hierachy,2021.1.2,
207,Trial # 208,layer0-5_O4_to_O5.jpg,layer0-5/layer0-5_O4_to_O5.jpg,OO,layer0-5,,,,,0.0,57.0,57.0,57.0,,,,,842.4096851570066,None,1.0,1.4210261499974877,842.4096851570066,None,842.4096851570066,None,842.4096851570066,None,1,2022_Apr_22_1101,Semantic-hierachy,2021.1.2,
208,Trial # 209,layer6-8_T12_to_T3.jpg,layer6-8/layer6-8_T12_to_T3.jpg,TT,layer6-8,,,,,0.0,58.0,58.0,58.0,,,,,844.1278403399047,None,3.0,2.545727838994935,844.1278403399047,None,844.1278403399047,None,844.1278403399047,None,1,2022_Apr_22_1101,Semantic-hierachy,2021.1.2,
209,Trial # 210,layer6-8_O7_to_T9.jpg,layer6-8/layer6-8_O7_to_T9.jpg,OT,layer6-8,,,,,0.0,59.0,59.0,59.0,,,,,846.9946895069443,None,3.0,1.7088544899597764,846.9946895069443,None,846.9946895069443,None,846.9946895069443,None,1,2022_Apr_22_1101,Semantic-hierachy,2021.1.2,
210,Trial # 211,layer6-8_O1_to_O11.jpg,layer6-8/layer6-8_O1_to_O11.jpg,OO,layer6-8,,,,,0.0,60.0,60.0,60.0,,,,,848.977950487053,None,3.0,3.042616134975105,848.977950487053,None,848.977950487053,None,848.977950487053,None,1,2022_Apr_22_1101,Semantic-hierachy,2021.1.2,
211,Trial # 212,layer6-8_T2_to_T6.jpg,layer6-8/layer6-8_T2_to_T6.jpg,TT,layer6-8,,,,,0.0,61.0,61.0,61.0,,,,,852.512544115074,None,4.0,4.655266110086814,852.512544115074,None,852.512544115074,None,852.512544115074,None,1,2022_Apr_22_1101,Semantic-hierachy,2021.1.2,
212,Trial # 213,layer6-8_O10_to_O6.jpg,layer6-8/layer6-8_O10_to_O6.jpg,OO,layer6-8,,,,,0.0,62.0,62.0,62.0,,,,,857.5807305090129,None,2.0,2.844141761073842,857.5807305090129,None,857.5807305090129,None,857.5807305090129,None,1,2022_Apr_22_1101,Semantic-hierachy,2021.1.2,
213,Trial # 214,layer9-17_T5_to_T8.jpg,layer9-17/layer9-17_T5_to_T8.jpg,TT,layer9-17,,,,,0.0,63.0,63.0,63.0,,,,,860.9326605780516,None,2.0,0.9453191619832068,860.9326605780516,None,860.9326605780516,None,860.9326605780516,None,1,2022_Apr_22_1101,Semantic-hierachy,2021.1.2,
214,Trial # 215,layer9-17_O3_to_T10.jpg,layer9-17/layer9-17_O3_to_T10.jpg,OT,layer9-17,,,,,0.0,64.0,64.0,64.0,,,,,863.7832922020461,None,2.0,1.325402450049296,863.7832922020461,None,863.7832922020461,None,863.7832922020461,None,1,2022_Apr_22_1101,Semantic-hierachy,2021.1.2,
215,Trial # 216,layer6-8_O12_to_O3.jpg,layer6-8/layer6-8_O12_to_O3.jpg,OO,layer6-8,,,,,0.0,65.0,65.0,65.0,,,,,865.4682587441057,None,3.0,2.407228376949206,865.4682587441057,None,865.4682587441057,None,865.4682587441057,None,1,2022_Apr_22_1101,Semantic-hierachy,2021.1.2,
216,Trial # 217,layer0-5_T10_to_T2.jpg,layer0-5/layer0-5_T10_to_T2.jpg,TT,layer0-5,,,,,0.0,66.0,66.0,66.0,,,,,868.1842260840349,None,1.0,2.311891196994111,868.1842260840349,None,868.1842260840349,None,868.1842260840349,None,1,2022_Apr_22_1101,Semantic-hierachy,2021.1.2,
217,Trial # 218,layer9-17_O10_to_O6.jpg,layer9-17/layer9-17_O10_to_O6.jpg,OO,layer9-17,,,,,0.0,67.0,67.0,67.0,,,,,871.0696911199484,None,4.0,6.912150353891775,871.0696911199484,None,871.0696911199484,None,871.0696911199484,None,1,2022_Apr_22_1101,Semantic-hierachy,2021.1.2,
218,Trial # 219,layer6-8_O6_to_O9.jpg,layer6-8/layer6-8_O6_to_O9.jpg,OO,layer6-8,,,,,0.0,68.0,68.0,68.0,,,,,880.1058833459392,None,3.0,3.98901430494152,880.1058833459392,None,880.1058833459392,None,880.1058833459392,None,1,2022_Apr_22_1101,Semantic-hierachy,2021.1.2,
219,Trial # 220,layer0-5_O7_to_T2.jpg,layer0-5/layer0-5_O7_to_T2.jpg,OT,layer0-5,,,,,0.0,69.0,69.0,69.0,,,,,884.423136767,None,1.0,1.7412754851393402,884.423136767,None,884.423136767,None,884.423136767,None,1,2022_Apr_22_1101,Semantic-hierachy,2021.1.2,
220,Trial # 221,layer9-17_T12_to_T2.jpg,layer9-17/layer9-17_T12_to_T2.jpg,TT,layer9-17,,,,,0.0,70.0,70.0,70.0,,,,,886.5399292239454,None,2.0,4.692269306862727,886.5399292239454,None,886.5399292239454,None,886.5399292239454,None,1,2022_Apr_22_1101,Semantic-hierachy,2021.1.2,
221,Trial # 222,layer9-17_O8_to_T11.jpg,layer9-17/layer9-17_O8_to_T11.jpg,OT,layer9-17,,,,,0.0,71.0,71.0,71.0,,,,,892.0413044230081,None,2.0,6.804255793103948,892.0413044230081,None,892.0413044230081,None,892.0413044230081,None,1,2022_Apr_22_1101,Semantic-hierachy,2021.1.2,
222,Trial # 223,layer6-8_O3_to_T9.jpg,layer6-8/layer6-8_O3_to_T9.jpg,OT,layer6-8,,,,,0.0,72.0,72.0,72.0,,,,,901.1279411499854,None,2.0,1.5481203510425985,901.1279411499854,None,901.1279411499854,None,901.1279411499854,None,1,2022_Apr_22_1101,Semantic-hierachy,2021.1.2,
223,Trial # 224,layer0-5_O6_to_O9.jpg,layer0-5/layer0-5_O6_to_O9.jpg,OO,layer0-5,,,,,0.0,73.0,73.0,73.0,,,,,903.8121161309537,None,1.0,1.706891467794776,903.8121161309537,None,903.8121161309537,None,903.8121161309537,None,1,2022_Apr_22_1101,Semantic-hierachy,2021.1.2,
224,Trial # 225,layer0-5_O12_to_T1.jpg,layer0-5/layer0-5_O12_to_T1.jpg,OT,layer0-5,,,,,0.0,74.0,74.0,74.0,,,,,905.8634645759594,None,1.0,1.694462756160647,905.8634645759594,None,905.8634645759594,None,905.8634645759594,None,1,2022_Apr_22_1101,Semantic-hierachy,2021.1.2,
225,Trial # 226,layer9-17_O2_to_T8.jpg,layer9-17/layer9-17_O2_to_T8.jpg,OT,layer9-17,,,,,0.0,75.0,75.0,75.0,,,,,908.0129615450278,None,2.0,1.8021384561434388,908.0129615450278,None,908.0129615450278,None,908.0129615450278,None,1,2022_Apr_22_1101,Semantic-hierachy,2021.1.2,
226,Trial # 227,layer0-5_T4_to_T8.jpg,layer0-5/layer0-5_T4_to_T8.jpg,TT,layer0-5,,,,,0.0,76.0,76.0,76.0,,,,,910.164939027978,None,1.0,2.2544825018849224,910.164939027978,None,910.164939027978,None,910.164939027978,None,1,2022_Apr_22_1101,Semantic-hierachy,2021.1.2,
227,Trial # 228,layer9-17_O2_to_T1.jpg,layer9-17/layer9-17_O2_to_T1.jpg,OT,layer9-17,,,,,0.0,77.0,77.0,77.0,,,,,912.7652759789488,None,2.0,2.477671437896788,912.7652759789488,None,912.7652759789488,None,912.7652759789488,None,1,2022_Apr_22_1101,Semantic-hierachy,2021.1.2,
228,Trial # 229,layer0-5_O11_to_O7.jpg,layer0-5/layer0-5_O11_to_O7.jpg,OO,layer0-5,,,,,0.0,78.0,78.0,78.0,,,,,915.6332392429468,None,1.0,2.009209633106366,915.6332392429468,None,915.6332392429468,None,915.6332392429468,None,1,2022_Apr_22_1101,Semantic-hierachy,2021.1.2,
229,Trial # 230,layer6-8_T2_to_T8.jpg,layer6-8/layer6-8_T2_to_T8.jpg,TT,layer6-8,,,,,0.0,79.0,79.0,79.0,,,,,918.1665175170638,None,3.0,2.552171088056639,918.1665175170638,None,918.1665175170638,None,918.1665175170638,None,1,2022_Apr_22_1101,Semantic-hierachy,2021.1.2,
230,Trial # 231,layer9-17_T4_to_T8.jpg,layer9-17/layer9-17_T4_to_T8.jpg,TT,layer9-17,,,,,0.0,80.0,80.0,80.0,,,,,921.268210172886,None,2.0,2.010982944862917,921.268210172886,None,921.268210172886,None,921.268210172886,None,1,2022_Apr_22_1101,Semantic-hierachy,2021.1.2,
231,Trial # 232,layer9-17_T11_to_T3.jpg,layer9-17/layer9-17_T11_to_T3.jpg,TT,layer9-17,,,,,0.0,81.0,81.0,81.0,,,,,923.668572033057,None,2.0,1.5081497670616957,923.668572033057,None,923.668572033057,None,923.668572033057,None,1,2022_Apr_22_1101,Semantic-hierachy,2021.1.2,
232,Trial # 233,layer0-5_O3_to_T9.jpg,layer0-5/layer0-5_O3_to_T9.jpg,OT,layer0-5,,,,,0.0,82.0,82.0,82.0,,,,,925.5197364569176,None,1.0,1.978882065974176,925.5197364569176,None,925.5197364569176,None,925.5197364569176,None,1,2022_Apr_22_1101,Semantic-hierachy,2021.1.2,
233,Trial # 234,layer9-17_T7_to_T8.jpg,layer9-17/layer9-17_T7_to_T8.jpg,TT,layer9-17,,,,,0.0,83.0,83.0,83.0,,,,,927.852880056016,None,2.0,7.608905824832618,927.852880056016,None,927.852880056016,None,927.852880056016,None,1,2022_Apr_22_1101,Semantic-hierachy,2021.1.2,
234,Trial # 235,layer9-17_O3_to_O4.jpg,layer9-17/layer9-17_O3_to_O4.jpg,OO,layer9-17,,,,,0.0,84.0,84.0,84.0,,,,,935.7222752200904,None,2.0,2.494941595941782,935.7222752200904,None,935.7222752200904,None,935.7222752200904,None,1,2022_Apr_22_1101,Semantic-hierachy,2021.1.2,
235,Trial # 236,layer6-8_O8_to_T6.jpg,layer6-8/layer6-8_O8_to_T6.jpg,OT,layer6-8,,,,,0.0,85.0,85.0,85.0,,,,,938.5223367279395,None,3.0,1.5876656989566982,938.5223367279395,None,938.5223367279395,None,938.5223367279395,None,1,2022_Apr_22_1101,Semantic-hierachy,2021.1.2,
236,Trial # 237,layer9-17_T6_to_T7.jpg,layer9-17/layer9-17_T6_to_T7.jpg,TT,layer9-17,,,,,0.0,86.0,86.0,86.0,,,,,940.3736804879736,None,2.0,1.906194075010717,940.3736804879736,None,940.3736804879736,None,940.3736804879736,None,1,2022_Apr_22_1101,Semantic-hierachy,2021.1.2,
237,Trial # 238,layer0-5_T2_to_T9.jpg,layer0-5/layer0-5_T2_to_T9.jpg,TT,layer0-5,,,,,0.0,87.0,87.0,87.0,,,,,942.6905059600248,None,1.0,2.058587533887476,942.6905059600248,None,942.6905059600248,None,942.6905059600248,None,1,2022_Apr_22_1101,Semantic-hierachy,2021.1.2,
238,Trial # 239,layer0-5_O2_to_O5.jpg,layer0-5/layer0-5_O2_to_O5.jpg,OO,layer0-5,,,,,0.0,88.0,88.0,88.0,,,,,944.9919879320078,None,1.0,1.423873552121222,944.9919879320078,None,944.9919879320078,None,944.9919879320078,None,1,2022_Apr_22_1101,Semantic-hierachy,2021.1.2,
239,Trial # 240,layer6-8_O1_to_O5.jpg,layer6-8/layer6-8_O1_to_O5.jpg,OO,layer6-8,,,,,0.0,89.0,89.0,89.0,,,,,946.8921526900958,None,4.0,6.507888363208622,946.8921526900958,None,946.8921526900958,None,946.8921526900958,None,1,2022_Apr_22_1101,Semantic-hierachy,2021.1.2,
240,Trial # 241,layer9-17_O3_to_O7.jpg,layer9-17/layer9-17_O3_to_O7.jpg,OO,layer9-17,,,,,0.0,90.0,90.0,90.0,,,,,954.645156017039,None,2.0,2.520812255097553,954.645156017039,None,954.645156017039,None,954.645156017039,None,1,2022_Apr_22_1101,Semantic-hierachy,2021.1.2,
241,Trial # 242,layer6-8_O11_to_O8.jpg,layer6-8/layer6-8_O11_to_O8.jpg,OO,layer6-8,,,,,0.0,91.0,91.0,91.0,,,,,957.47889498109,None,4.0,3.2585899350233376,957.47889498109,None,957.47889498109,None,957.47889498109,None,1,2022_Apr_22_1101,Semantic-hierachy,2021.1.2,
242,Trial # 243,layer9-17_T1_to_T12.jpg,layer9-17/layer9-17_T1_to_T12.jpg,TT,layer9-17,,,,,0.0,92.0,92.0,92.0,,,,,961.0301414050627,None,2.0,1.573346331017092,961.0301414050627,None,961.0301414050627,None,961.0301414050627,None,1,2022_Apr_22_1101,Semantic-hierachy,2021.1.2,
243,Trial # 244,layer9-17_O6_to_O8.jpg,layer9-17/layer9-17_O6_to_O8.jpg,OO,layer9-17,,,,,0.0,93.0,93.0,93.0,,,,,963.413716447074,None,4.0,10.904684956884012,963.413716447074,None,963.413716447074,None,963.413716447074,None,1,2022_Apr_22_1101,Semantic-hierachy,2021.1.2,
244,Trial # 245,layer6-8_O4_to_T11.jpg,layer6-8/layer6-8_O4_to_T11.jpg,OT,layer6-8,,,,,0.0,94.0,94.0,94.0,,,,,975.3847181620076,None,3.0,2.1167022828012705,975.3847181620076,None,975.3847181620076,None,975.3847181620076,None,1,2022_Apr_22_1101,Semantic-hierachy,2021.1.2,
245,Trial # 246,layer9-17_T10_to_T3.jpg,layer9-17/layer9-17_T10_to_T3.jpg,TT,layer9-17,,,,,0.0,95.0,95.0,95.0,,,,,977.9009596121032,None,2.0,1.8199860549066216,977.9009596121032,None,977.9009596121032,None,977.9009596121032,None,1,2022_Apr_22_1101,Semantic-hierachy,2021.1.2,
246,Trial # 247,layer0-5_O10_to_O8.jpg,layer0-5/layer0-5_O10_to_O8.jpg,OO,layer0-5,,,,,0.0,96.0,96.0,96.0,,,,,980.036383169936,None,1.0,2.140247639035806,980.036383169936,None,980.036383169936,None,980.036383169936,None,1,2022_Apr_22_1101,Semantic-hierachy,2021.1.2,
247,Trial # 248,layer6-8_O3_to_T12.jpg,layer6-8/layer6-8_O3_to_T12.jpg,OT,layer6-8,,,,,0.0,97.0,97.0,97.0,,,,,982.5529422999824,None,2.0,1.8260753389913589,982.5529422999824,None,982.5529422999824,None,982.5529422999824,None,1,2022_Apr_22_1101,Semantic-hierachy,2021.1.2,
248,Trial # 249,layer0-5_O12_to_T9.jpg,layer0-5/layer0-5_O12_to_T9.jpg,OT,layer0-5,,,,,0.0,98.0,98.0,98.0,,,,,984.6875967890956,None,1.0,1.7908106271643192,984.6875967890956,None,984.6875967890956,None,984.6875967890956,None,1,2022_Apr_22_1101,Semantic-hierachy,2021.1.2,
249,Trial # 250,layer9-17_T1_to_T9.jpg,layer9-17/layer9-17_T1_to_T9.jpg,TT,layer9-17,,,,,0.0,99.0,99.0,99.0,,,,,986.7716006538832,None,4.0,2.8556877069640905,986.7716006538832,None,986.7716006538832,None,986.7716006538832,None,1,2022_Apr_22_1101,Semantic-hierachy,2021.1.2,
250,Trial # 251,layer9-17_T11_to_T8.jpg,layer9-17/layer9-17_T11_to_T8.jpg,TT,layer9-17,,,,,0.0,100.0,100.0,100.0,,,,,989.9225082979538,None,2.0,1.5585547380615026,989.9225082979538,None,989.9225082979538,None,989.9225082979538,None,1,2022_Apr_22_1101,Semantic-hierachy,2021.1.2,
251,Trial # 252,layer9-17_T11_to_T5.jpg,layer9-17/layer9-17_T11_to_T5.jpg,TT,layer9-17,,,,,0.0,101.0,101.0,101.0,,,,,991.772456835024,None,3.0,2.456230483017862,991.772456835024,None,991.772456835024,None,991.772456835024,None,1,2022_Apr_22_1101,Semantic-hierachy,2021.1.2,
252,Trial # 253,layer6-8_T10_to_T12.jpg,layer6-8/layer6-8_T10_to_T12.jpg,TT,layer6-8,,,,,0.0,102.0,102.0,102.0,,,,,995.0246542789972,None,4.0,3.378632460022345,995.0246542789972,None,995.0246542789972,None,995.0246542789972,None,1,2022_Apr_22_1101,Semantic-hierachy,2021.1.2,
253,Trial # 254,layer9-17_O5_to_T1.jpg,layer9-17/layer9-17_O5_to_T1.jpg,OT,layer9-17,,,,,0.0,103.0,103.0,103.0,,,,,998.7912365559024,None,2.0,1.894919394981116,998.7912365559024,None,998.7912365559024,None,998.7912365559024,None,1,2022_Apr_22_1101,Semantic-hierachy,2021.1.2,
254,Trial # 255,layer6-8_T2_to_T3.jpg,layer6-8/layer6-8_T2_to_T3.jpg,TT,layer6-8,,,,,0.0,104.0,104.0,104.0,,,,,1000.9255140549504,None,3.0,2.223000160884112,1000.9255140549504,None,1000.9255140549504,None,1000.9255140549504,None,1,2022_Apr_22_1101,Semantic-hierachy,2021.1.2,
255,Trial # 256,layer6-8_O2_to_T6.jpg,layer6-8/layer6-8_O2_to_T6.jpg,OT,layer6-8,,,,,0.0,105.0,105.0,105.0,,,,,1003.5089558688924,None,3.0,4.061201262054965,1003.5089558688924,None,1003.5089558688924,None,1003.5089558688924,None,1,2022_Apr_22_1101,Semantic-hierachy,2021.1.2,
256,Trial # 257,layer6-8_T11_to_T9.jpg,layer6-8/layer6-8_T11_to_T9.jpg,TT,layer6-8,,,,,0.0,106.0,106.0,106.0,,,,,1007.9936127939728,None,4.0,2.5651178599800915,1007.9936127939728,None,1007.9936127939728,None,1007.9936127939728,None,1,2022_Apr_22_1101,Semantic-hierachy,2021.1.2,
257,Trial # 258,layer6-8_O5_to_T9.jpg,layer6-8/layer6-8_O5_to_T9.jpg,OT,layer6-8,,,,,0.0,107.0,107.0,107.0,,,,,1010.944918384077,None,3.0,3.0064318729564548,1010.944918384077,None,1010.944918384077,None,1010.944918384077,None,1,2022_Apr_22_1101,Semantic-hierachy,2021.1.2,
258,Trial # 259,layer6-8_O9_to_T8.jpg,layer6-8/layer6-8_O9_to_T8.jpg,OT,layer6-8,,,,,0.0,108.0,108.0,108.0,,,,,1015.4641521959566,None,3.0,1.7126087630167603,1015.4641521959566,None,1015.4641521959566,None,1015.4641521959566,None,1,2022_Apr_22_1101,Semantic-hierachy,2021.1.2,
259,Trial # 260,layer6-8_T1_to_T5.jpg,layer6-8/layer6-8_T1_to_T5.jpg,TT,layer6-8,,,,,0.0,109.0,109.0,109.0,,,,,1019.2488098889588,None,3.0,2.5900990159716457,1019.2488098889588,None,1019.2488098889588,None,1019.2488098889588,None,1,2022_Apr_22_1101,Semantic-hierachy,2021.1.2,
260,Trial # 261,layer0-5_O11_to_T2.jpg,layer0-5/layer0-5_O11_to_T2.jpg,OT,layer0-5,,,,,0.0,110.0,110.0,110.0,,,,,1022.2483890010044,None,1.0,2.737955218181014,1022.2483890010044,None,1022.2483890010044,None,1022.2483890010044,None,1,2022_Apr_22_1101,Semantic-hierachy,2021.1.2,
261,Trial # 262,layer0-5_O7_to_T4.jpg,layer0-5/layer0-5_O7_to_T4.jpg,OT,layer0-5,,,,,0.0,111.0,111.0,111.0,,,,,1025.2502715880985,None,1.0,1.1227600369602442,1025.2502715880985,None,1025.2502715880985,None,1025.2502715880985,None,1,2022_Apr_22_1101,Semantic-hierachy,2021.1.2,
262,Trial # 263,layer6-8_T12_to_T8.jpg,layer6-8/layer6-8_T12_to_T8.jpg,TT,layer6-8,,,,,0.0,112.0,112.0,112.0,,,,,1026.6671548979357,None,2.0,1.9354445680510253,1026.6671548979357,None,1026.6671548979357,None,1026.6671548979357,None,1,2022_Apr_22_1101,Semantic-hierachy,2021.1.2,
263,Trial # 264,layer6-8_O4_to_O9.jpg,layer6-8/layer6-8_O4_to_O9.jpg,OO,layer6-8,,,,,0.0,113.0,113.0,113.0,,,,,1028.9165162350982,None,4.0,6.708429712802172,1028.9165162350982,None,1028.9165162350982,None,1028.9165162350982,None,1,2022_Apr_22_1101,Semantic-hierachy,2021.1.2,
264,Trial # 265,layer0-5_T1_to_T5.jpg,layer0-5/layer0-5_T1_to_T5.jpg,TT,layer0-5,,,,,0.0,114.0,114.0,114.0,,,,,1038.9699196880683,None,3.0,2.396966460160911,1038.9699196880683,None,1038.9699196880683,None,1038.9699196880683,None,1,2022_Apr_22_1101,Semantic-hierachy,2021.1.2,
265,Trial # 266,layer0-5_O12_to_O7.jpg,layer0-5/layer0-5_O12_to_O7.jpg,OO,layer0-5,,,,,0.0,115.0,115.0,115.0,,,,,1041.7054785080254,None,1.0,3.69222820410505,1041.7054785080254,None,1041.7054785080254,None,1041.7054785080254,None,1,2022_Apr_22_1101,Semantic-hierachy,2021.1.2,
266,Trial # 267,layer6-8_T8_to_T9.jpg,layer6-8/layer6-8_T8_to_T9.jpg,TT,layer6-8,,,,,0.0,116.0,116.0,116.0,,,,,1045.6563976989128,None,3.0,2.3297538249753416,1045.6563976989128,None,1045.6563976989128,None,1045.6563976989128,None,1,2022_Apr_22_1101,Semantic-hierachy,2021.1.2,
267,Trial # 268,layer9-17_O11_to_T10.jpg,layer9-17/layer9-17_O11_to_T10.jpg,OT,layer9-17,,,,,0.0,117.0,117.0,117.0,,,,,1048.6061176930089,None,2.0,3.0214044579770416,1048.6061176930089,None,1048.6061176930089,None,1048.6061176930089,None,1,2022_Apr_22_1101,Semantic-hierachy,2021.1.2,
268,Trial # 269,layer0-5_O8_to_T9.jpg,layer0-5/layer0-5_O8_to_T9.jpg,OT,layer0-5,,,,,0.0,118.0,118.0,118.0,,,,,1051.9741666649934,None,1.0,2.1942783270496875,1051.9741666649934,None,1051.9741666649934,None,1051.9741666649934,None,1,2022_Apr_22_1101,Semantic-hierachy,2021.1.2,
269,Trial # 270,layer9-17_O10_to_O11.jpg,layer9-17/layer9-17_O10_to_O11.jpg,OO,layer9-17,,,,,0.0,119.0,119.0,119.0,,,,,1054.5752987149172,None,3.0,2.340730046853423,1054.5752987149172,None,1054.5752987149172,None,1054.5752987149172,None,1,2022_Apr_22_1101,Semantic-hierachy,2021.1.2,
270,Trial # 271,layer0-5_T1_to_T9.jpg,layer0-5/layer0-5_T1_to_T9.jpg,TT,layer0-5,,,,,0.0,120.0,120.0,120.0,,,,,1057.3256787608843,None,1.0,2.0932811729144305,1057.3256787608843,None,1057.3256787608843,None,1057.3256787608843,None,1,2022_Apr_22_1101,Semantic-hierachy,2021.1.2,
271,Trial # 272,layer6-8_T11_to_T8.jpg,layer6-8/layer6-8_T11_to_T8.jpg,TT,layer6-8,,,,,0.0,121.0,121.0,121.0,,,,,1059.760935659986,None,4.0,7.263069813139737,1059.760935659986,None,1059.760935659986,None,1059.760935659986,None,1,2022_Apr_22_1101,Semantic-hierachy,2021.1.2,
272,Trial # 273,layer9-17_O10_to_O12.jpg,layer9-17/layer9-17_O10_to_O12.jpg,OO,layer9-17,,,,,0.0,122.0,122.0,122.0,,,,,1067.378706668038,None,2.0,2.191314368974417,1067.378706668038,None,1067.378706668038,None,1067.378706668038,None,1,2022_Apr_22_1101,Semantic-hierachy,2021.1.2,
273,Trial # 274,layer0-5_T12_to_T6.jpg,layer0-5/layer0-5_T12_to_T6.jpg,TT,layer0-5,,,,,0.0,123.0,123.0,123.0,,,,,1069.913244470954,None,1.0,2.0048329909332097,1069.913244470954,None,1069.913244470954,None,1069.913244470954,None,1,2022_Apr_22_1101,Semantic-hierachy,2021.1.2,
274,Trial # 275,layer9-17_O11_to_O5.jpg,layer9-17/layer9-17_O11_to_O5.jpg,OO,layer9-17,,,,,0.0,124.0,124.0,124.0,,,,,1072.2648656410165,None,2.0,3.4229038308840245,1072.2648656410165,None,1072.2648656410165,None,1072.2648656410165,None,1,2022_Apr_22_1101,Semantic-hierachy,2021.1.2,
275,Trial # 276,layer9-17_O1_to_O4.jpg,layer9-17/layer9-17_O1_to_O4.jpg,OO,layer9-17,,,,,0.0,125.0,125.0,125.0,,,,,1075.9655496750493,None,2.0,2.109710501972586,1075.9655496750493,None,1075.9655496750493,None,1075.9655496750493,None,1,2022_Apr_22_1101,Semantic-hierachy,2021.1.2,
276,Trial # 277,layer6-8_O11_to_O3.jpg,layer6-8/layer6-8_O11_to_O3.jpg,OO,layer6-8,,,,,0.0,126.0,126.0,126.0,,,,,1078.4152689769398,None,2.0,1.8829995719715955,1078.4152689769398,None,1078.4152689769398,None,1078.4152689769398,None,1,2022_Apr_22_1101,Semantic-hierachy,2021.1.2,
277,Trial # 278,layer6-8_T10_to_T11.jpg,layer6-8/layer6-8_T10_to_T11.jpg,TT,layer6-8,,,,,0.0,127.0,127.0,127.0,,,,,1081.5666446310934,None,4.0,3.188539069145918,1081.5666446310934,None,1081.5666446310934,None,1081.5666446310934,None,1,2022_Apr_22_1101,Semantic-hierachy,2021.1.2,
278,Trial # 279,layer0-5_O7_to_T3.jpg,layer0-5/layer0-5_O7_to_T3.jpg,OT,layer0-5,,,,,0.0,128.0,128.0,128.0,,,,,1085.1686192480847,None,1.0,1.907449817052111,1085.1686192480847,None,1085.1686192480847,None,1085.1686192480847,None,1,2022_Apr_22_1101,Semantic-hierachy,2021.1.2,
279,Trial # 280,layer9-17_T1_to_T10.jpg,layer9-17/layer9-17_T1_to_T10.jpg,TT,layer9-17,,,,,0.0,129.0,129.0,129.0,,,,,1087.3516849901062,None,2.0,2.171664671972394,1087.3516849901062,None,1087.3516849901062,None,1087.3516849901062,None,1,2022_Apr_22_1101,Semantic-hierachy,2021.1.2,
280,Trial # 281,layer9-17_O6_to_T7.jpg,layer9-17/layer9-17_O6_to_T7.jpg,OT,layer9-17,,,,,0.0,130.0,130.0,130.0,,,,,1090.9538896679878,None,2.0,1.254380916012451,1090.9538896679878,None,1090.9538896679878,None,1090.9538896679878,None,1,2022_Apr_22_1101,Semantic-hierachy,2021.1.2,
281,Trial # 282,layer0-5_O10_to_O7.jpg,layer0-5/layer0-5_O10_to_O7.jpg,OO,layer0-5,,,,,0.0,131.0,131.0,131.0,,,,,1092.60366245592,None,1.0,1.7547173849307,1092.60366245592,None,1092.60366245592,None,1092.60366245592,None,1,2022_Apr_22_1101,Semantic-hierachy,2021.1.2,
282,Trial # 283,layer0-5_O1_to_O11.jpg,layer0-5/layer0-5_O1_to_O11.jpg,OO,layer0-5,,,,,0.0,132.0,132.0,132.0,,,,,1096.8218129789457,None,1.0,1.7762159898411485,1096.8218129789457,None,1096.8218129789457,None,1096.8218129789457,None,1,2022_Apr_22_1101,Semantic-hierachy,2021.1.2,
283,Trial # 284,layer6-8_O7_to_O8.jpg,layer6-8/layer6-8_O7_to_O8.jpg,OO,layer6-8,,,,,0.0,133.0,133.0,133.0,,,,,1098.9556821060833,None,2.0,1.6630153150763365,1098.9556821060833,None,1098.9556821060833,None,1098.9556821060833,None,1,2022_Apr_22_1101,Semantic-hierachy,2021.1.2,
284,Trial # 285,layer0-5_T7_to_T8.jpg,layer0-5/layer0-5_T7_to_T8.jpg,TT,layer0-5,,,,,0.0,134.0,134.0,134.0,,,,,1100.940773122944,None,1.0,1.695332057075575,1100.940773122944,None,1100.940773122944,None,1100.940773122944,None,1,2022_Apr_22_1101,Semantic-hierachy,2021.1.2,
285,Trial # 286,layer9-17_T11_to_T6.jpg,layer9-17/layer9-17_T11_to_T6.jpg,TT,layer9-17,,,,,0.0,135.0,135.0,135.0,,,,,1102.9898049409967,None,2.0,2.579654962057248,1102.9898049409967,None,1102.9898049409967,None,1102.9898049409967,None,1,2022_Apr_22_1101,Semantic-hierachy,2021.1.2,
286,Trial # 287,layer0-5_T2_to_T7.jpg,layer0-5/layer0-5_T2_to_T7.jpg,TT,layer0-5,,,,,0.0,136.0,136.0,136.0,,,,,1105.8754678589758,None,1.0,1.9517561299726367,1105.8754678589758,None,1105.8754678589758,None,1105.8754678589758,None,1,2022_Apr_22_1101,Semantic-hierachy,2021.1.2,
287,Trial # 288,layer9-17_O10_to_O2.jpg,layer9-17/layer9-17_O10_to_O2.jpg,OO,layer9-17,,,,,0.0,137.0,137.0,137.0,,,,,1108.141647878103,None,2.0,1.6714136190712452,1108.141647878103,None,1108.141647878103,None,1108.141647878103,None,1,2022_Apr_22_1101,Semantic-hierachy,2021.1.2,
288,Trial # 289,layer0-5_T10_to_T9.jpg,layer0-5/layer0-5_T10_to_T9.jpg,TT,layer0-5,,,,,0.0,138.0,138.0,138.0,,,,,1110.0929094241,None,1.0,2.7875525730196387,1110.0929094241,None,1110.0929094241,None,1110.0929094241,None,1,2022_Apr_22_1101,Semantic-hierachy,2021.1.2,
289,Trial # 290,layer6-8_O11_to_O5.jpg,layer6-8/layer6-8_O11_to_O5.jpg,OO,layer6-8,,,,,0.0,139.0,139.0,139.0,,,,,1113.2267159800977,None,2.0,1.8226177089381963,1113.2267159800977,None,1113.2267159800977,None,1113.2267159800977,None,1,2022_Apr_22_1101,Semantic-hierachy,2021.1.2,
290,Trial # 291,layer6-8_O3_to_O7.jpg,layer6-8/layer6-8_O3_to_O7.jpg,OO,layer6-8,,,,,0.0,140.0,140.0,140.0,,,,,1115.3776501629036,None,2.0,2.509539492893964,1115.3776501629036,None,1115.3776501629036,None,1115.3776501629036,None,1,2022_Apr_22_1101,Semantic-hierachy,2021.1.2,
291,Trial # 292,layer9-17_O12_to_T11.jpg,layer9-17/layer9-17_O12_to_T11.jpg,OT,layer9-17,,,,,0.0,141.0,141.0,141.0,,,,,1118.2945355889387,None,2.0,1.4723694960121063,1118.2945355889387,None,1118.2945355889387,None,1118.2945355889387,None,1,2022_Apr_22_1101,Semantic-hierachy,2021.1.2,
292,Trial # 293,layer9-17_O2_to_O4.jpg,layer9-17/layer9-17_O2_to_O4.jpg,OO,layer9-17,,,,,0.0,142.0,142.0,142.0,,,,,1120.1297330569942,None,4.0,2.8568496599327773,1120.1297330569942,None,1120.1297330569942,None,1120.1297330569942,None,1,2022_Apr_22_1101,Semantic-hierachy,2021.1.2,
293,Trial # 294,layer6-8_O1_to_T12.jpg,layer6-8/layer6-8_O1_to_T12.jpg,OT,layer6-8,,,,,0.0,143.0,143.0,143.0,,,,,1123.3126841860358,None,3.0,2.642737464979291,1123.3126841860358,None,1123.3126841860358,None,1123.3126841860358,None,1,2022_Apr_22_1101,Semantic-hierachy,2021.1.2,
294,Trial # 295,layer9-17_O11_to_T5.jpg,layer9-17/layer9-17_O11_to_T5.jpg,OT,layer9-17,,,,,0.0,144.0,144.0,144.0,,,,,1126.2646720709745,None,4.0,2.499750535003841,1126.2646720709745,None,1126.2646720709745,None,1126.2646720709745,None,1,2022_Apr_22_1101,Semantic-hierachy,2021.1.2,
295,Trial # 296,layer0-5_O10_to_O9.jpg,layer0-5/layer0-5_O10_to_O9.jpg,OO,layer0-5,,,,,0.0,145.0,145.0,145.0,,,,,1129.097723145038,None,1.0,2.3119372020009905,1129.097723145038,None,1129.097723145038,None,1129.097723145038,None,1,2022_Apr_22_1101,Semantic-hierachy,2021.1.2,
296,Trial # 297,layer6-8_O12_to_T10.jpg,layer6-8/layer6-8_O12_to_T10.jpg,OT,layer6-8,,,,,0.0,146.0,146.0,146.0,,,,,1131.549878971884,None,3.0,2.695131493965164,1131.549878971884,None,1131.549878971884,None,1131.549878971884,None,1,2022_Apr_22_1101,Semantic-hierachy,2021.1.2,
297,Trial # 298,layer6-8_O3_to_T2.jpg,layer6-8/layer6-8_O3_to_T2.jpg,OT,layer6-8,,,,,0.0,147.0,147.0,147.0,,,,,1134.4667507489212,None,2.0,1.656139433849603,1134.4667507489212,None,1134.4667507489212,None,1134.4667507489212,None,1,2022_Apr_22_1101,Semantic-hierachy,2021.1.2,
298,Trial # 299,layer9-17_O2_to_T5.jpg,layer9-17/layer9-17_O2_to_T5.jpg,OT,layer9-17,,,,,0.0,148.0,148.0,148.0,,,,,1136.5003943978809,None,4.0,2.258316181134433,1136.5003943978809,None,1136.5003943978809,None,1136.5003943978809,None,1,2022_Apr_22_1101,Semantic-hierachy,2021.1.2,
299,Trial # 300,layer0-5_O3_to_T7.jpg,layer0-5/layer0-5_O3_to_T7.jpg,OT,layer0-5,,,,,0.0,149.0,149.0,149.0,,,,,1139.0341261210851,None,1.0,1.904970764881,1139.0341261210851,None,1139.0341261210851,None,1139.0341261210851,None,1,2022_Apr_22_1101,Semantic-hierachy,2021.1.2,
300,Trial # 301,layer9-17_O11_to_O6.jpg,layer9-17/layer9-17_O11_to_O6.jpg,OO,layer9-17,,,,,,,,,0.0,0.0,0.0,0.0,1170.9942109850235,None,3.0,21.130798622965813,1170.9942109850235,None,1170.9942109850235,None,1170.9942109850235,None,1,2022_Apr_22_1101,Semantic-hierachy,2021.1.2,
301,Trial # 302,layer0-5_O3_to_O7.jpg,layer0-5/layer0-5_O3_to_O7.jpg,OO,layer0-5,,,,,,,,,0.0,1.0,1.0,1.0,1192.5010857500602,None,1.0,1.811471417080611,1192.5010857500602,None,1192.5010857500602,None,1192.5010857500602,None,1,2022_Apr_22_1101,Semantic-hierachy,2021.1.2,
302,Trial # 303,layer6-8_O11_to_T3.jpg,layer6-8/layer6-8_O11_to_T3.jpg,OT,layer6-8,,,,,,,,,0.0,2.0,2.0,2.0,1194.669676187914,None,3.0,1.5246519269421697,1194.669676187914,None,1194.669676187914,None,1194.669676187914,None,1,2022_Apr_22_1101,Semantic-hierachy,2021.1.2,
303,Trial # 304,layer6-8_O2_to_T7.jpg,layer6-8/layer6-8_O2_to_T7.jpg,OT,layer6-8,,,,,,,,,0.0,3.0,3.0,3.0,1196.5694867759012,None,3.0,1.2749840340111405,1196.5694867759012,None,1196.5694867759012,None,1196.5694867759012,None,1,2022_Apr_22_1101,Semantic-hierachy,2021.1.2,
304,Trial # 305,layer0-5_T1_to_T7.jpg,layer0-5/layer0-5_T1_to_T7.jpg,TT,layer0-5,,,,,,,,,0.0,4.0,4.0,4.0,1198.8524719020352,None,1.0,1.5833573329728097,1198.8524719020352,None,1198.8524719020352,None,1198.8524719020352,None,1,2022_Apr_22_1101,Semantic-hierachy,2021.1.2,
305,Trial # 306,layer6-8_O7_to_T11.jpg,layer6-8/layer6-8_O7_to_T11.jpg,OT,layer6-8,,,,,,,,,0.0,5.0,5.0,5.0,1200.7210589710155,None,3.0,2.643409809097648,1200.7210589710155,None,1200.7210589710155,None,1200.7210589710155,None,1,2022_Apr_22_1101,Semantic-hierachy,2021.1.2,
306,Trial # 307,layer9-17_O5_to_T5.jpg,layer9-17/layer9-17_O5_to_T5.jpg,OT,layer9-17,,,,,,,,,0.0,6.0,6.0,6.0,1203.787561418023,None,2.0,1.6571931580547243,1203.787561418023,None,1203.787561418023,None,1203.787561418023,None,1,2022_Apr_22_1101,Semantic-hierachy,2021.1.2,
307,Trial # 308,layer9-17_T12_to_T5.jpg,layer9-17/layer9-17_T12_to_T5.jpg,TT,layer9-17,,,,,,,,,0.0,7.0,7.0,7.0,1205.789175506914,None,2.0,1.4017717659007758,1205.789175506914,None,1205.789175506914,None,1205.789175506914,None,1,2022_Apr_22_1101,Semantic-hierachy,2021.1.2,
308,Trial # 309,layer6-8_O11_to_O2.jpg,layer6-8/layer6-8_O11_to_O2.jpg,OO,layer6-8,,,,,,,,,0.0,8.0,8.0,8.0,1207.5052668929566,None,2.0,1.2723824130371213,1207.5052668929566,None,1207.5052668929566,None,1207.5052668929566,None,1,2022_Apr_22_1101,Semantic-hierachy,2021.1.2,
309,Trial # 310,layer6-8_O10_to_O7.jpg,layer6-8/layer6-8_O10_to_O7.jpg,OO,layer6-8,,,,,,,,,0.0,9.0,9.0,9.0,1209.1733080518898,None,2.0,1.2443023349624127,1209.1733080518898,None,1209.1733080518898,None,1209.1733080518898,None,1,2022_Apr_22_1101,Semantic-hierachy,2021.1.2,
310,Trial # 311,layer9-17_O10_to_T11.jpg,layer9-17/layer9-17_O10_to_T11.jpg,OT,layer9-17,,,,,,,,,0.0,10.0,10.0,10.0,1213.5911873499865,None,4.0,3.3063832027837634,1213.5911873499865,None,1213.5911873499865,None,1213.5911873499865,None,1,2022_Apr_22_1101,Semantic-hierachy,2021.1.2,
311,Trial # 312,layer6-8_O11_to_O12.jpg,layer6-8/layer6-8_O11_to_O12.jpg,OO,layer6-8,,,,,,,,,0.0,11.0,11.0,11.0,1217.1754134879448,None,4.0,2.2139094050508,1217.1754134879448,None,1217.1754134879448,None,1217.1754134879448,None,1,2022_Apr_22_1101,Semantic-hierachy,2021.1.2,
312,Trial # 313,layer9-17_O9_to_T8.jpg,layer9-17/layer9-17_O9_to_T8.jpg,OT,layer9-17,,,,,,,,,0.0,12.0,12.0,12.0,1219.8269866600167,None,4.0,1.7418832159601152,1219.8269866600167,None,1219.8269866600167,None,1219.8269866600167,None,1,2022_Apr_22_1101,Semantic-hierachy,2021.1.2,
313,Trial # 314,layer0-5_O3_to_T2.jpg,layer0-5/layer0-5_O3_to_T2.jpg,OT,layer0-5,,,,,,,,,0.0,13.0,13.0,13.0,1223.6438954430632,None,1.0,2.1459268871694803,1223.6438954430632,None,1223.6438954430632,None,1223.6438954430632,None,1,2022_Apr_22_1101,Semantic-hierachy,2021.1.2,
314,Trial # 315,layer9-17_T1_to_T11.jpg,layer9-17/layer9-17_T1_to_T11.jpg,TT,layer9-17,,,,,,,,,0.0,14.0,14.0,14.0,1226.3290921179578,None,2.0,1.507257582852617,1226.3290921179578,None,1226.3290921179578,None,1226.3290921179578,None,1,2022_Apr_22_1101,Semantic-hierachy,2021.1.2,
315,Trial # 316,layer6-8_T10_to_T7.jpg,layer6-8/layer6-8_T10_to_T7.jpg,TT,layer6-8,,,,,,,,,0.0,15.0,15.0,15.0,1228.195883871056,None,4.0,3.614767247112468,1228.195883871056,None,1228.195883871056,None,1228.195883871056,None,1,2022_Apr_22_1101,Semantic-hierachy,2021.1.2,
316,Trial # 317,layer0-5_T6_to_T7.jpg,layer0-5/layer0-5_T6_to_T7.jpg,TT,layer0-5,,,,,,,,,0.0,16.0,16.0,16.0,1232.2975229299627,None,1.0,1.7886118178721515,1232.2975229299627,None,1232.2975229299627,None,1232.2975229299627,None,1,2022_Apr_22_1101,Semantic-hierachy,2021.1.2,
317,Trial # 318,layer9-17_O1_to_T3.jpg,layer9-17/layer9-17_O1_to_T3.jpg,OT,layer9-17,,,,,,,,,0.0,17.0,17.0,17.0,1234.447502702009,None,2.0,1.4424689980223775,1234.447502702009,None,1234.447502702009,None,1234.447502702009,None,1,2022_Apr_22_1101,Semantic-hierachy,2021.1.2,
318,Trial # 319,layer0-5_O2_to_T5.jpg,layer0-5/layer0-5_O2_to_T5.jpg,OT,layer0-5,,,,,,,,,0.0,18.0,18.0,18.0,1236.1643755328842,None,1.0,2.3409587361384183,1236.1643755328842,None,1236.1643755328842,None,1236.1643755328842,None,1,2022_Apr_22_1101,Semantic-hierachy,2021.1.2,
319,Trial # 320,layer6-8_O7_to_T10.jpg,layer6-8/layer6-8_O7_to_T10.jpg,OT,layer6-8,,,,,,,,,0.0,19.0,19.0,19.0,1238.7146585809533,None,3.0,1.9566382109187543,1238.7146585809533,None,1238.7146585809533,None,1238.7146585809533,None,1,2022_Apr_22_1101,Semantic-hierachy,2021.1.2,
320,Trial # 321,layer0-5_O5_to_O6.jpg,layer0-5/layer0-5_O5_to_O6.jpg,OO,layer0-5,,,,,,,,,0.0,20.0,20.0,20.0,1241.9995802480262,None,1.0,1.8118028880562635,1241.9995802480262,None,1241.9995802480262,None,1241.9995802480262,None,1,2022_Apr_22_1101,Semantic-hierachy,2021.1.2,
321,Trial # 322,layer9-17_O5_to_T4.jpg,layer9-17/layer9-17_O5_to_T4.jpg,OT,layer9-17,,,,,,,,,0.0,21.0,21.0,21.0,1244.117063753074,None,1.0,1.1427555030677468,1244.117063753074,None,1244.117063753074,None,1244.117063753074,None,1,2022_Apr_22_1101,Semantic-hierachy,2021.1.2,
322,Trial # 323,layer0-5_T12_to_T2.jpg,layer0-5/layer0-5_T12_to_T2.jpg,TT,layer0-5,,,,,,,,,0.0,22.0,22.0,22.0,1245.735178356059,None,1.0,1.3748659719713032,1245.735178356059,None,1245.735178356059,None,1245.735178356059,None,1,2022_Apr_22_1101,Semantic-hierachy,2021.1.2,
323,Trial # 324,layer0-5_O2_to_O4.jpg,layer0-5/layer0-5_O2_to_O4.jpg,OO,layer0-5,,,,,,,,,0.0,23.0,23.0,23.0,1247.4180436250754,None,1.0,1.1306919921189549,1247.4180436250754,None,1247.4180436250754,None,1247.4180436250754,None,1,2022_Apr_22_1101,Semantic-hierachy,2021.1.2,
324,Trial # 325,layer6-8_O1_to_O9.jpg,layer6-8/layer6-8_O1_to_O9.jpg,OO,layer6-8,,,,,,,,,0.0,24.0,24.0,24.0,1248.9346455109771,None,4.0,5.677603320917115,1248.9346455109771,None,1248.9346455109771,None,1248.9346455109771,None,1,2022_Apr_22_1101,Semantic-hierachy,2021.1.2,
325,Trial # 326,layer0-5_T3_to_T5.jpg,layer0-5/layer0-5_T3_to_T5.jpg,TT,layer0-5,,,,,,,,,0.0,25.0,25.0,25.0,1255.3051480480935,None,1.0,2.156834169989452,1255.3051480480935,None,1255.3051480480935,None,1255.3051480480935,None,1,2022_Apr_22_1101,Semantic-hierachy,2021.1.2,
326,Trial # 327,layer6-8_O8_to_T12.jpg,layer6-8/layer6-8_O8_to_T12.jpg,OT,layer6-8,,,,,,,,,0.0,26.0,26.0,26.0,1257.8050607289188,None,3.0,3.134444189025089,1257.8050607289188,None,1257.8050607289188,None,1257.8050607289188,None,1,2022_Apr_22_1101,Semantic-hierachy,2021.1.2,
327,Trial # 328,layer9-17_T11_to_T4.jpg,layer9-17/layer9-17_T11_to_T4.jpg,TT,layer9-17,,,,,,,,,0.0,27.0,27.0,27.0,1261.2724209509324,None,2.0,2.178135543130338,1261.2724209509324,None,1261.2724209509324,None,1261.2724209509324,None,1,2022_Apr_22_1101,Semantic-hierachy,2021.1.2,
328,Trial # 329,layer9-17_O6_to_T2.jpg,layer9-17/layer9-17_O6_to_T2.jpg,OT,layer9-17,,,,,,,,,0.0,28.0,28.0,28.0,1264.2411744000856,None,2.0,1.527401007944718,1264.2411744000856,None,1264.2411744000856,None,1264.2411744000856,None,1,2022_Apr_22_1101,Semantic-hierachy,2021.1.2,
329,Trial # 330,layer9-17_T10_to_T9.jpg,layer9-17/layer9-17_T10_to_T9.jpg,TT,layer9-17,,,,,,,,,0.0,29.0,29.0,29.0,1265.9081617989575,None,2.0,2.036952351918444,1265.9081617989575,None,1265.9081617989575,None,1265.9081617989575,None,1,2022_Apr_22_1101,Semantic-hierachy,2021.1.2,
330,Trial # 331,layer0-5_O2_to_O3.jpg,layer0-5/layer0-5_O2_to_O3.jpg,OO,layer0-5,,,,,,,,,0.0,30.0,30.0,30.0,1271.89250159706,None,1.0,1.9303287419024853,1271.89250159706,None,1271.89250159706,None,1271.89250159706,None,1,2022_Apr_22_1101,Semantic-hierachy,2021.1.2,
331,Trial # 332,layer6-8_O1_to_O12.jpg,layer6-8/layer6-8_O1_to_O12.jpg,OO,layer6-8,,,,,,,,,0.0,31.0,31.0,31.0,1274.143022007076,None,2.0,5.143262513913214,1274.143022007076,None,1274.143022007076,None,1274.143022007076,None,1,2022_Apr_22_1101,Semantic-hierachy,2021.1.2,
332,Trial # 333,layer0-5_O5_to_T12.jpg,layer0-5/layer0-5_O5_to_T12.jpg,OT,layer0-5,,,,,,,,,0.0,32.0,32.0,32.0,1279.9626386419404,None,1.0,2.390319924103096,1279.9626386419404,None,1279.9626386419404,None,1279.9626386419404,None,1,2022_Apr_22_1101,Semantic-hierachy,2021.1.2,
333,Trial # 334,layer9-17_O11_to_T6.jpg,layer9-17/layer9-17_O11_to_T6.jpg,OT,layer9-17,,,,,,,,,0.0,33.0,33.0,33.0,1282.662368302932,None,4.0,2.560883081983775,1282.662368302932,None,1282.662368302932,None,1282.662368302932,None,1,2022_Apr_22_1101,Semantic-hierachy,2021.1.2,
334,Trial # 335,layer0-5_O4_to_T1.jpg,layer0-5/layer0-5_O4_to_T1.jpg,OT,layer0-5,,,,,,,,,0.0,34.0,34.0,34.0,1285.546791106928,None,1.0,1.957610540091992,1285.546791106928,None,1285.546791106928,None,1285.546791106928,None,1,2022_Apr_22_1101,Semantic-hierachy,2021.1.2,
335,Trial # 336,layer6-8_T1_to_T6.jpg,layer6-8/layer6-8_T1_to_T6.jpg,TT,layer6-8,,,,,,,,,0.0,35.0,35.0,35.0,1287.7301153580192,None,4.0,2.803901166189462,1287.7301153580192,None,1287.7301153580192,None,1287.7301153580192,None,1,2022_Apr_22_1101,Semantic-hierachy,2021.1.2,
336,Trial # 337,layer0-5_O12_to_O6.jpg,layer0-5/layer0-5_O12_to_O6.jpg,OO,layer0-5,,,,,,,,,0.0,36.0,36.0,36.0,1291.648975549033,None,1.0,1.7791465590707958,1291.648975549033,None,1291.648975549033,None,1291.648975549033,None,1,2022_Apr_22_1101,Semantic-hierachy,2021.1.2,
337,Trial # 338,layer0-5_O1_to_O10.jpg,layer0-5/layer0-5_O1_to_O10.jpg,OO,layer0-5,,,,,,,,,0.0,37.0,37.0,37.0,1293.6652195649222,None,1.0,2.944357524160296,1293.6652195649222,None,1293.6652195649222,None,1293.6652195649222,None,1,2022_Apr_22_1101,Semantic-hierachy,2021.1.2,
338,Trial # 339,layer0-5_O9_to_T9.jpg,layer0-5/layer0-5_O9_to_T9.jpg,OT,layer0-5,,,,,,,,,0.0,38.0,38.0,38.0,1297.649826058885,None,1.0,1.4302050669211894,1297.649826058885,None,1297.649826058885,None,1297.649826058885,None,1,2022_Apr_22_1101,Semantic-hierachy,2021.1.2,
339,Trial # 340,layer6-8_O6_to_T10.jpg,layer6-8/layer6-8_O6_to_T10.jpg,OT,layer6-8,,,,,,,,,0.0,39.0,39.0,39.0,1300.451862399932,None,3.0,1.9073213490191847,1300.451862399932,None,1300.451862399932,None,1300.451862399932,None,1,2022_Apr_22_1101,Semantic-hierachy,2021.1.2,
340,Trial # 341,layer9-17_O3_to_T3.jpg,layer9-17/layer9-17_O3_to_T3.jpg,OT,layer9-17,,,,,,,,,0.0,40.0,40.0,40.0,1303.3515379040036,None,2.0,2.046166316838935,1303.3515379040036,None,1303.3515379040036,None,1303.3515379040036,None,1,2022_Apr_22_1101,Semantic-hierachy,2021.1.2,
341,Trial # 342,layer0-5_O8_to_T8.jpg,layer0-5/layer0-5_O8_to_T8.jpg,OT,layer0-5,,,,,,,,,0.0,41.0,41.0,41.0,1305.7023506320547,None,4.0,1.9394116441253573,1305.7023506320547,None,1305.7023506320547,None,1305.7023506320547,None,1,2022_Apr_22_1101,Semantic-hierachy,2021.1.2,
342,Trial # 343,layer9-17_O11_to_O3.jpg,layer9-17/layer9-17_O11_to_O3.jpg,OO,layer9-17,,,,,,,,,0.0,42.0,42.0,42.0,1308.0197173620109,None,2.0,2.047699855873361,1308.0197173620109,None,1308.0197173620109,None,1308.0197173620109,None,1,2022_Apr_22_1101,Semantic-hierachy,2021.1.2,
343,Trial # 344,layer9-17_O10_to_T12.jpg,layer9-17/layer9-17_O10_to_T12.jpg,OT,layer9-17,,,,,,,,,0.0,43.0,43.0,43.0,1310.4046495980583,None,2.0,1.558298619929701,1310.4046495980583,None,1310.4046495980583,None,1310.4046495980583,None,1,2022_Apr_22_1101,Semantic-hierachy,2021.1.2,
344,Trial # 345,layer6-8_T3_to_T6.jpg,layer6-8/layer6-8_T3_to_T6.jpg,TT,layer6-8,,,,,,,,,0.0,44.0,44.0,44.0,1312.3388845669106,None,2.0,2.014706365065649,1312.3388845669106,None,1312.3388845669106,None,1312.3388845669106,None,1,2022_Apr_22_1101,Semantic-hierachy,2021.1.2,
345,Trial # 346,layer6-8_O1_to_O4.jpg,layer6-8/layer6-8_O1_to_O4.jpg,OO,layer6-8,,,,,,,,,0.0,45.0,45.0,45.0,1314.6724839620292,None,2.0,7.1570664080791175,1314.6724839620292,None,1314.6724839620292,None,1314.6724839620292,None,1,2022_Apr_22_1101,Semantic-hierachy,2021.1.2,
346,Trial # 347,layer0-5_O8_to_T3.jpg,layer0-5/layer0-5_O8_to_T3.jpg,OT,layer0-5,,,,,,,,,0.0,46.0,46.0,46.0,1322.3917163610458,None,1.0,1.6304552059154958,1322.3917163610458,None,1322.3917163610458,None,1322.3917163610458,None,1,2022_Apr_22_1101,Semantic-hierachy,2021.1.2,
347,Trial # 348,layer9-17_T2_to_T7.jpg,layer9-17/layer9-17_T2_to_T7.jpg,TT,layer9-17,,,,,,,,,0.0,47.0,47.0,47.0,1324.42590295407,None,2.0,1.8566416408866644,1324.42590295407,None,1324.42590295407,None,1324.42590295407,None,1,2022_Apr_22_1101,Semantic-hierachy,2021.1.2,
348,Trial # 349,layer0-5_O9_to_T4.jpg,layer0-5/layer0-5_O9_to_T4.jpg,OT,layer0-5,,,,,,,,,0.0,48.0,48.0,48.0,1327.026528388029,None,1.0,1.8284872719086709,1327.026528388029,None,1327.026528388029,None,1327.026528388029,None,1,2022_Apr_22_1101,Semantic-hierachy,2021.1.2,
349,Trial # 350,layer9-17_T12_to_T9.jpg,layer9-17/layer9-17_T12_to_T9.jpg,TT,layer9-17,,,,,,,,,0.0,49.0,49.0,49.0,1329.1257570050657,None,2.0,1.5597752721514553,1329.1257570050657,None,1329.1257570050657,None,1329.1257570050657,None,1,2022_Apr_22_1101,Semantic-hierachy,2021.1.2,
350,Trial # 351,layer6-8_O11_to_O6.jpg,layer6-8/layer6-8_O11_to_O6.jpg,OO,layer6-8,,,,,,,,,0.0,50.0,50.0,50.0,1331.0113078090362,None,2.0,1.6291630330961198,1331.0113078090362,None,1331.0113078090362,None,1331.0113078090362,None,1,2022_Apr_22_1101,Semantic-hierachy,2021.1.2,
351,Trial # 352,layer0-5_O10_to_O11.jpg,layer0-5/layer0-5_O10_to_O11.jpg,OO,layer0-5,,,,,,,,,0.0,51.0,51.0,51.0,1332.944092379883,None,2.0,1.0966201359406114,1332.944092379883,None,1332.944092379883,None,1332.944092379883,None,1,2022_Apr_22_1101,Semantic-hierachy,2021.1.2,
352,Trial # 353,layer9-17_O4_to_T7.jpg,layer9-17/layer9-17_O4_to_T7.jpg,OT,layer9-17,,,,,,,,,0.0,52.0,52.0,52.0,1334.361974048894,None,2.0,1.8623642190359533,1334.361974048894,None,1334.361974048894,None,1334.361974048894,None,1,2022_Apr_22_1101,Semantic-hierachy,2021.1.2,
353,Trial # 354,layer0-5_O2_to_T11.jpg,layer0-5/layer0-5_O2_to_T11.jpg,OT,layer0-5,,,,,,,,,0.0,53.0,53.0,53.0,1336.4797810290474,None,1.0,1.855984560912475,1336.4797810290474,None,1336.4797810290474,None,1336.4797810290474,None,1,2022_Apr_22_1101,Semantic-hierachy,2021.1.2,
354,Trial # 355,layer9-17_O5_to_O6.jpg,layer9-17/layer9-17_O5_to_O6.jpg,OO,layer9-17,,,,,,,,,0.0,54.0,54.0,54.0,1338.645478300983,None,2.0,1.6936655389145017,1338.645478300983,None,1338.645478300983,None,1338.645478300983,None,1,2022_Apr_22_1101,Semantic-hierachy,2021.1.2,
355,Trial # 356,layer6-8_O5_to_T10.jpg,layer6-8/layer6-8_O5_to_T10.jpg,OT,layer6-8,,,,,,,,,0.0,55.0,55.0,55.0,1341.4468478509225,None,3.0,5.1861063910182565,1341.4468478509225,None,1341.4468478509225,None,1341.4468478509225,None,1,2022_Apr_22_1101,Semantic-hierachy,2021.1.2,
356,Trial # 357,layer6-8_T3_to_T4.jpg,layer6-8/layer6-8_T3_to_T4.jpg,TT,layer6-8,,,,,,,,,0.0,56.0,56.0,56.0,1347.332337710075,None,4.0,3.5476533928886056,1347.332337710075,None,1347.332337710075,None,1347.332337710075,None,1,2022_Apr_22_1101,Semantic-hierachy,2021.1.2,
357,Trial # 358,layer6-8_T4_to_T8.jpg,layer6-8/layer6-8_T4_to_T8.jpg,TT,layer6-8,,,,,,,,,0.0,57.0,57.0,57.0,1352.8837819609323,None,4.0,1.9349662640597671,1352.8837819609323,None,1352.8837819609323,None,1352.8837819609323,None,1,2022_Apr_22_1101,Semantic-hierachy,2021.1.2,
358,Trial # 359,layer0-5_O2_to_T4.jpg,layer0-5/layer0-5_O2_to_T4.jpg,OT,layer0-5,,,,,,,,,0.0,58.0,58.0,58.0,1368.0724977850914,None,1.0,1.9024594279471785,1368.0724977850914,None,1368.0724977850914,None,1368.0724977850914,None,1,2022_Apr_22_1101,Semantic-hierachy,2021.1.2,
359,Trial # 360,layer0-5_O4_to_O7.jpg,layer0-5/layer0-5_O4_to_O7.jpg,OO,layer0-5,,,,,,,,,0.0,59.0,59.0,59.0,1370.356122360099,None,1.0,2.416945256991312,1370.356122360099,None,1370.356122360099,None,1370.356122360099,None,1,2022_Apr_22_1101,Semantic-hierachy,2021.1.2,
360,Trial # 361,layer9-17_O12_to_T7.jpg,layer9-17/layer9-17_O12_to_T7.jpg,OT,layer9-17,,,,,,,,,0.0,60.0,60.0,60.0,1373.4728726479225,None,2.0,1.6930374060757458,1373.4728726479225,None,1373.4728726479225,None,1373.4728726479225,None,1,2022_Apr_22_1101,Semantic-hierachy,2021.1.2,
361,Trial # 362,layer6-8_O11_to_T8.jpg,layer6-8/layer6-8_O11_to_T8.jpg,OT,layer6-8,,,,,,,,,0.0,61.0,61.0,61.0,1375.7244039990474,None,3.0,1.8244823990389705,1375.7244039990474,None,1375.7244039990474,None,1375.7244039990474,None,1,2022_Apr_22_1101,Semantic-hierachy,2021.1.2,
362,Trial # 363,layer9-17_O10_to_T6.jpg,layer9-17/layer9-17_O10_to_T6.jpg,OT,layer9-17,,,,,,,,,0.0,62.0,62.0,62.0,1377.891869289102,None,2.0,3.817254684865474,1377.891869289102,None,1377.891869289102,None,1377.891869289102,None,1,2022_Apr_22_1101,Semantic-hierachy,2021.1.2,
363,Trial # 364,layer0-5_O5_to_T7.jpg,layer0-5/layer0-5_O5_to_T7.jpg,OT,layer0-5,,,,,,,,,0.0,63.0,63.0,63.0,1382.326318596024,None,1.0,1.6229485620278865,1382.326318596024,None,1382.326318596024,None,1382.326318596024,None,1,2022_Apr_22_1101,Semantic-hierachy,2021.1.2,
364,Trial # 365,layer9-17_O11_to_O2.jpg,layer9-17/layer9-17_O11_to_O2.jpg,OO,layer9-17,,,,,,,,,0.0,64.0,64.0,64.0,1384.3270604740828,None,2.0,1.653499451931566,1384.3270604740828,None,1384.3270604740828,None,1384.3270604740828,None,1,2022_Apr_22_1101,Semantic-hierachy,2021.1.2,
