,Trial_num,image_name,image_path,pair_type,layers,block1.thisRepN,block1.thisTrialN,block1.thisN,block1.thisIndex,block2.thisRepN,block2.thisTrialN,block2.thisN,block2.thisIndex,block3.thisRepN,block3.thisTrialN,block3.thisN,block3.thisIndex,image_8.started,image_8.stopped,selected_semantic.response,selected_semantic.rt,selected_semantic.started,selected_semantic.stopped,Instruction.started,Instruction.stopped,Trial_number.started,Trial_number.stopped,session,date,expName,psychopyVersion,Unnamed: 33
0,Trial # 1,layer0-5_O2_to_T1.jpg,layer0-5/layer0-5_O2_to_T1.jpg,OT,layer0-5,0.0,0.0,0.0,0.0,,,,,,,,,45.74931995384395,None,1.0,10.073676211060956,45.74931995384395,None,45.74931995384395,None,45.74931995384395,None,1,2022_Apr_12_1603,Semantic-hierachy,2021.1.2,
1,Trial # 2,layer0-5_O11_to_T7.jpg,layer0-5/layer0-5_O11_to_T7.jpg,OT,layer0-5,0.0,1.0,1.0,1.0,,,,,,,,,72.89203481702134,None,1.0,6.597458785865456,72.89203481702134,None,72.89203481702134,None,72.89203481702134,None,1,2022_Apr_12_1603,Semantic-hierachy,2021.1.2,
2,Trial # 3,layer6-8_O3_to_O5.jpg,layer6-8/layer6-8_O3_to_O5.jpg,OO,layer6-8,0.0,2.0,2.0,2.0,,,,,,,,,80.30955393984914,None,4.0,3.0770214449148625,80.30955393984914,None,80.30955393984914,None,80.30955393984914,None,1,2022_Apr_12_1603,Semantic-hierachy,2021.1.2,
3,Trial # 4,layer6-8_O11_to_O4.jpg,layer6-8/layer6-8_O11_to_O4.jpg,OO,layer6-8,0.0,3.0,3.0,3.0,,,,,,,,,83.8949430019129,None,3.0,1.84982816898264,83.8949430019129,None,83.8949430019129,None,83.8949430019129,None,1,2022_Apr_12_1603,Semantic-hierachy,2021.1.2,
4,Trial # 5,layer6-8_O8_to_T8.jpg,layer6-8/layer6-8_O8_to_T8.jpg,OT,layer6-8,0.0,4.0,4.0,4.0,,,,,,,,,86.44566804193892,None,3.0,1.6770598678849638,86.44566804193892,None,86.44566804193892,None,86.44566804193892,None,1,2022_Apr_12_1603,Semantic-hierachy,2021.1.2,
5,Trial # 6,layer0-5_O11_to_O8.jpg,layer0-5/layer0-5_O11_to_O8.jpg,OO,layer0-5,0.0,5.0,5.0,5.0,,,,,,,,,88.74678240297362,None,1.0,2.624372258083895,88.74678240297362,None,88.74678240297362,None,88.74678240297362,None,1,2022_Apr_12_1603,Semantic-hierachy,2021.1.2,
6,Trial # 7,layer0-5_T10_to_T11.jpg,layer0-5/layer0-5_T10_to_T11.jpg,TT,layer0-5,0.0,6.0,6.0,6.0,,,,,,,,,91.6295776120387,None,1.0,1.510445657884702,91.6295776120387,None,91.6295776120387,None,91.6295776120387,None,1,2022_Apr_12_1603,Semantic-hierachy,2021.1.2,
7,Trial # 8,layer9-17_O6_to_O9.jpg,layer9-17/layer9-17_O6_to_O9.jpg,OO,layer9-17,0.0,7.0,7.0,7.0,,,,,,,,,93.3148638010025,None,2.0,2.026313084177673,93.3148638010025,None,93.3148638010025,None,93.3148638010025,None,1,2022_Apr_12_1603,Semantic-hierachy,2021.1.2,
8,Trial # 9,layer6-8_O12_to_O9.jpg,layer6-8/layer6-8_O12_to_O9.jpg,OO,layer6-8,0.0,8.0,8.0,8.0,,,,,,,,,95.59778836392798,None,3.0,1.6199045001994818,95.59778836392798,None,95.59778836392798,None,95.59778836392798,None,1,2022_Apr_12_1603,Semantic-hierachy,2021.1.2,
9,Trial # 10,layer0-5_O10_to_T2.jpg,layer0-5/layer0-5_O10_to_T2.jpg,OT,layer0-5,0.0,9.0,9.0,9.0,,,,,,,,,97.39827831601724,None,4.0,2.4182736449874938,97.39827831601724,None,97.39827831601724,None,97.39827831601724,None,1,2022_Apr_12_1603,Semantic-hierachy,2021.1.2,
10,Trial # 11,layer9-17_T10_to_T2.jpg,layer9-17/layer9-17_T10_to_T2.jpg,TT,layer9-17,0.0,10.0,10.0,10.0,,,,,,,,,100.248848462943,None,3.0,6.988737416919321,100.248848462943,None,100.248848462943,None,100.248848462943,None,1,2022_Apr_12_1603,Semantic-hierachy,2021.1.2,
11,Trial # 12,layer6-8_T6_to_T7.jpg,layer6-8/layer6-8_T6_to_T7.jpg,TT,layer6-8,0.0,11.0,11.0,11.0,,,,,,,,,107.56927145994268,None,3.0,1.5866317299660295,107.56927145994268,None,107.56927145994268,None,107.56927145994268,None,1,2022_Apr_12_1603,Semantic-hierachy,2021.1.2,
12,Trial # 13,layer9-17_O10_to_T2.jpg,layer9-17/layer9-17_O10_to_T2.jpg,OT,layer9-17,0.0,12.0,12.0,12.0,,,,,,,,,109.3700014988426,None,2.0,1.5498590669594705,109.3700014988426,None,109.3700014988426,None,109.3700014988426,None,1,2022_Apr_12_1603,Semantic-hierachy,2021.1.2,
13,Trial # 14,layer6-8_T4_to_T7.jpg,layer6-8/layer6-8_T4_to_T7.jpg,TT,layer6-8,0.0,13.0,13.0,13.0,,,,,,,,,111.91945532988755,None,3.0,2.120198267046362,111.91945532988755,None,111.91945532988755,None,111.91945532988755,None,1,2022_Apr_12_1603,Semantic-hierachy,2021.1.2,
14,Trial # 15,layer9-17_O8_to_T2.jpg,layer9-17/layer9-17_O8_to_T2.jpg,OT,layer9-17,0.0,14.0,14.0,14.0,,,,,,,,,114.57029314595276,None,2.0,1.8163395549636328,114.57029314595276,None,114.57029314595276,None,114.57029314595276,None,1,2022_Apr_12_1603,Semantic-hierachy,2021.1.2,
15,Trial # 16,layer0-5_T6_to_T9.jpg,layer0-5/layer0-5_T6_to_T9.jpg,TT,layer0-5,0.0,15.0,15.0,15.0,,,,,,,,,116.53765372303316,None,1.0,1.7382422271184623,116.53765372303316,None,116.53765372303316,None,116.53765372303316,None,1,2022_Apr_12_1603,Semantic-hierachy,2021.1.2,
16,Trial # 17,layer0-5_O11_to_O12.jpg,layer0-5/layer0-5_O11_to_O12.jpg,OO,layer0-5,0.0,16.0,16.0,16.0,,,,,,,,,118.52165985107422,None,1.0,1.2203818960115314,118.52165985107422,None,118.52165985107422,None,118.52165985107422,None,1,2022_Apr_12_1603,Semantic-hierachy,2021.1.2,
17,Trial # 18,layer0-5_T11_to_T5.jpg,layer0-5/layer0-5_T11_to_T5.jpg,TT,layer0-5,0.0,17.0,17.0,17.0,,,,,,,,,119.98874451988377,None,1.0,1.0633163000456989,119.98874451988377,None,119.98874451988377,None,119.98874451988377,None,1,2022_Apr_12_1603,Semantic-hierachy,2021.1.2,
18,Trial # 19,layer0-5_O6_to_T12.jpg,layer0-5/layer0-5_O6_to_T12.jpg,OT,layer0-5,0.0,18.0,18.0,18.0,,,,,,,,,121.28891733684576,None,1.0,1.1697636891622096,121.28891733684576,None,121.28891733684576,None,121.28891733684576,None,1,2022_Apr_12_1603,Semantic-hierachy,2021.1.2,
19,Trial # 20,layer6-8_T6_to_T8.jpg,layer6-8/layer6-8_T6_to_T8.jpg,TT,layer6-8,0.0,19.0,19.0,19.0,,,,,,,,,122.70634692697786,None,3.0,2.2372035689186305,122.70634692697786,None,122.70634692697786,None,122.70634692697786,None,1,2022_Apr_12_1603,Semantic-hierachy,2021.1.2,
20,Trial # 21,layer9-17_T2_to_T5.jpg,layer9-17/layer9-17_T2_to_T5.jpg,TT,layer9-17,0.0,20.0,20.0,20.0,,,,,,,,,125.27345364494248,None,2.0,1.3229440618306398,125.27345364494248,None,125.27345364494248,None,125.27345364494248,None,1,2022_Apr_12_1603,Semantic-hierachy,2021.1.2,
21,Trial # 22,layer6-8_O2_to_O6.jpg,layer6-8/layer6-8_O2_to_O6.jpg,OO,layer6-8,0.0,21.0,21.0,21.0,,,,,,,,,126.87396775791422,None,2.0,1.802331260871142,126.87396775791422,None,126.87396775791422,None,126.87396775791422,None,1,2022_Apr_12_1603,Semantic-hierachy,2021.1.2,
22,Trial # 23,layer9-17_O3_to_T12.jpg,layer9-17/layer9-17_O3_to_T12.jpg,OT,layer9-17,0.0,22.0,22.0,22.0,,,,,,,,,128.87486409093253,None,2.0,1.2180054581258446,128.87486409093253,None,128.87486409093253,None,128.87486409093253,None,1,2022_Apr_12_1603,Semantic-hierachy,2021.1.2,
23,Trial # 24,layer0-5_O11_to_O3.jpg,layer0-5/layer0-5_O11_to_O3.jpg,OO,layer0-5,0.0,23.0,23.0,23.0,,,,,,,,,130.34188787592575,None,1.0,1.7708791207987815,130.34188787592575,None,130.34188787592575,None,130.34188787592575,None,1,2022_Apr_12_1603,Semantic-hierachy,2021.1.2,
24,Trial # 25,layer6-8_O2_to_O9.jpg,layer6-8/layer6-8_O2_to_O9.jpg,OO,layer6-8,0.0,24.0,24.0,24.0,,,,,,,,,132.47531195706688,None,4.0,2.459668057970702,132.47531195706688,None,132.47531195706688,None,132.47531195706688,None,1,2022_Apr_12_1603,Semantic-hierachy,2021.1.2,
25,Trial # 26,layer9-17_O10_to_O8.jpg,layer9-17/layer9-17_O10_to_O8.jpg,OO,layer9-17,0.0,25.0,25.0,25.0,,,,,,,,,135.14300542906858,None,3.0,4.891140643972904,135.14300542906858,None,135.14300542906858,None,135.14300542906858,None,1,2022_Apr_12_1603,Semantic-hierachy,2021.1.2,
26,Trial # 27,layer9-17_T4_to_T6.jpg,layer9-17/layer9-17_T4_to_T6.jpg,TT,layer9-17,0.0,26.0,26.0,26.0,,,,,,,,,141.06151534803212,None,2.0,1.5690627838484943,141.06151534803212,None,141.06151534803212,None,141.06151534803212,None,1,2022_Apr_12_1603,Semantic-hierachy,2021.1.2,
27,Trial # 28,layer6-8_O7_to_T8.jpg,layer6-8/layer6-8_O7_to_T8.jpg,OT,layer6-8,0.0,27.0,27.0,27.0,,,,,,,,,142.8303111649584,None,3.0,3.303298815153539,142.8303111649584,None,142.8303111649584,None,142.8303111649584,None,1,2022_Apr_12_1603,Semantic-hierachy,2021.1.2,
28,Trial # 29,layer6-8_T4_to_T5.jpg,layer6-8/layer6-8_T4_to_T5.jpg,TT,layer6-8,0.0,28.0,28.0,28.0,,,,,,,,,146.44663915596902,None,3.0,3.9103933651931584,146.44663915596902,None,146.44663915596902,None,146.44663915596902,None,1,2022_Apr_12_1603,Semantic-hierachy,2021.1.2,
29,Trial # 30,layer6-8_T10_to_T9.jpg,layer6-8/layer6-8_T10_to_T9.jpg,TT,layer6-8,0.0,29.0,29.0,29.0,,,,,,,,,150.61441945284605,None,4.0,2.0193362089339644,150.61441945284605,None,150.61441945284605,None,150.61441945284605,None,1,2022_Apr_12_1603,Semantic-hierachy,2021.1.2,
30,Trial # 31,layer9-17_O1_to_O8.jpg,layer9-17/layer9-17_O1_to_O8.jpg,OO,layer9-17,0.0,30.0,30.0,30.0,,,,,,,,,152.94976884592324,None,2.0,2.6581820328719914,152.94976884592324,None,152.94976884592324,None,152.94976884592324,None,1,2022_Apr_12_1603,Semantic-hierachy,2021.1.2,
31,Trial # 32,layer9-17_O12_to_O7.jpg,layer9-17/layer9-17_O12_to_O7.jpg,OO,layer9-17,0.0,31.0,31.0,31.0,,,,,,,,,155.8997428419534,None,3.0,2.258545394986868,155.8997428419534,None,155.8997428419534,None,155.8997428419534,None,1,2022_Apr_12_1603,Semantic-hierachy,2021.1.2,
32,Trial # 33,layer9-17_T10_to_T12.jpg,layer9-17/layer9-17_T10_to_T12.jpg,TT,layer9-17,0.0,32.0,32.0,32.0,,,,,,,,,158.4847849230282,None,3.0,1.60696872882545,158.4847849230282,None,158.4847849230282,None,158.4847849230282,None,1,2022_Apr_12_1603,Semantic-hierachy,2021.1.2,
33,Trial # 34,layer0-5_T2_to_T6.jpg,layer0-5/layer0-5_T2_to_T6.jpg,TT,layer0-5,0.0,33.0,33.0,33.0,,,,,,,,,160.33445693389513,None,1.0,3.5437458700034767,160.33445693389513,None,160.33445693389513,None,160.33445693389513,None,1,2022_Apr_12_1603,Semantic-hierachy,2021.1.2,
34,Trial # 35,layer6-8_T11_to_T2.jpg,layer6-8/layer6-8_T11_to_T2.jpg,TT,layer6-8,0.0,34.0,34.0,34.0,,,,,,,,,164.30217941803858,None,3.0,1.8898859519977125,164.30217941803858,None,164.30217941803858,None,164.30217941803858,None,1,2022_Apr_12_1603,Semantic-hierachy,2021.1.2,
35,Trial # 36,layer6-8_O4_to_T3.jpg,layer6-8/layer6-8_O4_to_T3.jpg,OT,layer6-8,0.0,35.0,35.0,35.0,,,,,,,,,166.56987135484815,None,3.0,1.6774301631376147,166.56987135484815,None,166.56987135484815,None,166.56987135484815,None,1,2022_Apr_12_1603,Semantic-hierachy,2021.1.2,
36,Trial # 37,layer6-8_O3_to_T11.jpg,layer6-8/layer6-8_O3_to_T11.jpg,OT,layer6-8,0.0,36.0,36.0,36.0,,,,,,,,,168.52103132684715,None,2.0,1.5838351619895548,168.52103132684715,None,168.52103132684715,None,168.52103132684715,None,1,2022_Apr_12_1603,Semantic-hierachy,2021.1.2,
37,Trial # 38,layer6-8_T1_to_T2.jpg,layer6-8/layer6-8_T1_to_T2.jpg,TT,layer6-8,0.0,37.0,37.0,37.0,,,,,,,,,171.00442379899323,None,3.0,3.7949186221230775,171.00442379899323,None,171.00442379899323,None,171.00442379899323,None,1,2022_Apr_12_1603,Semantic-hierachy,2021.1.2,
38,Trial # 39,layer9-17_O2_to_O6.jpg,layer9-17/layer9-17_O2_to_O6.jpg,OO,layer9-17,0.0,38.0,38.0,38.0,,,,,,,,,175.489001119975,None,4.0,2.092199184000492,175.489001119975,None,175.489001119975,None,175.489001119975,None,1,2022_Apr_12_1603,Semantic-hierachy,2021.1.2,
39,Trial # 40,layer9-17_O4_to_T2.jpg,layer9-17/layer9-17_O4_to_T2.jpg,OT,layer9-17,0.0,39.0,39.0,39.0,,,,,,,,,177.97358642099425,None,2.0,2.4059821041300893,177.97358642099425,None,177.97358642099425,None,177.97358642099425,None,1,2022_Apr_12_1603,Semantic-hierachy,2021.1.2,
40,Trial # 41,layer6-8_O5_to_T3.jpg,layer6-8/layer6-8_O5_to_T3.jpg,OT,layer6-8,0.0,40.0,40.0,40.0,,,,,,,,,180.6742354950402,None,3.0,2.302001141011715,180.6742354950402,None,180.6742354950402,None,180.6742354950402,None,1,2022_Apr_12_1603,Semantic-hierachy,2021.1.2,
41,Trial # 42,layer6-8_O2_to_O3.jpg,layer6-8/layer6-8_O2_to_O3.jpg,OO,layer6-8,0.0,41.0,41.0,41.0,,,,,,,,,183.2594362448436,None,2.0,2.191079701995477,183.2594362448436,None,183.2594362448436,None,183.2594362448436,None,1,2022_Apr_12_1603,Semantic-hierachy,2021.1.2,
42,Trial # 43,layer6-8_O1_to_T6.jpg,layer6-8/layer6-8_O1_to_T6.jpg,OT,layer6-8,0.0,42.0,42.0,42.0,,,,,,,,,185.70912385499105,None,3.0,2.061396417906508,185.70912385499105,None,185.70912385499105,None,185.70912385499105,None,1,2022_Apr_12_1603,Semantic-hierachy,2021.1.2,
43,Trial # 44,layer6-8_O2_to_T12.jpg,layer6-8/layer6-8_O2_to_T12.jpg,OT,layer6-8,0.0,43.0,43.0,43.0,,,,,,,,,188.0934532978572,None,3.0,1.124810819979757,188.0934532978572,None,188.0934532978572,None,188.0934532978572,None,1,2022_Apr_12_1603,Semantic-hierachy,2021.1.2,
44,Trial # 45,layer9-17_O2_to_O8.jpg,layer9-17/layer9-17_O2_to_O8.jpg,OO,layer9-17,0.0,44.0,44.0,44.0,,,,,,,,,189.44458315894008,None,4.0,2.273477538023144,189.44458315894008,None,189.44458315894008,None,189.44458315894008,None,1,2022_Apr_12_1603,Semantic-hierachy,2021.1.2,
45,Trial # 46,layer9-17_O10_to_O4.jpg,layer9-17/layer9-17_O10_to_O4.jpg,OO,layer9-17,0.0,45.0,45.0,45.0,,,,,,,,,192.0943587319925,None,3.0,2.324590712087229,192.0943587319925,None,192.0943587319925,None,192.0943587319925,None,1,2022_Apr_12_1603,Semantic-hierachy,2021.1.2,
46,Trial # 47,layer0-5_O1_to_O4.jpg,layer0-5/layer0-5_O1_to_O4.jpg,OO,layer0-5,0.0,46.0,46.0,46.0,,,,,,,,,194.81161276204512,None,1.0,1.9518649000674488,194.81161276204512,None,194.81161276204512,None,194.81161276204512,None,1,2022_Apr_12_1603,Semantic-hierachy,2021.1.2,
47,Trial # 48,layer0-5_T4_to_T5.jpg,layer0-5/layer0-5_T4_to_T5.jpg,TT,layer0-5,0.0,47.0,47.0,47.0,,,,,,,,,197.02955058496445,None,1.0,1.3916703308932483,197.02955058496445,None,197.02955058496445,None,197.02955058496445,None,1,2022_Apr_12_1603,Semantic-hierachy,2021.1.2,
48,Trial # 49,layer9-17_T12_to_T8.jpg,layer9-17/layer9-17_T12_to_T8.jpg,TT,layer9-17,0.0,48.0,48.0,48.0,,,,,,,,,198.6640593509656,None,2.0,1.805241597816348,198.6640593509656,None,198.6640593509656,None,198.6640593509656,None,1,2022_Apr_12_1603,Semantic-hierachy,2021.1.2,
49,Trial # 50,layer0-5_T10_to_T5.jpg,layer0-5/layer0-5_T10_to_T5.jpg,TT,layer0-5,0.0,49.0,49.0,49.0,,,,,,,,,200.7302903800737,None,1.0,2.440432998118922,200.7302903800737,None,200.7302903800737,None,200.7302903800737,None,1,2022_Apr_12_1603,Semantic-hierachy,2021.1.2,
50,Trial # 51,layer6-8_O10_to_O8.jpg,layer6-8/layer6-8_O10_to_O8.jpg,OO,layer6-8,0.0,50.0,50.0,50.0,,,,,,,,,203.51553536206484,None,3.0,3.301160864997655,203.51553536206484,None,203.51553536206484,None,203.51553536206484,None,1,2022_Apr_12_1603,Semantic-hierachy,2021.1.2,
51,Trial # 52,layer9-17_O3_to_O5.jpg,layer9-17/layer9-17_O3_to_O5.jpg,OO,layer9-17,0.0,51.0,51.0,51.0,,,,,,,,,207.2153812749312,None,2.0,1.8085318631492555,207.2153812749312,None,207.2153812749312,None,207.2153812749312,None,1,2022_Apr_12_1603,Semantic-hierachy,2021.1.2,
52,Trial # 53,layer6-8_T1_to_T12.jpg,layer6-8/layer6-8_T1_to_T12.jpg,TT,layer6-8,0.0,52.0,52.0,52.0,,,,,,,,,209.31686543487007,None,3.0,1.868660160107538,209.31686543487007,None,209.31686543487007,None,209.31686543487007,None,1,2022_Apr_12_1603,Semantic-hierachy,2021.1.2,
53,Trial # 54,layer0-5_O4_to_O9.jpg,layer0-5/layer0-5_O4_to_O9.jpg,OO,layer0-5,0.0,53.0,53.0,53.0,,,,,,,,,211.4501275930088,None,1.0,1.844594509806484,211.4501275930088,None,211.4501275930088,None,211.4501275930088,None,1,2022_Apr_12_1603,Semantic-hierachy,2021.1.2,
54,Trial # 55,layer0-5_O5_to_O9.jpg,layer0-5/layer0-5_O5_to_O9.jpg,OO,layer0-5,0.0,54.0,54.0,54.0,,,,,,,,,213.51814430300143,None,1.0,2.706925150007009,213.51814430300143,None,213.51814430300143,None,213.51814430300143,None,1,2022_Apr_12_1603,Semantic-hierachy,2021.1.2,
55,Trial # 56,layer0-5_O1_to_O2.jpg,layer0-5/layer0-5_O1_to_O2.jpg,OO,layer0-5,0.0,55.0,55.0,55.0,,,,,,,,,216.6186614278704,None,1.0,1.0854642351623625,216.6186614278704,None,216.6186614278704,None,216.6186614278704,None,1,2022_Apr_12_1603,Semantic-hierachy,2021.1.2,
56,Trial # 57,layer9-17_T12_to_T3.jpg,layer9-17/layer9-17_T12_to_T3.jpg,TT,layer9-17,0.0,56.0,56.0,56.0,,,,,,,,,217.9369521569461,None,2.0,1.8397788039874283,217.9369521569461,None,217.9369521569461,None,217.9369521569461,None,1,2022_Apr_12_1603,Semantic-hierachy,2021.1.2,
57,Trial # 58,layer0-5_O7_to_O9.jpg,layer0-5/layer0-5_O7_to_O9.jpg,OO,layer0-5,0.0,57.0,57.0,57.0,,,,,,,,,220.10290500195697,None,1.0,1.4765352609101683,220.10290500195697,None,220.10290500195697,None,220.10290500195697,None,1,2022_Apr_12_1603,Semantic-hierachy,2021.1.2,
58,Trial # 59,layer0-5_T5_to_T9.jpg,layer0-5/layer0-5_T5_to_T9.jpg,TT,layer0-5,0.0,58.0,58.0,58.0,,,,,,,,,222.0704771650489,None,1.0,1.6738237040117383,222.0704771650489,None,222.0704771650489,None,222.0704771650489,None,1,2022_Apr_12_1603,Semantic-hierachy,2021.1.2,
59,Trial # 60,layer9-17_O1_to_O9.jpg,layer9-17/layer9-17_O1_to_O9.jpg,OO,layer9-17,0.0,59.0,59.0,59.0,,,,,,,,,224.055294418009,None,1.0,6.339126945007592,224.055294418009,None,224.055294418009,None,224.055294418009,None,1,2022_Apr_12_1603,Semantic-hierachy,2021.1.2,
60,Trial # 61,layer0-5_O6_to_O7.jpg,layer0-5/layer0-5_O6_to_O7.jpg,OO,layer0-5,0.0,60.0,60.0,60.0,,,,,,,,,231.87269635195844,None,1.0,2.106570095056668,231.87269635195844,None,231.87269635195844,None,231.87269635195844,None,1,2022_Apr_12_1603,Semantic-hierachy,2021.1.2,
61,Trial # 62,layer9-17_T5_to_T6.jpg,layer9-17/layer9-17_T5_to_T6.jpg,TT,layer9-17,0.0,61.0,61.0,61.0,,,,,,,,,234.3077398629393,None,2.0,5.044670329894871,234.3077398629393,None,234.3077398629393,None,234.3077398629393,None,1,2022_Apr_12_1603,Semantic-hierachy,2021.1.2,
62,Trial # 63,layer9-17_T4_to_T9.jpg,layer9-17/layer9-17_T4_to_T9.jpg,TT,layer9-17,0.0,62.0,62.0,62.0,,,,,,,,,239.64330341806635,None,2.0,1.0950461148750037,239.64330341806635,None,239.64330341806635,None,239.64330341806635,None,1,2022_Apr_12_1603,Semantic-hierachy,2021.1.2,
63,Trial # 64,layer0-5_O11_to_T1.jpg,layer0-5/layer0-5_O11_to_T1.jpg,OT,layer0-5,0.0,63.0,63.0,63.0,,,,,,,,,240.993230030872,None,1.0,1.612947457935661,240.993230030872,None,240.993230030872,None,240.993230030872,None,1,2022_Apr_12_1603,Semantic-hierachy,2021.1.2,
64,Trial # 65,layer6-8_T5_to_T9.jpg,layer6-8/layer6-8_T5_to_T9.jpg,TT,layer6-8,0.0,64.0,64.0,64.0,,,,,,,,,242.8775033480488,None,4.0,5.681160766165704,242.8775033480488,None,242.8775033480488,None,242.8775033480488,None,1,2022_Apr_12_1603,Semantic-hierachy,2021.1.2,
65,Trial # 66,layer0-5_T4_to_T7.jpg,layer0-5/layer0-5_T4_to_T7.jpg,TT,layer0-5,0.0,65.0,65.0,65.0,,,,,,,,,248.8625322880689,None,1.0,1.5926343260798603,248.8625322880689,None,248.8625322880689,None,248.8625322880689,None,1,2022_Apr_12_1603,Semantic-hierachy,2021.1.2,
66,Trial # 67,layer0-5_O2_to_O6.jpg,layer0-5/layer0-5_O2_to_O6.jpg,OO,layer0-5,0.0,66.0,66.0,66.0,,,,,,,,,250.7957792209927,None,1.0,1.859963570954278,250.7957792209927,None,250.7957792209927,None,250.7957792209927,None,1,2022_Apr_12_1603,Semantic-hierachy,2021.1.2,
67,Trial # 68,layer9-17_O12_to_T3.jpg,layer9-17/layer9-17_O12_to_T3.jpg,OT,layer9-17,0.0,67.0,67.0,67.0,,,,,,,,,252.9976876168512,None,2.0,1.6259067261125892,252.9976876168512,None,252.9976876168512,None,252.9976876168512,None,1,2022_Apr_12_1603,Semantic-hierachy,2021.1.2,
68,Trial # 69,layer9-17_O7_to_O9.jpg,layer9-17/layer9-17_O7_to_O9.jpg,OO,layer9-17,0.0,68.0,68.0,68.0,,,,,,,,,254.8809889210388,None,1.0,8.059583541937172,254.8809889210388,None,254.8809889210388,None,254.8809889210388,None,1,2022_Apr_12_1603,Semantic-hierachy,2021.1.2,
69,Trial # 70,layer9-17_T1_to_T8.jpg,layer9-17/layer9-17_T1_to_T8.jpg,TT,layer9-17,0.0,69.0,69.0,69.0,,,,,,,,,264.6836904149968,None,3.0,2.291481032036245,264.6836904149968,None,264.6836904149968,None,264.6836904149968,None,1,2022_Apr_12_1603,Semantic-hierachy,2021.1.2,
70,Trial # 71,layer0-5_O3_to_T8.jpg,layer0-5/layer0-5_O3_to_T8.jpg,OT,layer0-5,0.0,70.0,70.0,70.0,,,,,,,,,267.2007879018784,None,1.0,1.599045170005411,267.2007879018784,None,267.2007879018784,None,267.2007879018784,None,1,2022_Apr_12_1603,Semantic-hierachy,2021.1.2,
71,Trial # 72,layer9-17_O9_to_T2.jpg,layer9-17/layer9-17_O9_to_T2.jpg,OT,layer9-17,0.0,71.0,71.0,71.0,,,,,,,,,269.1016056248918,None,3.0,1.8890106501057744,269.1016056248918,None,269.1016056248918,None,269.1016056248918,None,1,2022_Apr_12_1603,Semantic-hierachy,2021.1.2,
72,Trial # 73,layer9-17_O5_to_O7.jpg,layer9-17/layer9-17_O5_to_O7.jpg,OO,layer9-17,0.0,72.0,72.0,72.0,,,,,,,,,271.20181678794324,None,2.0,2.6620376619976014,271.20181678794324,None,271.20181678794324,None,271.20181678794324,None,1,2022_Apr_12_1603,Semantic-hierachy,2021.1.2,
73,Trial # 74,layer0-5_T11_to_T9.jpg,layer0-5/layer0-5_T11_to_T9.jpg,TT,layer0-5,0.0,73.0,73.0,73.0,,,,,,,,,274.03744796896353,None,1.0,1.478201734833419,274.03744796896353,None,274.03744796896353,None,274.03744796896353,None,1,2022_Apr_12_1603,Semantic-hierachy,2021.1.2,
74,Trial # 75,layer0-5_O11_to_T12.jpg,layer0-5/layer0-5_O11_to_T12.jpg,OT,layer0-5,0.0,74.0,74.0,74.0,,,,,,,,,275.7031423370354,None,1.0,1.2418866660445929,275.7031423370354,None,275.7031423370354,None,275.7031423370354,None,1,2022_Apr_12_1603,Semantic-hierachy,2021.1.2,
75,Trial # 76,layer9-17_T7_to_T9.jpg,layer9-17/layer9-17_T7_to_T9.jpg,TT,layer9-17,0.0,75.0,75.0,75.0,,,,,,,,,277.2704739919864,None,4.0,2.854444348020479,277.2704739919864,None,277.2704739919864,None,277.2704739919864,None,1,2022_Apr_12_1603,Semantic-hierachy,2021.1.2,
76,Trial # 77,layer6-8_O6_to_T2.jpg,layer6-8/layer6-8_O6_to_T2.jpg,OT,layer6-8,0.0,76.0,76.0,76.0,,,,,,,,,280.321617025882,None,4.0,2.1469314000569284,280.321617025882,None,280.321617025882,None,280.321617025882,None,1,2022_Apr_12_1603,Semantic-hierachy,2021.1.2,
77,Trial # 78,layer9-17_T4_to_T5.jpg,layer9-17/layer9-17_T4_to_T5.jpg,TT,layer9-17,0.0,77.0,77.0,77.0,,,,,,,,,282.63968326803297,None,2.0,1.630793048068881,282.63968326803297,None,282.63968326803297,None,282.63968326803297,None,1,2022_Apr_12_1603,Semantic-hierachy,2021.1.2,
78,Trial # 79,layer0-5_T2_to_T4.jpg,layer0-5/layer0-5_T2_to_T4.jpg,TT,layer0-5,0.0,78.0,78.0,78.0,,,,,,,,,284.5239899910521,None,1.0,1.4870052749756724,284.5239899910521,None,284.5239899910521,None,284.5239899910521,None,1,2022_Apr_12_1603,Semantic-hierachy,2021.1.2,
79,Trial # 80,layer0-5_T2_to_T8.jpg,layer0-5/layer0-5_T2_to_T8.jpg,TT,layer0-5,0.0,79.0,79.0,79.0,,,,,,,,,286.35736241494305,None,1.0,1.4093182850629091,286.35736241494305,None,286.35736241494305,None,286.35736241494305,None,1,2022_Apr_12_1603,Semantic-hierachy,2021.1.2,
80,Trial # 81,layer9-17_T3_to_T9.jpg,layer9-17/layer9-17_T3_to_T9.jpg,TT,layer9-17,0.0,80.0,80.0,80.0,,,,,,,,,288.47508068801835,None,2.0,3.063730002846569,288.47508068801835,None,288.47508068801835,None,288.47508068801835,None,1,2022_Apr_12_1603,Semantic-hierachy,2021.1.2,
81,Trial # 82,layer9-17_O2_to_O5.jpg,layer9-17/layer9-17_O2_to_O5.jpg,OO,layer9-17,0.0,81.0,81.0,81.0,,,,,,,,,292.075413167011,None,2.0,1.3806031988933682,292.075413167011,None,292.075413167011,None,292.075413167011,None,1,2022_Apr_12_1603,Semantic-hierachy,2021.1.2,
82,Trial # 83,layer6-8_O6_to_O7.jpg,layer6-8/layer6-8_O6_to_O7.jpg,OO,layer6-8,0.0,82.0,82.0,82.0,,,,,,,,,293.6760703579057,None,4.0,1.8114941199310124,293.6760703579057,None,293.6760703579057,None,293.6760703579057,None,1,2022_Apr_12_1603,Semantic-hierachy,2021.1.2,
83,Trial # 84,layer9-17_O11_to_T1.jpg,layer9-17/layer9-17_O11_to_T1.jpg,OT,layer9-17,0.0,83.0,83.0,83.0,,,,,,,,,296.0940873438958,None,2.0,1.6473870121408254,296.0940873438958,None,296.0940873438958,None,296.0940873438958,None,1,2022_Apr_12_1603,Semantic-hierachy,2021.1.2,
84,Trial # 85,layer6-8_O5_to_T12.jpg,layer6-8/layer6-8_O5_to_T12.jpg,OT,layer6-8,0.0,84.0,84.0,84.0,,,,,,,,,298.04404845205136,None,3.0,1.742650731932372,298.04404845205136,None,298.04404845205136,None,298.04404845205136,None,1,2022_Apr_12_1603,Semantic-hierachy,2021.1.2,
85,Trial # 86,layer6-8_O4_to_O7.jpg,layer6-8/layer6-8_O4_to_O7.jpg,OO,layer6-8,0.0,85.0,85.0,85.0,,,,,,,,,299.9946787308436,None,4.0,6.29800611990504,299.9946787308436,None,299.9946787308436,None,299.9946787308436,None,1,2022_Apr_12_1603,Semantic-hierachy,2021.1.2,
86,Trial # 87,layer6-8_T10_to_T8.jpg,layer6-8/layer6-8_T10_to_T8.jpg,TT,layer6-8,0.0,86.0,86.0,86.0,,,,,,,,,307.5474153039977,None,2.0,1.858896081103012,307.5474153039977,None,307.5474153039977,None,307.5474153039977,None,1,2022_Apr_12_1603,Semantic-hierachy,2021.1.2,
87,Trial # 88,layer6-8_O10_to_T3.jpg,layer6-8/layer6-8_O10_to_T3.jpg,OT,layer6-8,0.0,87.0,87.0,87.0,,,,,,,,,309.81487032584846,None,3.0,1.7319269280415028,309.81487032584846,None,309.81487032584846,None,309.81487032584846,None,1,2022_Apr_12_1603,Semantic-hierachy,2021.1.2,
88,Trial # 89,layer6-8_O5_to_O9.jpg,layer6-8/layer6-8_O5_to_O9.jpg,OO,layer6-8,0.0,88.0,88.0,88.0,,,,,,,,,311.8306573599112,None,3.0,3.611333536915481,311.8306573599112,None,311.8306573599112,None,311.8306573599112,None,1,2022_Apr_12_1603,Semantic-hierachy,2021.1.2,
89,Trial # 90,layer6-8_O10_to_O11.jpg,layer6-8/layer6-8_O10_to_O11.jpg,OO,layer6-8,0.0,89.0,89.0,89.0,,,,,,,,,316.33255103905685,None,4.0,4.641562509117648,316.33255103905685,None,316.33255103905685,None,316.33255103905685,None,1,2022_Apr_12_1603,Semantic-hierachy,2021.1.2,
90,Trial # 91,layer0-5_O4_to_T5.jpg,layer0-5/layer0-5_O4_to_T5.jpg,OT,layer0-5,0.0,90.0,90.0,90.0,,,,,,,,,322.71871816087514,None,1.0,1.5663360508624464,322.71871816087514,None,322.71871816087514,None,322.71871816087514,None,1,2022_Apr_12_1603,Semantic-hierachy,2021.1.2,
91,Trial # 92,layer0-5_T11_to_T12.jpg,layer0-5/layer0-5_T11_to_T12.jpg,TT,layer0-5,0.0,91.0,91.0,91.0,,,,,,,,,324.602450927021,None,1.0,1.0432365701999515,324.602450927021,None,324.602450927021,None,324.602450927021,None,1,2022_Apr_12_1603,Semantic-hierachy,2021.1.2,
92,Trial # 93,layer0-5_T10_to_T3.jpg,layer0-5/layer0-5_T10_to_T3.jpg,TT,layer0-5,0.0,92.0,92.0,92.0,,,,,,,,,325.9029140700586,None,1.0,1.243272891966626,325.9029140700586,None,325.9029140700586,None,325.9029140700586,None,1,2022_Apr_12_1603,Semantic-hierachy,2021.1.2,
93,Trial # 94,layer0-5_O2_to_O8.jpg,layer0-5/layer0-5_O2_to_O8.jpg,OO,layer0-5,0.0,93.0,93.0,93.0,,,,,,,,,327.35245998902246,None,1.0,1.071501216152683,327.35245998902246,None,327.35245998902246,None,327.35245998902246,None,1,2022_Apr_12_1603,Semantic-hierachy,2021.1.2,
94,Trial # 95,layer0-5_T3_to_T8.jpg,layer0-5/layer0-5_T3_to_T8.jpg,TT,layer0-5,0.0,94.0,94.0,94.0,,,,,,,,,328.73661164497025,None,1.0,2.974244398996234,328.73661164497025,None,328.73661164497025,None,328.73661164497025,None,1,2022_Apr_12_1603,Semantic-hierachy,2021.1.2,
95,Trial # 96,layer0-5_O7_to_O8.jpg,layer0-5/layer0-5_O7_to_O8.jpg,OO,layer0-5,0.0,95.0,95.0,95.0,,,,,,,,,332.03731381800026,None,1.0,1.5050199639517814,332.03731381800026,None,332.03731381800026,None,332.03731381800026,None,1,2022_Apr_12_1603,Semantic-hierachy,2021.1.2,
96,Trial # 97,layer6-8_T10_to_T6.jpg,layer6-8/layer6-8_T10_to_T6.jpg,TT,layer6-8,0.0,96.0,96.0,96.0,,,,,,,,,333.7713513239287,None,2.0,1.530868656001985,333.7713513239287,None,333.7713513239287,None,333.7713513239287,None,1,2022_Apr_12_1603,Semantic-hierachy,2021.1.2,
97,Trial # 98,layer0-5_O1_to_O5.jpg,layer0-5/layer0-5_O1_to_O5.jpg,OO,layer0-5,0.0,97.0,97.0,97.0,,,,,,,,,335.6716160599608,None,1.0,1.42950624297373,335.6716160599608,None,335.6716160599608,None,335.6716160599608,None,1,2022_Apr_12_1603,Semantic-hierachy,2021.1.2,
98,Trial # 99,layer6-8_O1_to_O6.jpg,layer6-8/layer6-8_O1_to_O6.jpg,OO,layer6-8,0.0,98.0,98.0,98.0,,,,,,,,,337.4054186719004,None,4.0,4.312875289004296,337.4054186719004,None,337.4054186719004,None,337.4054186719004,None,1,2022_Apr_12_1603,Semantic-hierachy,2021.1.2,
99,Trial # 100,layer6-8_O3_to_T1.jpg,layer6-8/layer6-8_O3_to_T1.jpg,OT,layer6-8,0.0,99.0,99.0,99.0,,,,,,,,,342.22380089294165,None,3.0,2.514621018897742,342.22380089294165,None,342.22380089294165,None,342.22380089294165,None,1,2022_Apr_12_1603,Semantic-hierachy,2021.1.2,
100,Trial # 101,layer6-8_T1_to_T9.jpg,layer6-8/layer6-8_T1_to_T9.jpg,TT,layer6-8,0.0,100.0,100.0,100.0,,,,,,,,,344.97537290188484,None,3.0,7.425533095141873,344.97537290188484,None,344.97537290188484,None,344.97537290188484,None,1,2022_Apr_12_1603,Semantic-hierachy,2021.1.2,
101,Trial # 102,layer9-17_O12_to_O6.jpg,layer9-17/layer9-17_O12_to_O6.jpg,OO,layer9-17,0.0,101.0,101.0,101.0,,,,,,,,,353.9618810680695,None,2.0,1.3233086480759084,353.9618810680695,None,353.9618810680695,None,353.9618810680695,None,1,2022_Apr_12_1603,Semantic-hierachy,2021.1.2,
102,Trial # 103,layer0-5_T4_to_T9.jpg,layer0-5/layer0-5_T4_to_T9.jpg,TT,layer0-5,0.0,102.0,102.0,102.0,,,,,,,,,355.47822581906803,None,1.0,1.3301270259544251,355.47822581906803,None,355.47822581906803,None,355.47822581906803,None,1,2022_Apr_12_1603,Semantic-hierachy,2021.1.2,
103,Trial # 104,layer6-8_O10_to_T1.jpg,layer6-8/layer6-8_O10_to_T1.jpg,OT,layer6-8,0.0,103.0,103.0,103.0,,,,,,,,,357.0282447899226,None,3.0,2.278608056018129,357.0282447899226,None,357.0282447899226,None,357.0282447899226,None,1,2022_Apr_12_1603,Semantic-hierachy,2021.1.2,
104,Trial # 105,layer0-5_O6_to_T2.jpg,layer0-5/layer0-5_O6_to_T2.jpg,OT,layer0-5,0.0,104.0,104.0,104.0,,,,,,,,,359.6135845358949,None,1.0,1.2757021870929748,359.6135845358949,None,359.6135845358949,None,359.6135845358949,None,1,2022_Apr_12_1603,Semantic-hierachy,2021.1.2,
105,Trial # 106,layer9-17_T11_to_T2.jpg,layer9-17/layer9-17_T11_to_T2.jpg,TT,layer9-17,0.0,105.0,105.0,105.0,,,,,,,,,361.112796831876,None,2.0,1.2234177680220455,361.112796831876,None,361.112796831876,None,361.112796831876,None,1,2022_Apr_12_1603,Semantic-hierachy,2021.1.2,
106,Trial # 107,layer9-17_O12_to_O8.jpg,layer9-17/layer9-17_O12_to_O8.jpg,OO,layer9-17,0.0,106.0,106.0,106.0,,,,,,,,,362.5304305269383,None,2.0,2.90697327000089,362.5304305269383,None,362.5304305269383,None,362.5304305269383,None,1,2022_Apr_12_1603,Semantic-hierachy,2021.1.2,
107,Trial # 108,layer0-5_T12_to_T3.jpg,layer0-5/layer0-5_T12_to_T3.jpg,TT,layer0-5,0.0,107.0,107.0,107.0,,,,,,,,,366.2645152239129,None,1.0,1.686609861906618,366.2645152239129,None,366.2645152239129,None,366.2645152239129,None,1,2022_Apr_12_1603,Semantic-hierachy,2021.1.2,
108,Trial # 109,layer0-5_T1_to_T10.jpg,layer0-5/layer0-5_T1_to_T10.jpg,TT,layer0-5,0.0,108.0,108.0,108.0,,,,,,,,,368.2497701358516,None,1.0,1.1259388809558004,368.2497701358516,None,368.2497701358516,None,368.2497701358516,None,1,2022_Apr_12_1603,Semantic-hierachy,2021.1.2,
109,Trial # 110,layer6-8_O4_to_T5.jpg,layer6-8/layer6-8_O4_to_T5.jpg,OT,layer6-8,0.0,109.0,109.0,109.0,,,,,,,,,369.66575859789737,None,3.0,2.043876962037757,369.66575859789737,None,369.66575859789737,None,369.66575859789737,None,1,2022_Apr_12_1603,Semantic-hierachy,2021.1.2,
110,Trial # 111,layer9-17_O11_to_O7.jpg,layer9-17/layer9-17_O11_to_O7.jpg,OO,layer9-17,0.0,110.0,110.0,110.0,,,,,,,,,371.9003838689532,None,2.0,1.413535444997251,371.9003838689532,None,371.9003838689532,None,371.9003838689532,None,1,2022_Apr_12_1603,Semantic-hierachy,2021.1.2,
111,Trial # 112,layer0-5_O5_to_O8.jpg,layer0-5/layer0-5_O5_to_O8.jpg,OO,layer0-5,0.0,111.0,111.0,111.0,,,,,,,,,373.4681491199881,None,1.0,1.542084130924195,373.4681491199881,None,373.4681491199881,None,373.4681491199881,None,1,2022_Apr_12_1603,Semantic-hierachy,2021.1.2,
112,Trial # 113,layer0-5_O10_to_O4.jpg,layer0-5/layer0-5_O10_to_O4.jpg,OO,layer0-5,0.0,112.0,112.0,112.0,,,,,,,,,375.200995669933,None,1.0,1.2240104470402002,375.200995669933,None,375.200995669933,None,375.200995669933,None,1,2022_Apr_12_1603,Semantic-hierachy,2021.1.2,
113,Trial # 114,layer9-17_O4_to_O8.jpg,layer9-17/layer9-17_O4_to_O8.jpg,OO,layer9-17,0.0,113.0,113.0,113.0,,,,,,,,,376.5850018789061,None,3.0,1.778244165936485,376.5850018789061,None,376.5850018789061,None,376.5850018789061,None,1,2022_Apr_12_1603,Semantic-hierachy,2021.1.2,
114,Trial # 115,layer0-5_O2_to_T8.jpg,layer0-5/layer0-5_O2_to_T8.jpg,OT,layer0-5,0.0,114.0,114.0,114.0,,,,,,,,,378.6859286818653,None,1.0,1.4083705998491496,378.6859286818653,None,378.6859286818653,None,378.6859286818653,None,1,2022_Apr_12_1603,Semantic-hierachy,2021.1.2,
115,Trial # 116,layer9-17_T2_to_T3.jpg,layer9-17/layer9-17_T2_to_T3.jpg,TT,layer9-17,0.0,115.0,115.0,115.0,,,,,,,,,380.25285308784805,None,2.0,1.6956104640848937,380.25285308784805,None,380.25285308784805,None,380.25285308784805,None,1,2022_Apr_12_1603,Semantic-hierachy,2021.1.2,
116,Trial # 117,layer6-8_O1_to_T10.jpg,layer6-8/layer6-8_O1_to_T10.jpg,OT,layer6-8,0.0,116.0,116.0,116.0,,,,,,,,,382.1189974818844,None,3.0,1.860664288047701,382.1189974818844,None,382.1189974818844,None,382.1189974818844,None,1,2022_Apr_12_1603,Semantic-hierachy,2021.1.2,
117,Trial # 118,layer0-5_T3_to_T7.jpg,layer0-5/layer0-5_T3_to_T7.jpg,TT,layer0-5,0.0,117.0,117.0,117.0,,,,,,,,,384.1867956670467,None,1.0,1.5155555161181835,384.1867956670467,None,384.1867956670467,None,384.1867956670467,None,1,2022_Apr_12_1603,Semantic-hierachy,2021.1.2,
118,Trial # 119,layer9-17_O1_to_O12.jpg,layer9-17/layer9-17_O1_to_O12.jpg,OO,layer9-17,0.0,118.0,118.0,118.0,,,,,,,,,385.9373782330658,None,2.0,1.6976625819224864,385.9373782330658,None,385.9373782330658,None,385.9373782330658,None,1,2022_Apr_12_1603,Semantic-hierachy,2021.1.2,
119,Trial # 120,layer6-8_O12_to_O2.jpg,layer6-8/layer6-8_O12_to_O2.jpg,OO,layer6-8,0.0,119.0,119.0,119.0,,,,,,,,,387.82157823303714,None,3.0,1.780043439939618,387.82157823303714,None,387.82157823303714,None,387.82157823303714,None,1,2022_Apr_12_1603,Semantic-hierachy,2021.1.2,
120,Trial # 121,layer9-17_O10_to_O9.jpg,layer9-17/layer9-17_O10_to_O9.jpg,OO,layer9-17,0.0,120.0,120.0,120.0,,,,,,,,,389.888583953958,None,2.0,1.372062799986452,389.888583953958,None,389.888583953958,None,389.888583953958,None,1,2022_Apr_12_1603,Semantic-hierachy,2021.1.2,
121,Trial # 122,layer6-8_O4_to_T10.jpg,layer6-8/layer6-8_O4_to_T10.jpg,OT,layer6-8,0.0,121.0,121.0,121.0,,,,,,,,,391.4555291919969,None,3.0,1.849406257038936,391.4555291919969,None,391.4555291919969,None,391.4555291919969,None,1,2022_Apr_12_1603,Semantic-hierachy,2021.1.2,
122,Trial # 123,layer6-8_O2_to_T3.jpg,layer6-8/layer6-8_O2_to_T3.jpg,OT,layer6-8,0.0,122.0,122.0,122.0,,,,,,,,,393.5576672980096,None,3.0,1.4444394679740071,393.5576672980096,None,393.5576672980096,None,393.5576672980096,None,1,2022_Apr_12_1603,Semantic-hierachy,2021.1.2,
123,Trial # 124,layer0-5_O1_to_O7.jpg,layer0-5/layer0-5_O1_to_O7.jpg,OO,layer0-5,0.0,123.0,123.0,123.0,,,,,,,,,395.14009354193695,None,1.0,1.2623507659882307,395.14009354193695,None,395.14009354193695,None,395.14009354193695,None,1,2022_Apr_12_1603,Semantic-hierachy,2021.1.2,
124,Trial # 125,layer0-5_T8_to_T9.jpg,layer0-5/layer0-5_T8_to_T9.jpg,TT,layer0-5,0.0,124.0,124.0,124.0,,,,,,,,,396.5911793450359,None,1.0,1.951142664998769,396.5911793450359,None,396.5911793450359,None,396.5911793450359,None,1,2022_Apr_12_1603,Semantic-hierachy,2021.1.2,
125,Trial # 126,layer0-5_O12_to_T8.jpg,layer0-5/layer0-5_O12_to_T8.jpg,OT,layer0-5,0.0,125.0,125.0,125.0,,,,,,,,,398.7260256519076,None,1.0,1.925845124060288,398.7260256519076,None,398.7260256519076,None,398.7260256519076,None,1,2022_Apr_12_1603,Semantic-hierachy,2021.1.2,
126,Trial # 127,layer9-17_O4_to_O6.jpg,layer9-17/layer9-17_O4_to_O6.jpg,OO,layer9-17,0.0,126.0,126.0,126.0,,,,,,,,,400.7919313800521,None,3.0,1.5267686799634248,400.7919313800521,None,400.7919313800521,None,400.7919313800521,None,1,2022_Apr_12_1603,Semantic-hierachy,2021.1.2,
127,Trial # 128,layer6-8_O12_to_O6.jpg,layer6-8/layer6-8_O12_to_O6.jpg,OO,layer6-8,0.0,127.0,127.0,127.0,,,,,,,,,402.4932458489202,None,3.0,1.1637984041590244,402.4932458489202,None,402.4932458489202,None,402.4932458489202,None,1,2022_Apr_12_1603,Semantic-hierachy,2021.1.2,
128,Trial # 129,layer0-5_T4_to_T6.jpg,layer0-5/layer0-5_T4_to_T6.jpg,TT,layer0-5,0.0,128.0,128.0,128.0,,,,,,,,,403.8608851470053,None,1.0,1.5914287162013352,403.8608851470053,None,403.8608851470053,None,403.8608851470053,None,1,2022_Apr_12_1603,Semantic-hierachy,2021.1.2,
129,Trial # 130,layer9-17_O1_to_O3.jpg,layer9-17/layer9-17_O1_to_O3.jpg,OO,layer9-17,0.0,129.0,129.0,129.0,,,,,,,,,405.593918425031,None,2.0,1.1405699730385097,405.593918425031,None,405.593918425031,None,405.593918425031,None,1,2022_Apr_12_1603,Semantic-hierachy,2021.1.2,
130,Trial # 131,layer9-17_O10_to_O3.jpg,layer9-17/layer9-17_O10_to_O3.jpg,OO,layer9-17,0.0,130.0,130.0,130.0,,,,,,,,,406.89358814503066,None,2.0,1.048592850798741,406.89358814503066,None,406.89358814503066,None,406.89358814503066,None,1,2022_Apr_12_1603,Semantic-hierachy,2021.1.2,
131,Trial # 132,layer9-17_O12_to_O3.jpg,layer9-17/layer9-17_O12_to_O3.jpg,OO,layer9-17,0.0,131.0,131.0,131.0,,,,,,,,,408.1451390378643,None,2.0,0.963294964050874,408.1451390378643,None,408.1451390378643,None,408.1451390378643,None,1,2022_Apr_12_1603,Semantic-hierachy,2021.1.2,
132,Trial # 133,layer9-17_O11_to_O4.jpg,layer9-17/layer9-17_O11_to_O4.jpg,OO,layer9-17,0.0,132.0,132.0,132.0,,,,,,,,,409.2953935540281,None,3.0,2.162471746094525,409.2953935540281,None,409.2953935540281,None,409.2953935540281,None,1,2022_Apr_12_1603,Semantic-hierachy,2021.1.2,
133,Trial # 134,layer9-17_T4_to_T7.jpg,layer9-17/layer9-17_T4_to_T7.jpg,TT,layer9-17,0.0,133.0,133.0,133.0,,,,,,,,,411.7119101779536,None,2.0,1.0944104380905628,411.7119101779536,None,411.7119101779536,None,411.7119101779536,None,1,2022_Apr_12_1603,Semantic-hierachy,2021.1.2,
134,Trial # 135,layer9-17_O1_to_T1.jpg,layer9-17/layer9-17_O1_to_T1.jpg,OT,layer9-17,0.0,134.0,134.0,134.0,,,,,,,,,412.9628405780532,None,2.0,1.1905203619971871,412.9628405780532,None,412.9628405780532,None,412.9628405780532,None,1,2022_Apr_12_1603,Semantic-hierachy,2021.1.2,
135,Trial # 136,layer6-8_T2_to_T5.jpg,layer6-8/layer6-8_T2_to_T5.jpg,TT,layer6-8,0.0,135.0,135.0,135.0,,,,,,,,,414.9297082980629,None,4.0,2.274780377978459,414.9297082980629,None,414.9297082980629,None,414.9297082980629,None,1,2022_Apr_12_1603,Semantic-hierachy,2021.1.2,
136,Trial # 137,layer9-17_T11_to_T7.jpg,layer9-17/layer9-17_T11_to_T7.jpg,TT,layer9-17,0.0,136.0,136.0,136.0,,,,,,,,,417.3803178758826,None,2.0,2.077730376040563,417.3803178758826,None,417.3803178758826,None,417.3803178758826,None,1,2022_Apr_12_1603,Semantic-hierachy,2021.1.2,
137,Trial # 138,layer6-8_O3_to_O8.jpg,layer6-8/layer6-8_O3_to_O8.jpg,OO,layer6-8,0.0,137.0,137.0,137.0,,,,,,,,,419.6812382789794,None,4.0,3.4427944079507142,419.6812382789794,None,419.6812382789794,None,419.6812382789794,None,1,2022_Apr_12_1603,Semantic-hierachy,2021.1.2,
138,Trial # 139,layer6-8_O1_to_T7.jpg,layer6-8/layer6-8_O1_to_T7.jpg,OT,layer6-8,0.0,138.0,138.0,138.0,,,,,,,,,423.4005431800615,None,3.0,1.6481945689301938,423.4005431800615,None,423.4005431800615,None,423.4005431800615,None,1,2022_Apr_12_1603,Semantic-hierachy,2021.1.2,
139,Trial # 140,layer9-17_T1_to_T3.jpg,layer9-17/layer9-17_T1_to_T3.jpg,TT,layer9-17,0.0,139.0,139.0,139.0,,,,,,,,,425.2329488929827,None,3.0,2.995165696134791,425.2329488929827,None,425.2329488929827,None,425.2329488929827,None,1,2022_Apr_12_1603,Semantic-hierachy,2021.1.2,
140,Trial # 141,layer6-8_O10_to_O12.jpg,layer6-8/layer6-8_O10_to_O12.jpg,OO,layer6-8,0.0,140.0,140.0,140.0,,,,,,,,,428.4676726688631,None,4.0,2.6082547910045832,428.4676726688631,None,428.4676726688631,None,428.4676726688631,None,1,2022_Apr_12_1603,Semantic-hierachy,2021.1.2,
141,Trial # 142,layer6-8_O12_to_T11.jpg,layer6-8/layer6-8_O12_to_T11.jpg,OT,layer6-8,0.0,141.0,141.0,141.0,,,,,,,,,431.26817040587775,None,3.0,6.209796379087493,431.26817040587775,None,431.26817040587775,None,431.26817040587775,None,1,2022_Apr_12_1603,Semantic-hierachy,2021.1.2,
142,Trial # 143,layer0-5_O11_to_O5.jpg,layer0-5/layer0-5_O11_to_O5.jpg,OO,layer0-5,0.0,142.0,142.0,142.0,,,,,,,,,438.7706849959213,None,1.0,2.155953424051404,438.7706849959213,None,438.7706849959213,None,438.7706849959213,None,1,2022_Apr_12_1603,Semantic-hierachy,2021.1.2,
143,Trial # 144,layer6-8_O1_to_O8.jpg,layer6-8/layer6-8_O1_to_O8.jpg,OO,layer6-8,0.0,143.0,143.0,143.0,,,,,,,,,441.17123697302304,None,2.0,1.4434378389269114,441.17123697302304,None,441.17123697302304,None,441.17123697302304,None,1,2022_Apr_12_1603,Semantic-hierachy,2021.1.2,
144,Trial # 145,layer0-5_T2_to_T5.jpg,layer0-5/layer0-5_T2_to_T5.jpg,TT,layer0-5,0.0,144.0,144.0,144.0,,,,,,,,,442.7561137839221,None,1.0,2.0799777968786657,442.7561137839221,None,442.7561137839221,None,442.7561137839221,None,1,2022_Apr_12_1603,Semantic-hierachy,2021.1.2,
145,Trial # 146,layer9-17_O8_to_T3.jpg,layer9-17/layer9-17_O8_to_T3.jpg,OT,layer9-17,0.0,145.0,145.0,145.0,,,,,,,,,445.1389939479996,None,2.0,1.2780720330774784,445.1389939479996,None,445.1389939479996,None,445.1389939479996,None,1,2022_Apr_12_1603,Semantic-hierachy,2021.1.2,
146,Trial # 147,layer9-17_O8_to_T4.jpg,layer9-17/layer9-17_O8_to_T4.jpg,OT,layer9-17,0.0,146.0,146.0,146.0,,,,,,,,,446.5725787000265,None,3.0,2.529140057973564,446.5725787000265,None,446.5725787000265,None,446.5725787000265,None,1,2022_Apr_12_1603,Semantic-hierachy,2021.1.2,
147,Trial # 148,layer9-17_O4_to_T9.jpg,layer9-17/layer9-17_O4_to_T9.jpg,OT,layer9-17,0.0,147.0,147.0,147.0,,,,,,,,,450.27364185405895,None,2.0,2.093108718050644,450.27364185405895,None,450.27364185405895,None,450.27364185405895,None,1,2022_Apr_12_1603,Semantic-hierachy,2021.1.2,
148,Trial # 149,layer6-8_O4_to_O8.jpg,layer6-8/layer6-8_O4_to_O8.jpg,OO,layer6-8,0.0,148.0,148.0,148.0,,,,,,,,,452.5739364698529,None,3.0,2.6932099058758467,452.5739364698529,None,452.5739364698529,None,452.5739364698529,None,1,2022_Apr_12_1603,Semantic-hierachy,2021.1.2,
149,Trial # 150,layer0-5_O12_to_T7.jpg,layer0-5/layer0-5_O12_to_T7.jpg,OT,layer0-5,0.0,149.0,149.0,149.0,,,,,,,,,455.57528175693005,None,1.0,1.841610089177265,455.57528175693005,None,455.57528175693005,None,455.57528175693005,None,1,2022_Apr_12_1603,Semantic-hierachy,2021.1.2,
150,Trial # 151,layer6-8_T1_to_T3.jpg,layer6-8/layer6-8_T1_to_T3.jpg,TT,layer6-8,,,,,0.0,0.0,0.0,0.0,,,,,470.0967611609958,None,3.0,3.825803032144904,470.0967611609958,None,470.0967611609958,None,470.0967611609958,None,1,2022_Apr_12_1603,Semantic-hierachy,2021.1.2,
151,Trial # 152,layer0-5_O8_to_O9.jpg,layer0-5/layer0-5_O8_to_O9.jpg,OO,layer0-5,,,,,0.0,1.0,1.0,1.0,,,,,474.8480874020606,None,1.0,1.8239801868330687,474.8480874020606,None,474.8480874020606,None,474.8480874020606,None,1,2022_Apr_12_1603,Semantic-hierachy,2021.1.2,
152,Trial # 153,layer9-17_T1_to_T5.jpg,layer9-17/layer9-17_T1_to_T5.jpg,TT,layer9-17,,,,,0.0,2.0,2.0,2.0,,,,,476.8483353948686,None,2.0,1.4642382520250976,476.8483353948686,None,476.8483353948686,None,476.8483353948686,None,1,2022_Apr_12_1603,Semantic-hierachy,2021.1.2,
153,Trial # 154,layer6-8_T7_to_T9.jpg,layer6-8/layer6-8_T7_to_T9.jpg,TT,layer6-8,,,,,0.0,3.0,3.0,3.0,,,,,478.5162379010581,None,3.0,1.7820062669925392,478.5162379010581,None,478.5162379010581,None,478.5162379010581,None,1,2022_Apr_12_1603,Semantic-hierachy,2021.1.2,
154,Trial # 155,layer9-17_T12_to_T7.jpg,layer9-17/layer9-17_T12_to_T7.jpg,TT,layer9-17,,,,,0.0,4.0,4.0,4.0,,,,,480.4501244658604,None,2.0,2.468173753004521,480.4501244658604,None,480.4501244658604,None,480.4501244658604,None,1,2022_Apr_12_1603,Semantic-hierachy,2021.1.2,
155,Trial # 156,layer0-5_O8_to_T11.jpg,layer0-5/layer0-5_O8_to_T11.jpg,OT,layer0-5,,,,,0.0,5.0,5.0,5.0,,,,,483.1019734139554,None,1.0,1.2080634378362447,483.1019734139554,None,483.1019734139554,None,483.1019734139554,None,1,2022_Apr_12_1603,Semantic-hierachy,2021.1.2,
156,Trial # 157,layer0-5_O1_to_O9.jpg,layer0-5/layer0-5_O1_to_O9.jpg,OO,layer0-5,,,,,0.0,6.0,6.0,6.0,,,,,484.48471588105895,None,1.0,1.2913756009656936,484.48471588105895,None,484.48471588105895,None,484.48471588105895,None,1,2022_Apr_12_1603,Semantic-hierachy,2021.1.2,
157,Trial # 158,layer0-5_O10_to_O12.jpg,layer0-5/layer0-5_O10_to_O12.jpg,OO,layer0-5,,,,,0.0,7.0,7.0,7.0,,,,,485.9684872829821,None,1.0,1.2106977279763669,485.9684872829821,None,485.9684872829821,None,485.9684872829821,None,1,2022_Apr_12_1603,Semantic-hierachy,2021.1.2,
158,Trial # 159,layer6-8_O10_to_T5.jpg,layer6-8/layer6-8_O10_to_T5.jpg,OT,layer6-8,,,,,0.0,8.0,8.0,8.0,,,,,487.3355742790736,None,3.0,1.9021803420037031,487.3355742790736,None,487.3355742790736,None,487.3355742790736,None,1,2022_Apr_12_1603,Semantic-hierachy,2021.1.2,
159,Trial # 160,layer6-8_O5_to_O6.jpg,layer6-8/layer6-8_O5_to_O6.jpg,OO,layer6-8,,,,,0.0,9.0,9.0,9.0,,,,,489.40286063798703,None,4.0,2.97837826400064,489.40286063798703,None,489.40286063798703,None,489.40286063798703,None,1,2022_Apr_12_1603,Semantic-hierachy,2021.1.2,
160,Trial # 161,layer6-8_O6_to_T11.jpg,layer6-8/layer6-8_O6_to_T11.jpg,OT,layer6-8,,,,,0.0,10.0,10.0,10.0,,,,,492.5374663879629,None,3.0,2.5264585760887712,492.5374663879629,None,492.5374663879629,None,492.5374663879629,None,1,2022_Apr_12_1603,Semantic-hierachy,2021.1.2,
161,Trial # 162,layer9-17_O12_to_O9.jpg,layer9-17/layer9-17_O12_to_O9.jpg,OO,layer9-17,,,,,0.0,11.0,11.0,11.0,,,,,495.3380459260661,None,3.0,1.9776757641229776,495.3380459260661,None,495.3380459260661,None,495.3380459260661,None,1,2022_Apr_12_1603,Semantic-hierachy,2021.1.2,
162,Trial # 163,layer6-8_O12_to_T6.jpg,layer6-8/layer6-8_O12_to_T6.jpg,OT,layer6-8,,,,,0.0,12.0,12.0,12.0,,,,,497.5052379430272,None,3.0,2.044609852135181,497.5052379430272,None,497.5052379430272,None,497.5052379430272,None,1,2022_Apr_12_1603,Semantic-hierachy,2021.1.2,
163,Trial # 164,layer0-5_T11_to_T7.jpg,layer0-5/layer0-5_T11_to_T7.jpg,TT,layer0-5,,,,,0.0,13.0,13.0,13.0,,,,,499.8561661129352,None,1.0,1.7772504959721118,499.8561661129352,None,499.8561661129352,None,499.8561661129352,None,1,2022_Apr_12_1603,Semantic-hierachy,2021.1.2,
164,Trial # 165,layer9-17_O10_to_T5.jpg,layer9-17/layer9-17_O10_to_T5.jpg,OT,layer9-17,,,,,0.0,14.0,14.0,14.0,,,,,501.92289446201175,None,4.0,2.3627384970895946,501.92289446201175,None,501.92289446201175,None,501.92289446201175,None,1,2022_Apr_12_1603,Semantic-hierachy,2021.1.2,
165,Trial # 166,layer9-17_T1_to_T6.jpg,layer9-17/layer9-17_T1_to_T6.jpg,TT,layer9-17,,,,,0.0,15.0,15.0,15.0,,,,,511.0596537690144,None,2.0,1.6939134919084609,511.0596537690144,None,511.0596537690144,None,511.0596537690144,None,1,2022_Apr_12_1603,Semantic-hierachy,2021.1.2,
166,Trial # 167,layer0-5_T1_to_T3.jpg,layer0-5/layer0-5_T1_to_T3.jpg,TT,layer0-5,,,,,0.0,16.0,16.0,16.0,,,,,512.94401728292,None,1.0,1.4769552981015297,512.94401728292,None,512.94401728292,None,512.94401728292,None,1,2022_Apr_12_1603,Semantic-hierachy,2021.1.2,
167,Trial # 168,layer0-5_O2_to_O9.jpg,layer0-5/layer0-5_O2_to_O9.jpg,OO,layer0-5,,,,,0.0,17.0,17.0,17.0,,,,,514.5939706638455,None,1.0,2.893151838099584,514.5939706638455,None,514.5939706638455,None,514.5939706638455,None,1,2022_Apr_12_1603,Semantic-hierachy,2021.1.2,
168,Trial # 169,layer9-17_O3_to_T4.jpg,layer9-17/layer9-17_O3_to_T4.jpg,OT,layer9-17,,,,,0.0,18.0,18.0,18.0,,,,,517.6625506880227,None,2.0,1.227626393781975,517.6625506880227,None,517.6625506880227,None,517.6625506880227,None,1,2022_Apr_12_1603,Semantic-hierachy,2021.1.2,
169,Trial # 170,layer6-8_O11_to_O9.jpg,layer6-8/layer6-8_O11_to_O9.jpg,OO,layer6-8,,,,,0.0,19.0,19.0,19.0,,,,,519.0128005139995,None,2.0,2.297311616130173,519.0128005139995,None,519.0128005139995,None,519.0128005139995,None,1,2022_Apr_12_1603,Semantic-hierachy,2021.1.2,
170,Trial # 171,layer9-17_O1_to_O7.jpg,layer9-17/layer9-17_O1_to_O7.jpg,OO,layer9-17,,,,,0.0,20.0,20.0,20.0,,,,,521.6128477479797,None,3.0,1.7781979909632355,521.6128477479797,None,521.6128477479797,None,521.6128477479797,None,1,2022_Apr_12_1603,Semantic-hierachy,2021.1.2,
171,Trial # 172,layer0-5_T12_to_T4.jpg,layer0-5/layer0-5_T12_to_T4.jpg,TT,layer0-5,,,,,0.0,21.0,21.0,21.0,,,,,523.5638398120645,None,1.0,1.5419908261392266,523.5638398120645,None,523.5638398120645,None,523.5638398120645,None,1,2022_Apr_12_1603,Semantic-hierachy,2021.1.2,
172,Trial # 173,layer0-5_O4_to_T4.jpg,layer0-5/layer0-5_O4_to_T4.jpg,OT,layer0-5,,,,,0.0,22.0,22.0,22.0,,,,,525.2639384318609,None,1.0,1.2755747640039772,525.2639384318609,None,525.2639384318609,None,525.2639384318609,None,1,2022_Apr_12_1603,Semantic-hierachy,2021.1.2,
173,Trial # 174,layer6-8_T12_to_T5.jpg,layer6-8/layer6-8_T12_to_T5.jpg,TT,layer6-8,,,,,0.0,23.0,23.0,23.0,,,,,526.6641452980693,None,3.0,2.0506843449547887,526.6641452980693,None,526.6641452980693,None,526.6641452980693,None,1,2022_Apr_12_1603,Semantic-hierachy,2021.1.2,
174,Trial # 175,layer6-8_O11_to_T1.jpg,layer6-8/layer6-8_O11_to_T1.jpg,OT,layer6-8,,,,,0.0,24.0,24.0,24.0,,,,,531.5151914139278,None,3.0,1.4919283189810812,531.5151914139278,None,531.5151914139278,None,531.5151914139278,None,1,2022_Apr_12_1603,Semantic-hierachy,2021.1.2,
175,Trial # 176,layer0-5_O7_to_T8.jpg,layer0-5/layer0-5_O7_to_T8.jpg,OT,layer0-5,,,,,0.0,25.0,25.0,25.0,,,,,533.1833906199317,None,1.0,1.7612309269607067,533.1833906199317,None,533.1833906199317,None,533.1833906199317,None,1,2022_Apr_12_1603,Semantic-hierachy,2021.1.2,
176,Trial # 177,layer0-5_O11_to_T5.jpg,layer0-5/layer0-5_O11_to_T5.jpg,OT,layer0-5,,,,,0.0,26.0,26.0,26.0,,,,,535.1333948590327,None,1.0,1.1635137661360204,535.1333948590327,None,535.1333948590327,None,535.1333948590327,None,1,2022_Apr_12_1603,Semantic-hierachy,2021.1.2,
177,Trial # 178,layer9-17_O2_to_T2.jpg,layer9-17/layer9-17_O2_to_T2.jpg,OT,layer9-17,,,,,0.0,27.0,27.0,27.0,,,,,536.4505761729088,None,4.0,2.2170274250675,536.4505761729088,None,536.4505761729088,None,536.4505761729088,None,1,2022_Apr_12_1603,Semantic-hierachy,2021.1.2,
178,Trial # 179,layer0-5_O4_to_T9.jpg,layer0-5/layer0-5_O4_to_T9.jpg,OT,layer0-5,,,,,0.0,28.0,28.0,28.0,,,,,538.8691410669126,None,1.0,1.4912410790566355,538.8691410669126,None,538.8691410669126,None,538.8691410669126,None,1,2022_Apr_12_1603,Semantic-hierachy,2021.1.2,
179,Trial # 180,layer9-17_T6_to_T8.jpg,layer9-17/layer9-17_T6_to_T8.jpg,TT,layer9-17,,,,,0.0,29.0,29.0,29.0,,,,,540.5016848200466,None,2.0,1.1910865800455213,540.5016848200466,None,540.5016848200466,None,540.5016848200466,None,1,2022_Apr_12_1603,Semantic-hierachy,2021.1.2,
180,Trial # 181,layer9-17_O12_to_O5.jpg,layer9-17/layer9-17_O12_to_O5.jpg,OO,layer9-17,,,,,0.0,30.0,30.0,30.0,,,,,541.8195039669517,None,2.0,1.181203250773251,541.8195039669517,None,541.8195039669517,None,541.8195039669517,None,1,2022_Apr_12_1603,Semantic-hierachy,2021.1.2,
181,Trial # 182,layer6-8_O1_to_O7.jpg,layer6-8/layer6-8_O1_to_O7.jpg,OO,layer6-8,,,,,0.0,31.0,31.0,31.0,,,,,543.1528683959041,None,4.0,3.031359863001853,543.1528683959041,None,543.1528683959041,None,543.1528683959041,None,1,2022_Apr_12_1603,Semantic-hierachy,2021.1.2,
182,Trial # 183,layer6-8_O3_to_T10.jpg,layer6-8/layer6-8_O3_to_T10.jpg,OT,layer6-8,,,,,0.0,32.0,32.0,32.0,,,,,546.3864238169044,None,3.0,1.8795012889895588,546.3864238169044,None,546.3864238169044,None,546.3864238169044,None,1,2022_Apr_12_1603,Semantic-hierachy,2021.1.2,
183,Trial # 184,layer0-5_O1_to_T11.jpg,layer0-5/layer0-5_O1_to_T11.jpg,OT,layer0-5,,,,,0.0,33.0,33.0,33.0,,,,,548.7554450749885,None,1.0,1.4465544340200722,548.7554450749885,None,548.7554450749885,None,548.7554450749885,None,1,2022_Apr_12_1603,Semantic-hierachy,2021.1.2,
184,Trial # 185,layer6-8_O8_to_O9.jpg,layer6-8/layer6-8_O8_to_O9.jpg,OO,layer6-8,,,,,0.0,34.0,34.0,34.0,,,,,550.3545839220751,None,3.0,2.9949500830844045,550.3545839220751,None,550.3545839220751,None,550.3545839220751,None,1,2022_Apr_12_1603,Semantic-hierachy,2021.1.2,
185,Trial # 186,layer9-17_O4_to_O9.jpg,layer9-17/layer9-17_O4_to_O9.jpg,OO,layer9-17,,,,,0.0,35.0,35.0,35.0,,,,,553.5562896300107,None,2.0,8.707393961027265,553.5562896300107,None,553.5562896300107,None,553.5562896300107,None,1,2022_Apr_12_1603,Semantic-hierachy,2021.1.2,
186,Trial # 187,layer0-5_O12_to_O5.jpg,layer0-5/layer0-5_O12_to_O5.jpg,OO,layer0-5,,,,,0.0,36.0,36.0,36.0,,,,,562.4585903729312,None,1.0,1.467831875896081,562.4585903729312,None,562.4585903729312,None,562.4585903729312,None,1,2022_Apr_12_1603,Semantic-hierachy,2021.1.2,
187,Trial # 188,layer6-8_T12_to_T4.jpg,layer6-8/layer6-8_T12_to_T4.jpg,TT,layer6-8,,,,,0.0,37.0,37.0,37.0,,,,,565.0768876629882,None,3.0,2.9665482118725777,565.0768876629882,None,565.0768876629882,None,565.0768876629882,None,1,2022_Apr_12_1603,Semantic-hierachy,2021.1.2,
188,Trial # 189,layer0-5_T6_to_T8.jpg,layer0-5/layer0-5_T6_to_T8.jpg,TT,layer0-5,,,,,0.0,38.0,38.0,38.0,,,,,568.5114061359782,None,1.0,1.6862797250505537,568.5114061359782,None,568.5114061359782,None,568.5114061359782,None,1,2022_Apr_12_1603,Semantic-hierachy,2021.1.2,
189,Trial # 190,layer6-8_O11_to_T2.jpg,layer6-8/layer6-8_O11_to_T2.jpg,OT,layer6-8,,,,,0.0,39.0,39.0,39.0,,,,,570.9117664259393,None,3.0,1.9753779380116607,570.9117664259393,None,570.9117664259393,None,570.9117664259393,None,1,2022_Apr_12_1603,Semantic-hierachy,2021.1.2,
190,Trial # 191,layer6-8_O1_to_O3.jpg,layer6-8/layer6-8_O1_to_O3.jpg,OO,layer6-8,,,,,0.0,40.0,40.0,40.0,,,,,573.4130060148891,None,4.0,4.209359562955797,573.4130060148891,None,573.4130060148891,None,573.4130060148891,None,1,2022_Apr_12_1603,Semantic-hierachy,2021.1.2,
191,Trial # 192,layer0-5_O7_to_T1.jpg,layer0-5/layer0-5_O7_to_T1.jpg,OT,layer0-5,,,,,0.0,41.0,41.0,41.0,,,,,577.8468667499255,None,1.0,1.4287753300741317,577.8468667499255,None,577.8468667499255,None,577.8468667499255,None,1,2022_Apr_12_1603,Semantic-hierachy,2021.1.2,
192,Trial # 193,layer6-8_O3_to_T7.jpg,layer6-8/layer6-8_O3_to_T7.jpg,OT,layer6-8,,,,,0.0,42.0,42.0,42.0,,,,,579.514040251961,None,3.0,1.9424096229486167,579.514040251961,None,579.514040251961,None,579.514040251961,None,1,2022_Apr_12_1603,Semantic-hierachy,2021.1.2,
193,Trial # 194,layer9-17_T10_to_T6.jpg,layer9-17/layer9-17_T10_to_T6.jpg,TT,layer9-17,,,,,0.0,43.0,43.0,43.0,,,,,581.7654572699685,None,2.0,1.4120419840328395,581.7654572699685,None,581.7654572699685,None,581.7654572699685,None,1,2022_Apr_12_1603,Semantic-hierachy,2021.1.2,
194,Trial # 195,layer6-8_T2_to_T9.jpg,layer6-8/layer6-8_T2_to_T9.jpg,TT,layer6-8,,,,,0.0,44.0,44.0,44.0,,,,,583.381947933929,None,4.0,2.575388243887573,583.381947933929,None,583.381947933929,None,583.381947933929,None,1,2022_Apr_12_1603,Semantic-hierachy,2021.1.2,
195,Trial # 196,layer0-5_O3_to_T3.jpg,layer0-5/layer0-5_O3_to_T3.jpg,OT,layer0-5,,,,,0.0,45.0,45.0,45.0,,,,,586.216439648997,None,1.0,2.124969444004819,586.216439648997,None,586.216439648997,None,586.216439648997,None,1,2022_Apr_12_1603,Semantic-hierachy,2021.1.2,
196,Trial # 197,layer9-17_O1_to_O2.jpg,layer9-17/layer9-17_O1_to_O2.jpg,OO,layer9-17,,,,,0.0,46.0,46.0,46.0,,,,,588.7833430590108,None,3.0,4.00839382596314,588.7833430590108,None,588.7833430590108,None,588.7833430590108,None,1,2022_Apr_12_1603,Semantic-hierachy,2021.1.2,
197,Trial # 198,layer9-17_T2_to_T9.jpg,layer9-17/layer9-17_T2_to_T9.jpg,TT,layer9-17,,,,,0.0,47.0,47.0,47.0,,,,,593.10281471489,None,2.0,1.643748319009319,593.10281471489,None,593.10281471489,None,593.10281471489,None,1,2022_Apr_12_1603,Semantic-hierachy,2021.1.2,
198,Trial # 199,layer9-17_O6_to_T10.jpg,layer9-17/layer9-17_O6_to_T10.jpg,OT,layer9-17,,,,,0.0,48.0,48.0,48.0,,,,,594.9352818860207,None,2.0,1.3080234408844262,594.9352818860207,None,594.9352818860207,None,594.9352818860207,None,1,2022_Apr_12_1603,Semantic-hierachy,2021.1.2,
199,Trial # 200,layer0-5_T12_to_T5.jpg,layer0-5/layer0-5_T12_to_T5.jpg,TT,layer0-5,,,,,0.0,49.0,49.0,49.0,,,,,596.4358686949126,None,1.0,1.5155815740581602,596.4358686949126,None,596.4358686949126,None,596.4358686949126,None,1,2022_Apr_12_1603,Semantic-hierachy,2021.1.2,
200,Trial # 201,layer0-5_O10_to_T10.jpg,layer0-5/layer0-5_O10_to_T10.jpg,OT,layer0-5,,,,,0.0,50.0,50.0,50.0,,,,,598.187307527056,None,1.0,3.090678466949612,598.187307527056,None,598.187307527056,None,598.187307527056,None,1,2022_Apr_12_1603,Semantic-hierachy,2021.1.2,
201,Trial # 202,layer9-17_T11_to_T12.jpg,layer9-17/layer9-17_T11_to_T12.jpg,TT,layer9-17,,,,,0.0,51.0,51.0,51.0,,,,,601.5373649669345,None,2.0,1.3635983129497615,601.5373649669345,None,601.5373649669345,None,601.5373649669345,None,1,2022_Apr_12_1603,Semantic-hierachy,2021.1.2,
202,Trial # 203,layer6-8_T3_to_T5.jpg,layer6-8/layer6-8_T3_to_T5.jpg,TT,layer6-8,,,,,0.0,52.0,52.0,52.0,,,,,603.0880148189608,None,2.0,4.006983604980633,603.0880148189608,None,603.0880148189608,None,603.0880148189608,None,1,2022_Apr_12_1603,Semantic-hierachy,2021.1.2,
203,Trial # 204,layer0-5_O5_to_T10.jpg,layer0-5/layer0-5_O5_to_T10.jpg,OT,layer0-5,,,,,0.0,53.0,53.0,53.0,,,,,608.7732333459426,None,1.0,2.114461662946269,608.7732333459426,None,608.7732333459426,None,608.7732333459426,None,1,2022_Apr_12_1603,Semantic-hierachy,2021.1.2,
204,Trial # 205,layer0-5_O10_to_O5.jpg,layer0-5/layer0-5_O10_to_O5.jpg,OO,layer0-5,,,,,0.0,54.0,54.0,54.0,,,,,611.0901653249748,None,1.0,3.996051143156365,611.0901653249748,None,611.0901653249748,None,611.0901653249748,None,1,2022_Apr_12_1603,Semantic-hierachy,2021.1.2,
205,Trial # 206,layer0-5_O5_to_O7.jpg,layer0-5/layer0-5_O5_to_O7.jpg,OO,layer0-5,,,,,0.0,55.0,55.0,55.0,,,,,615.4914644169621,None,1.0,1.8413123958744109,615.4914644169621,None,615.4914644169621,None,615.4914644169621,None,1,2022_Apr_12_1603,Semantic-hierachy,2021.1.2,
206,Trial # 207,layer0-5_O3_to_T10.jpg,layer0-5/layer0-5_O3_to_T10.jpg,OT,layer0-5,,,,,0.0,56.0,56.0,56.0,,,,,622.6618498479947,None,1.0,1.3650971201714128,622.6618498479947,None,622.6618498479947,None,622.6618498479947,None,1,2022_Apr_12_1603,Semantic-hierachy,2021.1.2,
207,Trial # 208,layer0-5_O4_to_O5.jpg,layer0-5/layer0-5_O4_to_O5.jpg,OO,layer0-5,,,,,0.0,57.0,57.0,57.0,,,,,628.3134158030152,None,1.0,1.3407713901251554,628.3134158030152,None,628.3134158030152,None,628.3134158030152,None,1,2022_Apr_12_1603,Semantic-hierachy,2021.1.2,
208,Trial # 209,layer6-8_T12_to_T3.jpg,layer6-8/layer6-8_T12_to_T3.jpg,TT,layer6-8,,,,,0.0,58.0,58.0,58.0,,,,,629.9462465608958,None,3.0,3.531155143165961,629.9462465608958,None,629.9462465608958,None,629.9462465608958,None,1,2022_Apr_12_1603,Semantic-hierachy,2021.1.2,
209,Trial # 210,layer6-8_O7_to_T9.jpg,layer6-8/layer6-8_O7_to_T9.jpg,OT,layer6-8,,,,,0.0,59.0,59.0,59.0,,,,,633.6652306499891,None,3.0,1.9627346249762925,633.6652306499891,None,633.6652306499891,None,633.6652306499891,None,1,2022_Apr_12_1603,Semantic-hierachy,2021.1.2,
210,Trial # 211,layer6-8_O1_to_O11.jpg,layer6-8/layer6-8_O1_to_O11.jpg,OO,layer6-8,,,,,0.0,60.0,60.0,60.0,,,,,635.79925867985,None,2.0,1.177871576976031,635.79925867985,None,635.79925867985,None,635.79925867985,None,1,2022_Apr_12_1603,Semantic-hierachy,2021.1.2,
211,Trial # 212,layer6-8_T2_to_T6.jpg,layer6-8/layer6-8_T2_to_T6.jpg,TT,layer6-8,,,,,0.0,61.0,61.0,61.0,,,,,637.7496140399016,None,4.0,2.0782946490217,637.7496140399016,None,637.7496140399016,None,637.7496140399016,None,1,2022_Apr_12_1603,Semantic-hierachy,2021.1.2,
212,Trial # 213,layer6-8_O10_to_O6.jpg,layer6-8/layer6-8_O10_to_O6.jpg,OO,layer6-8,,,,,0.0,62.0,62.0,62.0,,,,,639.9993833799381,None,4.0,1.6574175551068038,639.9993833799381,None,639.9993833799381,None,639.9993833799381,None,1,2022_Apr_12_1603,Semantic-hierachy,2021.1.2,
213,Trial # 214,layer9-17_T5_to_T8.jpg,layer9-17/layer9-17_T5_to_T8.jpg,TT,layer9-17,,,,,0.0,63.0,63.0,63.0,,,,,641.9666309298482,None,2.0,1.6305206899996847,641.9666309298482,None,641.9666309298482,None,641.9666309298482,None,1,2022_Apr_12_1603,Semantic-hierachy,2021.1.2,
214,Trial # 215,layer9-17_O3_to_T10.jpg,layer9-17/layer9-17_O3_to_T10.jpg,OT,layer9-17,,,,,0.0,64.0,64.0,64.0,,,,,644.168524252018,None,2.0,1.1733860068488866,644.168524252018,None,644.168524252018,None,644.168524252018,None,1,2022_Apr_12_1603,Semantic-hierachy,2021.1.2,
215,Trial # 216,layer6-8_O12_to_O3.jpg,layer6-8/layer6-8_O12_to_O3.jpg,OO,layer6-8,,,,,0.0,65.0,65.0,65.0,,,,,645.5342946900055,None,3.0,1.6795039910357443,645.5342946900055,None,645.5342946900055,None,645.5342946900055,None,1,2022_Apr_12_1603,Semantic-hierachy,2021.1.2,
216,Trial # 217,layer0-5_T10_to_T2.jpg,layer0-5/layer0-5_T10_to_T2.jpg,TT,layer0-5,,,,,0.0,66.0,66.0,66.0,,,,,647.3845173479058,None,1.0,2.777206175029278,647.3845173479058,None,647.3845173479058,None,647.3845173479058,None,1,2022_Apr_12_1603,Semantic-hierachy,2021.1.2,
217,Trial # 218,layer9-17_O10_to_O6.jpg,layer9-17/layer9-17_O10_to_O6.jpg,OO,layer9-17,,,,,0.0,67.0,67.0,67.0,,,,,650.669454877032,None,3.0,1.8274355370085689,650.669454877032,None,650.669454877032,None,650.669454877032,None,1,2022_Apr_12_1603,Semantic-hierachy,2021.1.2,
218,Trial # 219,layer6-8_O6_to_O9.jpg,layer6-8/layer6-8_O6_to_O9.jpg,OO,layer6-8,,,,,0.0,68.0,68.0,68.0,,,,,656.0542829919141,None,3.0,1.37547795381397,656.0542829919141,None,656.0542829919141,None,656.0542829919141,None,1,2022_Apr_12_1603,Semantic-hierachy,2021.1.2,
219,Trial # 220,layer0-5_O7_to_T2.jpg,layer0-5/layer0-5_O7_to_T2.jpg,OT,layer0-5,,,,,0.0,69.0,69.0,69.0,,,,,657.604786895914,None,1.0,1.7697460290510207,657.604786895914,None,657.604786895914,None,657.604786895914,None,1,2022_Apr_12_1603,Semantic-hierachy,2021.1.2,
220,Trial # 221,layer9-17_T12_to_T2.jpg,layer9-17/layer9-17_T12_to_T2.jpg,TT,layer9-17,,,,,0.0,70.0,70.0,70.0,,,,,659.6564520329703,None,2.0,3.8239409991074353,659.6564520329703,None,659.6564520329703,None,659.6564520329703,None,1,2022_Apr_12_1603,Semantic-hierachy,2021.1.2,
221,Trial # 222,layer9-17_O8_to_T11.jpg,layer9-17/layer9-17_O8_to_T11.jpg,OT,layer9-17,,,,,0.0,71.0,71.0,71.0,,,,,663.890309857903,None,3.0,2.0581707288511097,663.890309857903,None,663.890309857903,None,663.890309857903,None,1,2022_Apr_12_1603,Semantic-hierachy,2021.1.2,
222,Trial # 223,layer6-8_O3_to_T9.jpg,layer6-8/layer6-8_O3_to_T9.jpg,OT,layer6-8,,,,,0.0,72.0,72.0,72.0,,,,,667.6922139239032,None,3.0,2.597301156958565,667.6922139239032,None,667.6922139239032,None,667.6922139239032,None,1,2022_Apr_12_1603,Semantic-hierachy,2021.1.2,
223,Trial # 224,layer0-5_O6_to_O9.jpg,layer0-5/layer0-5_O6_to_O9.jpg,OO,layer0-5,,,,,0.0,73.0,73.0,73.0,,,,,670.9427130068652,None,1.0,1.439306593965739,670.9427130068652,None,670.9427130068652,None,670.9427130068652,None,1,2022_Apr_12_1603,Semantic-hierachy,2021.1.2,
224,Trial # 225,layer0-5_O12_to_T1.jpg,layer0-5/layer0-5_O12_to_T1.jpg,OT,layer0-5,,,,,0.0,74.0,74.0,74.0,,,,,672.609247229062,None,1.0,1.2758644989226011,672.609247229062,None,672.609247229062,None,672.609247229062,None,1,2022_Apr_12_1603,Semantic-hierachy,2021.1.2,
225,Trial # 226,layer9-17_O2_to_T8.jpg,layer9-17/layer9-17_O2_to_T8.jpg,OT,layer9-17,,,,,0.0,75.0,75.0,75.0,,,,,674.0770258868579,None,2.0,1.592488604132086,674.0770258868579,None,674.0770258868579,None,674.0770258868579,None,1,2022_Apr_12_1603,Semantic-hierachy,2021.1.2,
226,Trial # 227,layer0-5_T4_to_T8.jpg,layer0-5/layer0-5_T4_to_T8.jpg,TT,layer0-5,,,,,0.0,76.0,76.0,76.0,,,,,676.010985490866,None,1.0,1.9198105949908493,676.010985490866,None,676.010985490866,None,676.010985490866,None,1,2022_Apr_12_1603,Semantic-hierachy,2021.1.2,
227,Trial # 228,layer9-17_O2_to_T1.jpg,layer9-17/layer9-17_O2_to_T1.jpg,OT,layer9-17,,,,,0.0,77.0,77.0,77.0,,,,,678.1451480400283,None,4.0,2.925193720962852,678.1451480400283,None,678.1451480400283,None,678.1451480400283,None,1,2022_Apr_12_1603,Semantic-hierachy,2021.1.2,
228,Trial # 229,layer0-5_O11_to_O7.jpg,layer0-5/layer0-5_O11_to_O7.jpg,OO,layer0-5,,,,,0.0,78.0,78.0,78.0,,,,,681.2119849920273,None,1.0,1.951135273091495,681.2119849920273,None,681.2119849920273,None,681.2119849920273,None,1,2022_Apr_12_1603,Semantic-hierachy,2021.1.2,
229,Trial # 230,layer6-8_T2_to_T8.jpg,layer6-8/layer6-8_T2_to_T8.jpg,TT,layer6-8,,,,,0.0,79.0,79.0,79.0,,,,,683.5137704140507,None,3.0,3.609031867934391,683.5137704140507,None,683.5137704140507,None,683.5137704140507,None,1,2022_Apr_12_1603,Semantic-hierachy,2021.1.2,
230,Trial # 231,layer9-17_T4_to_T8.jpg,layer9-17/layer9-17_T4_to_T8.jpg,TT,layer9-17,,,,,0.0,80.0,80.0,80.0,,,,,687.3977617470082,None,2.0,1.4921372968237847,687.3977617470082,None,687.3977617470082,None,687.3977617470082,None,1,2022_Apr_12_1603,Semantic-hierachy,2021.1.2,
231,Trial # 232,layer9-17_T11_to_T3.jpg,layer9-17/layer9-17_T11_to_T3.jpg,TT,layer9-17,,,,,0.0,81.0,81.0,81.0,,,,,689.6648048430216,None,2.0,1.364179671974853,689.6648048430216,None,689.6648048430216,None,689.6648048430216,None,1,2022_Apr_12_1603,Semantic-hierachy,2021.1.2,
232,Trial # 233,layer0-5_O3_to_T9.jpg,layer0-5/layer0-5_O3_to_T9.jpg,OT,layer0-5,,,,,0.0,82.0,82.0,82.0,,,,,691.2982381710317,None,1.0,1.975860813865438,691.2982381710317,None,691.2982381710317,None,691.2982381710317,None,1,2022_Apr_12_1603,Semantic-hierachy,2021.1.2,
233,Trial # 234,layer9-17_T7_to_T8.jpg,layer9-17/layer9-17_T7_to_T8.jpg,TT,layer9-17,,,,,0.0,83.0,83.0,83.0,,,,,693.8838161819149,None,4.0,5.049942816141993,693.8838161819149,None,693.8838161819149,None,693.8838161819149,None,1,2022_Apr_12_1603,Semantic-hierachy,2021.1.2,
234,Trial # 235,layer9-17_O3_to_O4.jpg,layer9-17/layer9-17_O3_to_O4.jpg,OO,layer9-17,,,,,0.0,84.0,84.0,84.0,,,,,699.2689898780081,None,2.0,1.58942530490458,699.2689898780081,None,699.2689898780081,None,699.2689898780081,None,1,2022_Apr_12_1603,Semantic-hierachy,2021.1.2,
235,Trial # 236,layer6-8_O8_to_T6.jpg,layer6-8/layer6-8_O8_to_T6.jpg,OT,layer6-8,,,,,0.0,85.0,85.0,85.0,,,,,701.0847702969331,None,4.0,1.9263588159810752,701.0847702969331,None,701.0847702969331,None,701.0847702969331,None,1,2022_Apr_12_1603,Semantic-hierachy,2021.1.2,
236,Trial # 237,layer9-17_T6_to_T7.jpg,layer9-17/layer9-17_T6_to_T7.jpg,TT,layer9-17,,,,,0.0,86.0,86.0,86.0,,,,,703.353058520006,None,2.0,1.54564796295017,703.353058520006,None,703.353058520006,None,703.353058520006,None,1,2022_Apr_12_1603,Semantic-hierachy,2021.1.2,
237,Trial # 238,layer0-5_T2_to_T9.jpg,layer0-5/layer0-5_T2_to_T9.jpg,TT,layer0-5,,,,,0.0,87.0,87.0,87.0,,,,,705.219484183006,None,1.0,1.915858703898266,705.219484183006,None,705.219484183006,None,705.219484183006,None,1,2022_Apr_12_1603,Semantic-hierachy,2021.1.2,
238,Trial # 239,layer0-5_O2_to_O5.jpg,layer0-5/layer0-5_O2_to_O5.jpg,OO,layer0-5,,,,,0.0,88.0,88.0,88.0,,,,,707.53710232093,None,1.0,1.777172381989658,707.53710232093,None,707.53710232093,None,707.53710232093,None,1,2022_Apr_12_1603,Semantic-hierachy,2021.1.2,
239,Trial # 240,layer6-8_O1_to_O5.jpg,layer6-8/layer6-8_O1_to_O5.jpg,OO,layer6-8,,,,,0.0,89.0,89.0,89.0,,,,,709.9373677470721,None,3.0,3.020391155034304,709.9373677470721,None,709.9373677470721,None,709.9373677470721,None,1,2022_Apr_12_1603,Semantic-hierachy,2021.1.2,
240,Trial # 241,layer9-17_O3_to_O7.jpg,layer9-17/layer9-17_O3_to_O7.jpg,OO,layer9-17,,,,,0.0,90.0,90.0,90.0,,,,,714.672524027992,None,2.0,1.394715195056051,714.672524027992,None,714.672524027992,None,714.672524027992,None,1,2022_Apr_12_1603,Semantic-hierachy,2021.1.2,
241,Trial # 242,layer6-8_O11_to_O8.jpg,layer6-8/layer6-8_O11_to_O8.jpg,OO,layer6-8,,,,,0.0,91.0,91.0,91.0,,,,,716.2392123590689,None,3.0,1.9380898920353504,716.2392123590689,None,716.2392123590689,None,716.2392123590689,None,1,2022_Apr_12_1603,Semantic-hierachy,2021.1.2,
242,Trial # 243,layer9-17_T1_to_T12.jpg,layer9-17/layer9-17_T1_to_T12.jpg,TT,layer9-17,,,,,0.0,92.0,92.0,92.0,,,,,718.4246969348751,None,2.0,1.3281018070410937,718.4246969348751,None,718.4246969348751,None,718.4246969348751,None,1,2022_Apr_12_1603,Semantic-hierachy,2021.1.2,
243,Trial # 244,layer9-17_O6_to_O8.jpg,layer9-17/layer9-17_O6_to_O8.jpg,OO,layer9-17,,,,,0.0,93.0,93.0,93.0,,,,,719.8913158138748,None,3.0,4.655194659950212,719.8913158138748,None,719.8913158138748,None,719.8913158138748,None,1,2022_Apr_12_1603,Semantic-hierachy,2021.1.2,
244,Trial # 245,layer6-8_O4_to_T11.jpg,layer6-8/layer6-8_O4_to_T11.jpg,OT,layer6-8,,,,,0.0,94.0,94.0,94.0,,,,,725.2426980140153,None,3.0,1.9537313461769368,725.2426980140153,None,725.2426980140153,None,725.2426980140153,None,1,2022_Apr_12_1603,Semantic-hierachy,2021.1.2,
245,Trial # 246,layer9-17_T10_to_T3.jpg,layer9-17/layer9-17_T10_to_T3.jpg,TT,layer9-17,,,,,0.0,95.0,95.0,95.0,,,,,727.3430791259743,None,2.0,1.4325260310433805,727.3430791259743,None,727.3430791259743,None,727.3430791259743,None,1,2022_Apr_12_1603,Semantic-hierachy,2021.1.2,
246,Trial # 247,layer0-5_O10_to_O8.jpg,layer0-5/layer0-5_O10_to_O8.jpg,OO,layer0-5,,,,,0.0,96.0,96.0,96.0,,,,,728.9945557499304,None,1.0,1.811856409069151,728.9945557499304,None,728.9945557499304,None,728.9945557499304,None,1,2022_Apr_12_1603,Semantic-hierachy,2021.1.2,
247,Trial # 248,layer6-8_O3_to_T12.jpg,layer6-8/layer6-8_O3_to_T12.jpg,OT,layer6-8,,,,,0.0,97.0,97.0,97.0,,,,,731.1103915660642,None,3.0,1.6443996150046587,731.1103915660642,None,731.1103915660642,None,731.1103915660642,None,1,2022_Apr_12_1603,Semantic-hierachy,2021.1.2,
248,Trial # 249,layer0-5_O12_to_T9.jpg,layer0-5/layer0-5_O12_to_T9.jpg,OT,layer0-5,,,,,0.0,98.0,98.0,98.0,,,,,733.0121564450674,None,1.0,1.6449137479066849,733.0121564450674,None,733.0121564450674,None,733.0121564450674,None,1,2022_Apr_12_1603,Semantic-hierachy,2021.1.2,
249,Trial # 250,layer9-17_T1_to_T9.jpg,layer9-17/layer9-17_T1_to_T9.jpg,TT,layer9-17,,,,,0.0,99.0,99.0,99.0,,,,,734.845149650937,None,3.0,10.512806894024834,734.845149650937,None,734.845149650937,None,734.845149650937,None,1,2022_Apr_12_1603,Semantic-hierachy,2021.1.2,
250,Trial # 251,layer9-17_T11_to_T8.jpg,layer9-17/layer9-17_T11_to_T8.jpg,TT,layer9-17,,,,,0.0,100.0,100.0,100.0,,,,,746.3486987638753,None,2.0,1.3969262428581717,746.3486987638753,None,746.3486987638753,None,746.3486987638753,None,1,2022_Apr_12_1603,Semantic-hierachy,2021.1.2,
251,Trial # 252,layer9-17_T11_to_T5.jpg,layer9-17/layer9-17_T11_to_T5.jpg,TT,layer9-17,,,,,0.0,101.0,101.0,101.0,,,,,748.0839228869881,None,4.0,2.050425213063136,748.0839228869881,None,748.0839228869881,None,748.0839228869881,None,1,2022_Apr_12_1603,Semantic-hierachy,2021.1.2,
252,Trial # 253,layer6-8_T10_to_T12.jpg,layer6-8/layer6-8_T10_to_T12.jpg,TT,layer6-8,,,,,0.0,102.0,102.0,102.0,,,,,750.8000210069586,None,4.0,2.884066907921806,750.8000210069586,None,750.8000210069586,None,750.8000210069586,None,1,2022_Apr_12_1603,Semantic-hierachy,2021.1.2,
253,Trial # 254,layer9-17_O5_to_T1.jpg,layer9-17/layer9-17_O5_to_T1.jpg,OT,layer9-17,,,,,0.0,103.0,103.0,103.0,,,,,754.1020486229099,None,2.0,1.4586469479836524,754.1020486229099,None,754.1020486229099,None,754.1020486229099,None,1,2022_Apr_12_1603,Semantic-hierachy,2021.1.2,
254,Trial # 255,layer6-8_T2_to_T3.jpg,layer6-8/layer6-8_T2_to_T3.jpg,TT,layer6-8,,,,,0.0,104.0,104.0,104.0,,,,,755.9180283278693,None,4.0,1.777121676132083,755.9180283278693,None,755.9180283278693,None,755.9180283278693,None,1,2022_Apr_12_1603,Semantic-hierachy,2021.1.2,
255,Trial # 256,layer6-8_O2_to_T6.jpg,layer6-8/layer6-8_O2_to_T6.jpg,OT,layer6-8,,,,,0.0,105.0,105.0,105.0,,,,,758.019203918986,None,3.0,3.049876313889399,758.019203918986,None,758.019203918986,None,758.019203918986,None,1,2022_Apr_12_1603,Semantic-hierachy,2021.1.2,
256,Trial # 257,layer6-8_T11_to_T9.jpg,layer6-8/layer6-8_T11_to_T9.jpg,TT,layer6-8,,,,,0.0,106.0,106.0,106.0,,,,,761.4376441340428,None,4.0,1.562640957068652,761.4376441340428,None,761.4376441340428,None,761.4376441340428,None,1,2022_Apr_12_1603,Semantic-hierachy,2021.1.2,
257,Trial # 258,layer6-8_O5_to_T9.jpg,layer6-8/layer6-8_O5_to_T9.jpg,OT,layer6-8,,,,,0.0,107.0,107.0,107.0,,,,,764.2886760539841,None,3.0,2.481166973011568,764.2886760539841,None,764.2886760539841,None,764.2886760539841,None,1,2022_Apr_12_1603,Semantic-hierachy,2021.1.2,
258,Trial # 259,layer6-8_O9_to_T8.jpg,layer6-8/layer6-8_O9_to_T8.jpg,OT,layer6-8,,,,,0.0,108.0,108.0,108.0,,,,,767.2056518848985,None,3.0,1.5605545409489423,767.2056518848985,None,767.2056518848985,None,767.2056518848985,None,1,2022_Apr_12_1603,Semantic-hierachy,2021.1.2,
259,Trial # 260,layer6-8_T1_to_T5.jpg,layer6-8/layer6-8_T1_to_T5.jpg,TT,layer6-8,,,,,0.0,109.0,109.0,109.0,,,,,768.9227364698891,None,3.0,2.638226528884843,768.9227364698891,None,768.9227364698891,None,768.9227364698891,None,1,2022_Apr_12_1603,Semantic-hierachy,2021.1.2,
260,Trial # 261,layer0-5_O11_to_T2.jpg,layer0-5/layer0-5_O11_to_T2.jpg,OT,layer0-5,,,,,0.0,110.0,110.0,110.0,,,,,771.9567087509204,None,1.0,1.8268707029055804,771.9567087509204,None,771.9567087509204,None,771.9567087509204,None,1,2022_Apr_12_1603,Semantic-hierachy,2021.1.2,
261,Trial # 262,layer0-5_O7_to_T4.jpg,layer0-5/layer0-5_O7_to_T4.jpg,OT,layer0-5,,,,,0.0,111.0,111.0,111.0,,,,,775.0742039359175,None,1.0,1.2822591168805957,775.0742039359175,None,775.0742039359175,None,775.0742039359175,None,1,2022_Apr_12_1603,Semantic-hierachy,2021.1.2,
262,Trial # 263,layer6-8_T12_to_T8.jpg,layer6-8/layer6-8_T12_to_T8.jpg,TT,layer6-8,,,,,0.0,112.0,112.0,112.0,,,,,776.5409032730386,None,2.0,3.657008982961997,776.5409032730386,None,776.5409032730386,None,776.5409032730386,None,1,2022_Apr_12_1603,Semantic-hierachy,2021.1.2,
263,Trial # 264,layer6-8_O4_to_O9.jpg,layer6-8/layer6-8_O4_to_O9.jpg,OO,layer6-8,,,,,0.0,113.0,113.0,113.0,,,,,781.6259085750207,None,3.0,2.1461020109709352,781.6259085750207,None,781.6259085750207,None,781.6259085750207,None,1,2022_Apr_12_1603,Semantic-hierachy,2021.1.2,
264,Trial # 265,layer0-5_T1_to_T5.jpg,layer0-5/layer0-5_T1_to_T5.jpg,TT,layer0-5,,,,,0.0,114.0,114.0,114.0,,,,,784.5272764558904,None,1.0,1.823846286162734,784.5272764558904,None,784.5272764558904,None,784.5272764558904,None,1,2022_Apr_12_1603,Semantic-hierachy,2021.1.2,
265,Trial # 266,layer0-5_O12_to_O7.jpg,layer0-5/layer0-5_O12_to_O7.jpg,OO,layer0-5,,,,,0.0,115.0,115.0,115.0,,,,,786.5949189669918,None,1.0,1.3024841321166605,786.5949189669918,None,786.5949189669918,None,786.5949189669918,None,1,2022_Apr_12_1603,Semantic-hierachy,2021.1.2,
266,Trial # 267,layer6-8_T8_to_T9.jpg,layer6-8/layer6-8_T8_to_T9.jpg,TT,layer6-8,,,,,0.0,116.0,116.0,116.0,,,,,788.1626202529296,None,2.0,4.542271659942344,788.1626202529296,None,788.1626202529296,None,788.1626202529296,None,1,2022_Apr_12_1603,Semantic-hierachy,2021.1.2,
267,Trial # 268,layer9-17_O11_to_T10.jpg,layer9-17/layer9-17_O11_to_T10.jpg,OT,layer9-17,,,,,0.0,117.0,117.0,117.0,,,,,792.9644499199931,None,2.0,1.1923200620803982,792.9644499199931,None,792.9644499199931,None,792.9644499199931,None,1,2022_Apr_12_1603,Semantic-hierachy,2021.1.2,
268,Trial # 269,layer0-5_O8_to_T9.jpg,layer0-5/layer0-5_O8_to_T9.jpg,OT,layer0-5,,,,,0.0,118.0,118.0,118.0,,,,,794.3145315279253,None,1.0,1.449099367018789,794.3145315279253,None,794.3145315279253,None,794.3145315279253,None,1,2022_Apr_12_1603,Semantic-hierachy,2021.1.2,
269,Trial # 270,layer9-17_O10_to_O11.jpg,layer9-17/layer9-17_O10_to_O11.jpg,OO,layer9-17,,,,,0.0,119.0,119.0,119.0,,,,,795.9312743090559,None,3.0,2.2795305128674954,795.9312743090559,None,795.9312743090559,None,795.9312743090559,None,1,2022_Apr_12_1603,Semantic-hierachy,2021.1.2,
270,Trial # 271,layer0-5_T1_to_T9.jpg,layer0-5/layer0-5_T1_to_T9.jpg,TT,layer0-5,,,,,0.0,120.0,120.0,120.0,,,,,798.3985090809874,None,1.0,1.4971194139216095,798.3985090809874,None,798.3985090809874,None,798.3985090809874,None,1,2022_Apr_12_1603,Semantic-hierachy,2021.1.2,
271,Trial # 272,layer6-8_T11_to_T8.jpg,layer6-8/layer6-8_T11_to_T8.jpg,TT,layer6-8,,,,,0.0,121.0,121.0,121.0,,,,,800.0651836949401,None,4.0,2.007493779063225,800.0651836949401,None,800.0651836949401,None,800.0651836949401,None,1,2022_Apr_12_1603,Semantic-hierachy,2021.1.2,
272,Trial # 273,layer9-17_O10_to_O12.jpg,layer9-17/layer9-17_O10_to_O12.jpg,OO,layer9-17,,,,,0.0,122.0,122.0,122.0,,,,,802.3326336289756,None,2.0,2.025307605974376,802.3326336289756,None,802.3326336289756,None,802.3326336289756,None,1,2022_Apr_12_1603,Semantic-hierachy,2021.1.2,
273,Trial # 274,layer0-5_T12_to_T6.jpg,layer0-5/layer0-5_T12_to_T6.jpg,TT,layer0-5,,,,,0.0,123.0,123.0,123.0,,,,,804.8000329318456,None,1.0,1.6279581349808725,804.8000329318456,None,804.8000329318456,None,804.8000329318456,None,1,2022_Apr_12_1603,Semantic-hierachy,2021.1.2,
274,Trial # 275,layer9-17_O11_to_O5.jpg,layer9-17/layer9-17_O11_to_O5.jpg,OO,layer9-17,,,,,0.0,124.0,124.0,124.0,,,,,806.700377776986,None,3.0,1.6500095860101285,806.700377776986,None,806.700377776986,None,806.700377776986,None,1,2022_Apr_12_1603,Semantic-hierachy,2021.1.2,
275,Trial # 276,layer9-17_O1_to_O4.jpg,layer9-17/layer9-17_O1_to_O4.jpg,OO,layer9-17,,,,,0.0,125.0,125.0,125.0,,,,,808.5025449418463,None,3.0,1.795963658951223,808.5025449418463,None,808.5025449418463,None,808.5025449418463,None,1,2022_Apr_12_1603,Semantic-hierachy,2021.1.2,
276,Trial # 277,layer6-8_O11_to_O3.jpg,layer6-8/layer6-8_O11_to_O3.jpg,OO,layer6-8,,,,,0.0,126.0,126.0,126.0,,,,,810.9520248358604,None,3.0,1.1001337878406048,810.9520248358604,None,810.9520248358604,None,810.9520248358604,None,1,2022_Apr_12_1603,Semantic-hierachy,2021.1.2,
277,Trial # 278,layer6-8_T10_to_T11.jpg,layer6-8/layer6-8_T10_to_T11.jpg,TT,layer6-8,,,,,0.0,127.0,127.0,127.0,,,,,812.2526134229265,None,3.0,1.4925878150388598,812.2526134229265,None,812.2526134229265,None,812.2526134229265,None,1,2022_Apr_12_1603,Semantic-hierachy,2021.1.2,
278,Trial # 279,layer0-5_O7_to_T3.jpg,layer0-5/layer0-5_O7_to_T3.jpg,OT,layer0-5,,,,,0.0,128.0,128.0,128.0,,,,,813.9870827998966,None,1.0,1.4594361749477684,813.9870827998966,None,813.9870827998966,None,813.9870827998966,None,1,2022_Apr_12_1603,Semantic-hierachy,2021.1.2,
279,Trial # 280,layer9-17_T1_to_T10.jpg,layer9-17/layer9-17_T1_to_T10.jpg,TT,layer9-17,,,,,0.0,129.0,129.0,129.0,,,,,815.5864726300351,None,3.0,1.6316674179397523,815.5864726300351,None,815.5864726300351,None,815.5864726300351,None,1,2022_Apr_12_1603,Semantic-hierachy,2021.1.2,
280,Trial # 281,layer9-17_O6_to_T7.jpg,layer9-17/layer9-17_O6_to_T7.jpg,OT,layer9-17,,,,,0.0,130.0,130.0,130.0,,,,,817.4539439189248,None,2.0,1.4768523331731558,817.4539439189248,None,817.4539439189248,None,817.4539439189248,None,1,2022_Apr_12_1603,Semantic-hierachy,2021.1.2,
281,Trial # 282,layer0-5_O10_to_O7.jpg,layer0-5/layer0-5_O10_to_O7.jpg,OO,layer0-5,,,,,0.0,131.0,131.0,131.0,,,,,819.1220825829078,None,1.0,3.4596413660328835,819.1220825829078,None,819.1220825829078,None,819.1220825829078,None,1,2022_Apr_12_1603,Semantic-hierachy,2021.1.2,
282,Trial # 283,layer0-5_O1_to_O11.jpg,layer0-5/layer0-5_O1_to_O11.jpg,OO,layer0-5,,,,,0.0,132.0,132.0,132.0,,,,,822.806847613072,None,1.0,2.0628331298939884,822.806847613072,None,822.806847613072,None,822.806847613072,None,1,2022_Apr_12_1603,Semantic-hierachy,2021.1.2,
283,Trial # 284,layer6-8_O7_to_O8.jpg,layer6-8/layer6-8_O7_to_O8.jpg,OO,layer6-8,,,,,0.0,133.0,133.0,133.0,,,,,825.1240310149733,None,2.0,1.6071489551104603,825.1240310149733,None,825.1240310149733,None,825.1240310149733,None,1,2022_Apr_12_1603,Semantic-hierachy,2021.1.2,
284,Trial # 285,layer0-5_T7_to_T8.jpg,layer0-5/layer0-5_T7_to_T8.jpg,TT,layer0-5,,,,,0.0,134.0,134.0,134.0,,,,,826.8565207980573,None,1.0,3.0147372339852154,826.8565207980573,None,826.8565207980573,None,826.8565207980573,None,1,2022_Apr_12_1603,Semantic-hierachy,2021.1.2,
285,Trial # 286,layer9-17_T11_to_T6.jpg,layer9-17/layer9-17_T11_to_T6.jpg,TT,layer9-17,,,,,0.0,135.0,135.0,135.0,,,,,830.1245810589753,None,3.0,2.0125612760894,830.1245810589753,None,830.1245810589753,None,830.1245810589753,None,1,2022_Apr_12_1603,Semantic-hierachy,2021.1.2,
286,Trial # 287,layer0-5_T2_to_T7.jpg,layer0-5/layer0-5_T2_to_T7.jpg,TT,layer0-5,,,,,0.0,136.0,136.0,136.0,,,,,833.0425165458582,None,1.0,1.4959648149088025,833.0425165458582,None,833.0425165458582,None,833.0425165458582,None,1,2022_Apr_12_1603,Semantic-hierachy,2021.1.2,
287,Trial # 288,layer9-17_O10_to_O2.jpg,layer9-17/layer9-17_O10_to_O2.jpg,OO,layer9-17,,,,,0.0,137.0,137.0,137.0,,,,,834.6761103810277,None,2.0,1.3884322110097855,834.6761103810277,None,834.6761103810277,None,834.6761103810277,None,1,2022_Apr_12_1603,Semantic-hierachy,2021.1.2,
288,Trial # 289,layer0-5_T10_to_T9.jpg,layer0-5/layer0-5_T10_to_T9.jpg,TT,layer0-5,,,,,0.0,138.0,138.0,138.0,,,,,837.026996485889,None,1.0,1.7431771969422698,837.026996485889,None,837.026996485889,None,837.026996485889,None,1,2022_Apr_12_1603,Semantic-hierachy,2021.1.2,
289,Trial # 290,layer6-8_O11_to_O5.jpg,layer6-8/layer6-8_O11_to_O5.jpg,OO,layer6-8,,,,,0.0,139.0,139.0,139.0,,,,,838.9618887950201,None,2.0,1.4074091401416808,838.9618887950201,None,838.9618887950201,None,838.9618887950201,None,1,2022_Apr_12_1603,Semantic-hierachy,2021.1.2,
290,Trial # 291,layer6-8_O3_to_O7.jpg,layer6-8/layer6-8_O3_to_O7.jpg,OO,layer6-8,,,,,0.0,140.0,140.0,140.0,,,,,840.7287498570513,None,2.0,1.4265826880000532,840.7287498570513,None,840.7287498570513,None,840.7287498570513,None,1,2022_Apr_12_1603,Semantic-hierachy,2021.1.2,
291,Trial # 292,layer9-17_O12_to_T11.jpg,layer9-17/layer9-17_O12_to_T11.jpg,OT,layer9-17,,,,,0.0,141.0,141.0,141.0,,,,,842.3623094148934,None,2.0,1.2430995248723775,842.3623094148934,None,842.3623094148934,None,842.3623094148934,None,1,2022_Apr_12_1603,Semantic-hierachy,2021.1.2,
292,Trial # 293,layer9-17_O2_to_O4.jpg,layer9-17/layer9-17_O2_to_O4.jpg,OO,layer9-17,,,,,0.0,142.0,142.0,142.0,,,,,843.8122725249268,None,4.0,1.8092224730644373,843.8122725249268,None,843.8122725249268,None,843.8122725249268,None,1,2022_Apr_12_1603,Semantic-hierachy,2021.1.2,
293,Trial # 294,layer6-8_O1_to_T12.jpg,layer6-8/layer6-8_O1_to_T12.jpg,OT,layer6-8,,,,,0.0,143.0,143.0,143.0,,,,,845.9629747290164,None,3.0,1.345163843827322,845.9629747290164,None,845.9629747290164,None,845.9629747290164,None,1,2022_Apr_12_1603,Semantic-hierachy,2021.1.2,
294,Trial # 295,layer9-17_O11_to_T5.jpg,layer9-17/layer9-17_O11_to_T5.jpg,OT,layer9-17,,,,,0.0,144.0,144.0,144.0,,,,,847.5627883530688,None,3.0,2.857643733965233,847.5627883530688,None,847.5627883530688,None,847.5627883530688,None,1,2022_Apr_12_1603,Semantic-hierachy,2021.1.2,
295,Trial # 296,layer0-5_O10_to_O9.jpg,layer0-5/layer0-5_O10_to_O9.jpg,OO,layer0-5,,,,,0.0,145.0,145.0,145.0,,,,,850.9644481800497,None,1.0,1.4469381240196526,850.9644481800497,None,850.9644481800497,None,850.9644481800497,None,1,2022_Apr_12_1603,Semantic-hierachy,2021.1.2,
296,Trial # 297,layer6-8_O12_to_T10.jpg,layer6-8/layer6-8_O12_to_T10.jpg,OT,layer6-8,,,,,0.0,146.0,146.0,146.0,,,,,852.6316564269364,None,3.0,1.6317669318523258,852.6316564269364,None,852.6316564269364,None,852.6316564269364,None,1,2022_Apr_12_1603,Semantic-hierachy,2021.1.2,
297,Trial # 298,layer6-8_O3_to_T2.jpg,layer6-8/layer6-8_O3_to_T2.jpg,OT,layer6-8,,,,,0.0,147.0,147.0,147.0,,,,,854.6321523829829,None,2.0,1.2963394420221448,854.6321523829829,None,854.6321523829829,None,854.6321523829829,None,1,2022_Apr_12_1603,Semantic-hierachy,2021.1.2,
298,Trial # 299,layer9-17_O2_to_T5.jpg,layer9-17/layer9-17_O2_to_T5.jpg,OT,layer9-17,,,,,0.0,148.0,148.0,148.0,,,,,856.0989459268749,None,4.0,6.661650663008913,856.0989459268749,None,856.0989459268749,None,856.0989459268749,None,1,2022_Apr_12_1603,Semantic-hierachy,2021.1.2,
299,Trial # 300,layer0-5_O3_to_T7.jpg,layer0-5/layer0-5_O3_to_T7.jpg,OT,layer0-5,,,,,0.0,149.0,149.0,149.0,,,,,863.8694855398498,None,1.0,1.393055646913126,863.8694855398498,None,863.8694855398498,None,863.8694855398498,None,1,2022_Apr_12_1603,Semantic-hierachy,2021.1.2,
300,Trial # 301,layer9-17_O11_to_O6.jpg,layer9-17/layer9-17_O11_to_O6.jpg,OO,layer9-17,,,,,,,,,0.0,0.0,0.0,0.0,873.5222975788638,None,3.0,2.252448791870848,873.5222975788638,None,873.5222975788638,None,873.5222975788638,None,1,2022_Apr_12_1603,Semantic-hierachy,2021.1.2,
301,Trial # 302,layer0-5_O3_to_O7.jpg,layer0-5/layer0-5_O3_to_O7.jpg,OO,layer0-5,,,,,,,,,0.0,1.0,1.0,1.0,877.0224676758517,None,1.0,1.5443636949639767,877.0224676758517,None,877.0224676758517,None,877.0224676758517,None,1,2022_Apr_12_1603,Semantic-hierachy,2021.1.2,
302,Trial # 303,layer6-8_O11_to_T3.jpg,layer6-8/layer6-8_O11_to_T3.jpg,OT,layer6-8,,,,,,,,,0.0,2.0,2.0,2.0,878.77402290795,None,3.0,1.89570342283696,878.77402290795,None,878.77402290795,None,878.77402290795,None,1,2022_Apr_12_1603,Semantic-hierachy,2021.1.2,
303,Trial # 304,layer6-8_O2_to_T7.jpg,layer6-8/layer6-8_O2_to_T7.jpg,OT,layer6-8,,,,,,,,,0.0,3.0,3.0,3.0,880.8073622060474,None,3.0,1.1641363929957151,880.8073622060474,None,880.8073622060474,None,880.8073622060474,None,1,2022_Apr_12_1603,Semantic-hierachy,2021.1.2,
304,Trial # 305,layer0-5_T1_to_T7.jpg,layer0-5/layer0-5_T1_to_T7.jpg,TT,layer0-5,,,,,,,,,0.0,4.0,4.0,4.0,882.1737339510582,None,1.0,1.3946912290994078,882.1737339510582,None,882.1737339510582,None,882.1737339510582,None,1,2022_Apr_12_1603,Semantic-hierachy,2021.1.2,
305,Trial # 306,layer6-8_O7_to_T11.jpg,layer6-8/layer6-8_O7_to_T11.jpg,OT,layer6-8,,,,,,,,,0.0,5.0,5.0,5.0,883.758842170937,None,3.0,1.490125095937401,883.758842170937,None,883.758842170937,None,883.758842170937,None,1,2022_Apr_12_1603,Semantic-hierachy,2021.1.2,
306,Trial # 307,layer9-17_O5_to_T5.jpg,layer9-17/layer9-17_O5_to_T5.jpg,OT,layer9-17,,,,,,,,,0.0,6.0,6.0,6.0,885.4416475449689,None,2.0,1.359612985048443,885.4416475449689,None,885.4416475449689,None,885.4416475449689,None,1,2022_Apr_12_1603,Semantic-hierachy,2021.1.2,
307,Trial # 308,layer9-17_T12_to_T5.jpg,layer9-17/layer9-17_T12_to_T5.jpg,TT,layer9-17,,,,,,,,,0.0,7.0,7.0,7.0,886.9751351010054,None,2.0,1.6913134912028909,886.9751351010054,None,886.9751351010054,None,886.9751351010054,None,1,2022_Apr_12_1603,Semantic-hierachy,2021.1.2,
308,Trial # 309,layer6-8_O11_to_O2.jpg,layer6-8/layer6-8_O11_to_O2.jpg,OO,layer6-8,,,,,,,,,0.0,8.0,8.0,8.0,888.8760161858518,None,3.0,1.7268443438224494,888.8760161858518,None,888.8760161858518,None,888.8760161858518,None,1,2022_Apr_12_1603,Semantic-hierachy,2021.1.2,
309,Trial # 310,layer6-8_O10_to_O7.jpg,layer6-8/layer6-8_O10_to_O7.jpg,OO,layer6-8,,,,,,,,,0.0,9.0,9.0,9.0,890.7932419329882,None,3.0,1.7418198480736464,890.7932419329882,None,890.7932419329882,None,890.7932419329882,None,1,2022_Apr_12_1603,Semantic-hierachy,2021.1.2,
310,Trial # 311,layer9-17_O10_to_T11.jpg,layer9-17/layer9-17_O10_to_T11.jpg,OT,layer9-17,,,,,,,,,0.0,10.0,10.0,10.0,892.7440477430355,None,2.0,5.495672859949991,892.7440477430355,None,892.7440477430355,None,892.7440477430355,None,1,2022_Apr_12_1603,Semantic-hierachy,2021.1.2,
311,Trial # 312,layer6-8_O11_to_O12.jpg,layer6-8/layer6-8_O11_to_O12.jpg,OO,layer6-8,,,,,,,,,0.0,11.0,11.0,11.0,898.6300131408498,None,3.0,1.6479158638976514,898.6300131408498,None,898.6300131408498,None,898.6300131408498,None,1,2022_Apr_12_1603,Semantic-hierachy,2021.1.2,
312,Trial # 313,layer9-17_O9_to_T8.jpg,layer9-17/layer9-17_O9_to_T8.jpg,OT,layer9-17,,,,,,,,,0.0,12.0,12.0,12.0,901.146165428916,None,3.0,2.549330657115206,901.146165428916,None,901.146165428916,None,901.146165428916,None,1,2022_Apr_12_1603,Semantic-hierachy,2021.1.2,
313,Trial # 314,layer0-5_O3_to_T2.jpg,layer0-5/layer0-5_O3_to_T2.jpg,OT,layer0-5,,,,,,,,,0.0,13.0,13.0,13.0,904.081868836889,None,1.0,1.692827312042937,904.081868836889,None,904.081868836889,None,904.081868836889,None,1,2022_Apr_12_1603,Semantic-hierachy,2021.1.2,
314,Trial # 315,layer9-17_T1_to_T11.jpg,layer9-17/layer9-17_T1_to_T11.jpg,TT,layer9-17,,,,,,,,,0.0,14.0,14.0,14.0,905.898180038901,None,2.0,1.2810844220221045,905.898180038901,None,905.898180038901,None,905.898180038901,None,1,2022_Apr_12_1603,Semantic-hierachy,2021.1.2,
315,Trial # 316,layer6-8_T10_to_T7.jpg,layer6-8/layer6-8_T10_to_T7.jpg,TT,layer6-8,,,,,,,,,0.0,15.0,15.0,15.0,907.3147458140738,None,3.0,15.299387166043743,907.3147458140738,None,907.3147458140738,None,907.3147458140738,None,1,2022_Apr_12_1603,Semantic-hierachy,2021.1.2,
316,Trial # 317,layer0-5_T6_to_T7.jpg,layer0-5/layer0-5_T6_to_T7.jpg,TT,layer0-5,,,,,,,,,0.0,16.0,16.0,16.0,924.4882590258494,None,1.0,1.5128255849704146,924.4882590258494,None,924.4882590258494,None,924.4882590258494,None,1,2022_Apr_12_1603,Semantic-hierachy,2021.1.2,
317,Trial # 318,layer9-17_O1_to_T3.jpg,layer9-17/layer9-17_O1_to_T3.jpg,OT,layer9-17,,,,,,,,,0.0,17.0,17.0,17.0,926.1708441260272,None,2.0,1.4294384750537574,926.1708441260272,None,926.1708441260272,None,926.1708441260272,None,1,2022_Apr_12_1603,Semantic-hierachy,2021.1.2,
318,Trial # 319,layer0-5_O2_to_T5.jpg,layer0-5/layer0-5_O2_to_T5.jpg,OT,layer0-5,,,,,,,,,0.0,18.0,18.0,18.0,927.7393641879316,None,1.0,1.7310201809741557,927.7393641879316,None,927.7393641879316,None,927.7393641879316,None,1,2022_Apr_12_1603,Semantic-hierachy,2021.1.2,
319,Trial # 320,layer6-8_O7_to_T10.jpg,layer6-8/layer6-8_O7_to_T10.jpg,OT,layer6-8,,,,,,,,,0.0,19.0,19.0,19.0,929.6393661908804,None,3.0,1.9135103849694133,929.6393661908804,None,929.6393661908804,None,929.6393661908804,None,1,2022_Apr_12_1603,Semantic-hierachy,2021.1.2,
320,Trial # 321,layer0-5_O5_to_O6.jpg,layer0-5/layer0-5_O5_to_O6.jpg,OO,layer0-5,,,,,,,,,0.0,20.0,20.0,20.0,932.5060846288688,None,1.0,1.5973191619850695,932.5060846288688,None,932.5060846288688,None,932.5060846288688,None,1,2022_Apr_12_1603,Semantic-hierachy,2021.1.2,
321,Trial # 322,layer9-17_O5_to_T4.jpg,layer9-17/layer9-17_O5_to_T4.jpg,OT,layer9-17,,,,,,,,,0.0,21.0,21.0,21.0,934.2581794408616,None,2.0,1.458703514188528,934.2581794408616,None,934.2581794408616,None,934.2581794408616,None,1,2022_Apr_12_1603,Semantic-hierachy,2021.1.2,
322,Trial # 323,layer0-5_T12_to_T2.jpg,layer0-5/layer0-5_T12_to_T2.jpg,TT,layer0-5,,,,,,,,,0.0,22.0,22.0,22.0,935.840412952006,None,1.0,2.431615953100845,935.840412952006,None,935.840412952006,None,935.840412952006,None,1,2022_Apr_12_1603,Semantic-hierachy,2021.1.2,
323,Trial # 324,layer0-5_O2_to_O4.jpg,layer0-5/layer0-5_O2_to_O4.jpg,OO,layer0-5,,,,,,,,,0.0,23.0,23.0,23.0,938.441476637032,None,1.0,1.0928124950733036,938.441476637032,None,938.441476637032,None,938.441476637032,None,1,2022_Apr_12_1603,Semantic-hierachy,2021.1.2,
324,Trial # 325,layer6-8_O1_to_O9.jpg,layer6-8/layer6-8_O1_to_O9.jpg,OO,layer6-8,,,,,,,,,0.0,24.0,24.0,24.0,939.7426576749422,None,4.0,4.75716323312372,939.7426576749422,None,939.7426576749422,None,939.7426576749422,None,1,2022_Apr_12_1603,Semantic-hierachy,2021.1.2,
325,Trial # 326,layer0-5_T3_to_T5.jpg,layer0-5/layer0-5_T3_to_T5.jpg,TT,layer0-5,,,,,,,,,0.0,25.0,25.0,25.0,945.193890664028,None,1.0,1.8638954479247327,945.193890664028,None,945.193890664028,None,945.193890664028,None,1,2022_Apr_12_1603,Semantic-hierachy,2021.1.2,
326,Trial # 327,layer6-8_O8_to_T12.jpg,layer6-8/layer6-8_O8_to_T12.jpg,OT,layer6-8,,,,,,,,,0.0,26.0,26.0,26.0,947.2601036750712,None,3.0,1.605641518952325,947.2601036750712,None,947.2601036750712,None,947.2601036750712,None,1,2022_Apr_12_1603,Semantic-hierachy,2021.1.2,
327,Trial # 328,layer9-17_T11_to_T4.jpg,layer9-17/layer9-17_T11_to_T4.jpg,TT,layer9-17,,,,,,,,,0.0,27.0,27.0,27.0,949.211465189932,None,2.0,1.9997651919256896,949.211465189932,None,949.211465189932,None,949.211465189932,None,1,2022_Apr_12_1603,Semantic-hierachy,2021.1.2,
328,Trial # 329,layer9-17_O6_to_T2.jpg,layer9-17/layer9-17_O6_to_T2.jpg,OT,layer9-17,,,,,,,,,0.0,28.0,28.0,28.0,951.5618463288992,None,2.0,1.2073181779123845,951.5618463288992,None,951.5618463288992,None,951.5618463288992,None,1,2022_Apr_12_1603,Semantic-hierachy,2021.1.2,
329,Trial # 330,layer9-17_T10_to_T9.jpg,layer9-17/layer9-17_T10_to_T9.jpg,TT,layer9-17,,,,,,,,,0.0,29.0,29.0,29.0,953.4976502119098,None,2.0,1.540349995950237,953.4976502119098,None,953.4976502119098,None,953.4976502119098,None,1,2022_Apr_12_1603,Semantic-hierachy,2021.1.2,
330,Trial # 331,layer0-5_O2_to_O3.jpg,layer0-5/layer0-5_O2_to_O3.jpg,OO,layer0-5,,,,,,,,,0.0,30.0,30.0,30.0,955.3303636789788,None,1.0,1.5261873418930918,955.3303636789788,None,955.3303636789788,None,955.3303636789788,None,1,2022_Apr_12_1603,Semantic-hierachy,2021.1.2,
331,Trial # 332,layer6-8_O1_to_O12.jpg,layer6-8/layer6-8_O1_to_O12.jpg,OO,layer6-8,,,,,,,,,0.0,31.0,31.0,31.0,957.080248038983,None,3.0,2.782047176966444,957.080248038983,None,957.080248038983,None,957.080248038983,None,1,2022_Apr_12_1603,Semantic-hierachy,2021.1.2,
332,Trial # 333,layer0-5_O5_to_T12.jpg,layer0-5/layer0-5_O5_to_T12.jpg,OT,layer0-5,,,,,,,,,0.0,32.0,32.0,32.0,960.0810900549404,None,1.0,1.8603708748705683,960.0810900549404,None,960.0810900549404,None,960.0810900549404,None,1,2022_Apr_12_1603,Semantic-hierachy,2021.1.2,
333,Trial # 334,layer9-17_O11_to_T6.jpg,layer9-17/layer9-17_O11_to_T6.jpg,OT,layer9-17,,,,,,,,,0.0,33.0,33.0,33.0,962.0815416360274,None,3.0,5.681043620919809,962.0815416360274,None,962.0815416360274,None,962.0815416360274,None,1,2022_Apr_12_1603,Semantic-hierachy,2021.1.2,
334,Trial # 335,layer0-5_O4_to_T1.jpg,layer0-5/layer0-5_O4_to_T1.jpg,OT,layer0-5,,,,,,,,,0.0,34.0,34.0,34.0,968.0007989199366,None,1.0,1.3627259959466755,968.0007989199366,None,968.0007989199366,None,968.0007989199366,None,1,2022_Apr_12_1603,Semantic-hierachy,2021.1.2,
335,Trial # 336,layer6-8_T1_to_T6.jpg,layer6-8/layer6-8_T1_to_T6.jpg,TT,layer6-8,,,,,,,,,0.0,35.0,35.0,35.0,969.535409895936,None,4.0,2.489830959122628,969.535409895936,None,969.535409895936,None,969.535409895936,None,1,2022_Apr_12_1603,Semantic-hierachy,2021.1.2,
336,Trial # 337,layer0-5_O12_to_O6.jpg,layer0-5/layer0-5_O12_to_O6.jpg,OO,layer0-5,,,,,,,,,0.0,36.0,36.0,36.0,972.1684232109692,None,1.0,1.7171825910918417,972.1684232109692,None,972.1684232109692,None,972.1684232109692,None,1,2022_Apr_12_1603,Semantic-hierachy,2021.1.2,
337,Trial # 338,layer0-5_O1_to_O10.jpg,layer0-5/layer0-5_O1_to_O10.jpg,OO,layer0-5,,,,,,,,,0.0,37.0,37.0,37.0,974.3370925670024,None,1.0,1.0233539280015975,974.3370925670024,None,974.3370925670024,None,974.3370925670024,None,1,2022_Apr_12_1603,Semantic-hierachy,2021.1.2,
338,Trial # 339,layer0-5_O9_to_T9.jpg,layer0-5/layer0-5_O9_to_T9.jpg,OT,layer0-5,,,,,,,,,0.0,38.0,38.0,38.0,975.5859508898576,None,1.0,1.290063225897029,975.5859508898576,None,975.5859508898576,None,975.5859508898576,None,1,2022_Apr_12_1603,Semantic-hierachy,2021.1.2,
339,Trial # 340,layer6-8_O6_to_T10.jpg,layer6-8/layer6-8_O6_to_T10.jpg,OT,layer6-8,,,,,,,,,0.0,39.0,39.0,39.0,977.1032265520188,None,3.0,1.738551673013717,977.1032265520188,None,977.1032265520188,None,977.1032265520188,None,1,2022_Apr_12_1603,Semantic-hierachy,2021.1.2,
340,Trial # 341,layer9-17_O3_to_T3.jpg,layer9-17/layer9-17_O3_to_T3.jpg,OT,layer9-17,,,,,,,,,0.0,40.0,40.0,40.0,979.0548902659212,None,2.0,1.329541388899088,979.0548902659212,None,979.0548902659212,None,979.0548902659212,None,1,2022_Apr_12_1603,Semantic-hierachy,2021.1.2,
341,Trial # 342,layer0-5_O8_to_T8.jpg,layer0-5/layer0-5_O8_to_T8.jpg,OT,layer0-5,,,,,,,,,0.0,41.0,41.0,41.0,980.5719473790376,None,1.0,3.678352545015514,980.5719473790376,None,980.5719473790376,None,980.5719473790376,None,1,2022_Apr_12_1603,Semantic-hierachy,2021.1.2,
342,Trial # 343,layer9-17_O11_to_O3.jpg,layer9-17/layer9-17_O11_to_O3.jpg,OO,layer9-17,,,,,,,,,0.0,42.0,42.0,42.0,984.505450204946,None,2.0,1.4274112060666084,984.505450204946,None,984.505450204946,None,984.505450204946,None,1,2022_Apr_12_1603,Semantic-hierachy,2021.1.2,
343,Trial # 344,layer9-17_O10_to_T12.jpg,layer9-17/layer9-17_O10_to_T12.jpg,OT,layer9-17,,,,,,,,,0.0,43.0,43.0,43.0,986.090307109058,None,2.0,2.379434823989868,986.090307109058,None,986.090307109058,None,986.090307109058,None,1,2022_Apr_12_1603,Semantic-hierachy,2021.1.2,
344,Trial # 345,layer6-8_T3_to_T6.jpg,layer6-8/layer6-8_T3_to_T6.jpg,TT,layer6-8,,,,,,,,,0.0,44.0,44.0,44.0,988.7913935999386,None,3.0,2.011169768869877,988.7913935999386,None,988.7913935999386,None,988.7913935999386,None,1,2022_Apr_12_1603,Semantic-hierachy,2021.1.2,
345,Trial # 346,layer6-8_O1_to_O4.jpg,layer6-8/layer6-8_O1_to_O4.jpg,OO,layer6-8,,,,,,,,,0.0,45.0,45.0,45.0,990.9906928220298,None,3.0,2.228742648847401,990.9906928220298,None,990.9906928220298,None,990.9906928220298,None,1,2022_Apr_12_1603,Semantic-hierachy,2021.1.2,
346,Trial # 347,layer0-5_O8_to_T3.jpg,layer0-5/layer0-5_O8_to_T3.jpg,OT,layer0-5,,,,,,,,,0.0,46.0,46.0,46.0,993.4095213538968,None,1.0,1.5444762278348207,993.4095213538968,None,993.4095213538968,None,993.4095213538968,None,1,2022_Apr_12_1603,Semantic-hierachy,2021.1.2,
347,Trial # 348,layer9-17_T2_to_T7.jpg,layer9-17/layer9-17_T2_to_T7.jpg,TT,layer9-17,,,,,,,,,0.0,47.0,47.0,47.0,995.1929540568964,None,2.0,1.4865552510600537,995.1929540568964,None,995.1929540568964,None,995.1929540568964,None,1,2022_Apr_12_1603,Semantic-hierachy,2021.1.2,
348,Trial # 349,layer0-5_O9_to_T4.jpg,layer0-5/layer0-5_O9_to_T4.jpg,OT,layer0-5,,,,,,,,,0.0,48.0,48.0,48.0,996.842789303977,None,1.0,1.6061383557971567,996.842789303977,None,996.842789303977,None,996.842789303977,None,1,2022_Apr_12_1603,Semantic-hierachy,2021.1.2,
349,Trial # 350,layer9-17_T12_to_T9.jpg,layer9-17/layer9-17_T12_to_T9.jpg,TT,layer9-17,,,,,,,,,0.0,49.0,49.0,49.0,998.6108305889647,None,2.0,1.246901178965345,998.6108305889647,None,998.6108305889647,None,998.6108305889647,None,1,2022_Apr_12_1603,Semantic-hierachy,2021.1.2,
350,Trial # 351,layer6-8_O11_to_O6.jpg,layer6-8/layer6-8_O11_to_O6.jpg,OO,layer6-8,,,,,,,,,0.0,50.0,50.0,50.0,1000.0274434469176,None,3.0,1.5588558649178594,1000.0274434469176,None,1000.0274434469176,None,1000.0274434469176,None,1,2022_Apr_12_1603,Semantic-hierachy,2021.1.2,
351,Trial # 352,layer0-5_O10_to_O11.jpg,layer0-5/layer0-5_O10_to_O11.jpg,OO,layer0-5,,,,,,,,,0.0,51.0,51.0,51.0,1001.7606536550448,None,1.0,2.068813245045021,1001.7606536550448,None,1001.7606536550448,None,1001.7606536550448,None,1,2022_Apr_12_1603,Semantic-hierachy,2021.1.2,
352,Trial # 353,layer9-17_O4_to_T7.jpg,layer9-17/layer9-17_O4_to_T7.jpg,OT,layer9-17,,,,,,,,,0.0,52.0,52.0,52.0,1004.0627871009056,None,2.0,1.557527466211468,1004.0627871009056,None,1004.0627871009056,None,1004.0627871009056,None,1,2022_Apr_12_1603,Semantic-hierachy,2021.1.2,
353,Trial # 354,layer0-5_O2_to_T11.jpg,layer0-5/layer0-5_O2_to_T11.jpg,OT,layer0-5,,,,,,,,,0.0,53.0,53.0,53.0,1005.9127444168552,None,1.0,1.5598189050797373,1005.9127444168552,None,1005.9127444168552,None,1005.9127444168552,None,1,2022_Apr_12_1603,Semantic-hierachy,2021.1.2,
354,Trial # 355,layer9-17_O5_to_O6.jpg,layer9-17/layer9-17_O5_to_O6.jpg,OO,layer9-17,,,,,,,,,0.0,54.0,54.0,54.0,1007.6960879608524,None,2.0,1.4456504408735782,1007.6960879608524,None,1007.6960879608524,None,1007.6960879608524,None,1,2022_Apr_12_1603,Semantic-hierachy,2021.1.2,
355,Trial # 356,layer6-8_O5_to_T10.jpg,layer6-8/layer6-8_O5_to_T10.jpg,OT,layer6-8,,,,,,,,,0.0,55.0,55.0,55.0,1009.3633302028755,None,3.0,1.8574656718410552,1009.3633302028755,None,1009.3633302028755,None,1009.3633302028755,None,1,2022_Apr_12_1603,Semantic-hierachy,2021.1.2,
356,Trial # 357,layer6-8_T3_to_T4.jpg,layer6-8/layer6-8_T3_to_T4.jpg,TT,layer6-8,,,,,,,,,0.0,56.0,56.0,56.0,1011.4306583360304,None,1.0,6.6436544568277895,1011.4306583360304,None,1011.4306583360304,None,1011.4306583360304,None,1,2022_Apr_12_1603,Semantic-hierachy,2021.1.2,
357,Trial # 358,layer6-8_T4_to_T8.jpg,layer6-8/layer6-8_T4_to_T8.jpg,TT,layer6-8,,,,,,,,,0.0,57.0,57.0,57.0,1018.5002894210628,None,4.0,4.180198289919645,1018.5002894210628,None,1018.5002894210628,None,1018.5002894210628,None,1,2022_Apr_12_1603,Semantic-hierachy,2021.1.2,
358,Trial # 359,layer0-5_O2_to_T4.jpg,layer0-5/layer0-5_O2_to_T4.jpg,OT,layer0-5,,,,,,,,,0.0,58.0,58.0,58.0,1023.7518000409472,None,1.0,1.4475268069654703,1023.7518000409472,None,1023.7518000409472,None,1023.7518000409472,None,1,2022_Apr_12_1603,Semantic-hierachy,2021.1.2,
359,Trial # 360,layer0-5_O4_to_O7.jpg,layer0-5/layer0-5_O4_to_O7.jpg,OO,layer0-5,,,,,,,,,0.0,59.0,59.0,59.0,1025.36806204007,None,1.0,2.8438888860400766,1025.36806204007,None,1025.36806204007,None,1025.36806204007,None,1,2022_Apr_12_1603,Semantic-hierachy,2021.1.2,
360,Trial # 361,layer9-17_O12_to_T7.jpg,layer9-17/layer9-17_O12_to_T7.jpg,OT,layer9-17,,,,,,,,,0.0,60.0,60.0,60.0,1028.4703451599926,None,2.0,1.379284447990358,1028.4703451599926,None,1028.4703451599926,None,1028.4703451599926,None,1,2022_Apr_12_1603,Semantic-hierachy,2021.1.2,
361,Trial # 362,layer6-8_O11_to_T8.jpg,layer6-8/layer6-8_O11_to_T8.jpg,OT,layer6-8,,,,,,,,,0.0,61.0,61.0,61.0,1030.019467439968,None,3.0,1.7086676498875022,1030.019467439968,None,1030.019467439968,None,1030.019467439968,None,1,2022_Apr_12_1603,Semantic-hierachy,2021.1.2,
362,Trial # 363,layer9-17_O10_to_T6.jpg,layer9-17/layer9-17_O10_to_T6.jpg,OT,layer9-17,,,,,,,,,0.0,62.0,62.0,62.0,1031.8699612959754,None,3.0,1.59657595702447,1031.8699612959754,None,1031.8699612959754,None,1031.8699612959754,None,1,2022_Apr_12_1603,Semantic-hierachy,2021.1.2,
363,Trial # 364,layer0-5_O5_to_T7.jpg,layer0-5/layer0-5_O5_to_T7.jpg,OT,layer0-5,,,,,,,,,0.0,63.0,63.0,63.0,1033.6385772109495,None,1.0,1.41409666207619,1033.6385772109495,None,1033.6385772109495,None,1033.6385772109495,None,1,2022_Apr_12_1603,Semantic-hierachy,2021.1.2,
364,Trial # 365,layer9-17_O11_to_O2.jpg,layer9-17/layer9-17_O11_to_O2.jpg,OO,layer9-17,,,,,,,,,0.0,64.0,64.0,64.0,1035.1881492610555,None,3.0,1.6303814449347556,1035.1881492610555,None,1035.1881492610555,None,1035.1881492610555,None,1,2022_Apr_12_1603,Semantic-hierachy,2021.1.2,
