Trial_num,image_name,image_path,pair_type,layers,block1.thisRepN,block1.thisTrialN,block1.thisN,block1.thisIndex,block2.thisRepN,block2.thisTrialN,block2.thisN,block2.thisIndex,block3.thisRepN,block3.thisTrialN,block3.thisN,block3.thisIndex,image_8.started,image_8.stopped,selected_semantic.response,selected_semantic.rt,selected_semantic.started,selected_semantic.stopped,Instruction.started,Instruction.stopped,Trial_number.started,Trial_number.stopped,text_2.started,text_2.stopped,participant,session,date,expName,psychopyVersion,frameRate
Trial # 1,layer0-5_O2_to_T1.jpg,layer0-5/layer0-5_O2_to_T1.jpg,OT,layer0-5,0,0,0,0,,,,,,,,,14.01123871,None,1,4.439471837,14.01123871,None,14.01123871,None,14.01123871,None,,,bei,1,2022_Apr_05_1630,Semantic-hierachy,2021.1.2,59.80963765
Trial # 2,layer0-5_O11_to_T7.jpg,layer0-5/layer0-5_O11_to_T7.jpg,OT,layer0-5,0,1,1,1,,,,,,,,,18.54562112,None,1,7.314871044,18.54562112,None,18.54562112,None,18.54562112,None,,,bei,1,2022_Apr_05_1630,Semantic-hierachy,2021.1.2,59.80963765
Trial # 3,layer6-8_O3_to_O5.jpg,layer6-8/layer6-8_O3_to_O5.jpg,OO,layer6-8,0,2,2,2,,,,,,,,,25.96546424,None,3,4.531581925,25.96546424,None,25.96546424,None,25.96546424,None,,,bei,1,2022_Apr_05_1630,Semantic-hierachy,2021.1.2,59.80963765
Trial # 4,layer6-8_O11_to_O4.jpg,layer6-8/layer6-8_O11_to_O4.jpg,OO,layer6-8,0,3,3,3,,,,,,,,,30.61528729,None,3,11.19775712,30.61528729,None,30.61528729,None,30.61528729,None,,,bei,1,2022_Apr_05_1630,Semantic-hierachy,2021.1.2,59.80963765
Trial # 5,layer6-8_O8_to_T8.jpg,layer6-8/layer6-8_O8_to_T8.jpg,OT,layer6-8,0,4,4,4,,,,,,,,,41.91976163,None,3,2.361585195,41.91976163,None,41.91976163,None,41.91976163,None,,,bei,1,2022_Apr_05_1630,Semantic-hierachy,2021.1.2,59.80963765
Trial # 6,layer0-5_O11_to_O8.jpg,layer0-5/layer0-5_O11_to_O8.jpg,OO,layer0-5,0,5,5,5,,,,,,,,,44.38692206,None,1,1.906340247,44.38692206,None,44.38692206,None,44.38692206,None,,,bei,1,2022_Apr_05_1630,Semantic-hierachy,2021.1.2,59.80963765
Trial # 7,layer0-5_T10_to_T11.jpg,layer0-5/layer0-5_T10_to_T11.jpg,TT,layer0-5,0,6,6,6,,,,,,,,,46.40503815,None,1,1.274517889,46.40503815,None,46.40503815,None,46.40503815,None,,,bei,1,2022_Apr_05_1630,Semantic-hierachy,2021.1.2,59.80963765
Trial # 8,layer9-17_O6_to_O9.jpg,layer9-17/layer9-17_O6_to_O9.jpg,OO,layer9-17,0,7,7,7,,,,,,,,,47.78897336,None,2,1.755130047,47.78897336,None,47.78897336,None,47.78897336,None,,,bei,1,2022_Apr_05_1630,Semantic-hierachy,2021.1.2,59.80963765
Trial # 9,layer6-8_O12_to_O9.jpg,layer6-8/layer6-8_O12_to_O9.jpg,OO,layer6-8,0,8,8,8,,,,,,,,,49.6552116,None,3,6.154167301,49.6552116,None,49.6552116,None,49.6552116,None,,,bei,1,2022_Apr_05_1630,Semantic-hierachy,2021.1.2,59.80963765
Trial # 10,layer0-5_O10_to_T2.jpg,layer0-5/layer0-5_O10_to_T2.jpg,OT,layer0-5,0,9,9,9,,,,,,,,,55.92434155,None,3,2.188005815,55.92434155,None,55.92434155,None,55.92434155,None,,,bei,1,2022_Apr_05_1630,Semantic-hierachy,2021.1.2,59.80963765
Trial # 11,layer9-17_T10_to_T2.jpg,layer9-17/layer9-17_T10_to_T2.jpg,TT,layer9-17,0,10,10,10,,,,,,,,,58.22442102,None,3,1.606184784,58.22442102,None,58.22442102,None,58.22442102,None,,,bei,1,2022_Apr_05_1630,Semantic-hierachy,2021.1.2,59.80963765
Trial # 12,layer6-8_T6_to_T7.jpg,layer6-8/layer6-8_T6_to_T7.jpg,TT,layer6-8,0,11,11,11,,,,,,,,,59.92489637,None,3,2.597308232,59.92489637,None,59.92489637,None,59.92489637,None,,,bei,1,2022_Apr_05_1630,Semantic-hierachy,2021.1.2,59.80963765
Trial # 13,layer9-17_O10_to_T2.jpg,layer9-17/layer9-17_O10_to_T2.jpg,OT,layer9-17,0,12,12,12,,,,,,,,,62.64346089,None,2,1.807540291,62.64346089,None,62.64346089,None,62.64346089,None,,,bei,1,2022_Apr_05_1630,Semantic-hierachy,2021.1.2,59.80963765
Trial # 14,layer6-8_T4_to_T7.jpg,layer6-8/layer6-8_T4_to_T7.jpg,TT,layer6-8,0,13,13,13,,,,,,,,,64.54311147,None,2,8.931984782,64.54311147,None,64.54311147,None,64.54311147,None,,,bei,1,2022_Apr_05_1630,Semantic-hierachy,2021.1.2,59.80963765
Trial # 15,layer9-17_O8_to_T2.jpg,layer9-17/layer9-17_O8_to_T2.jpg,OT,layer9-17,0,14,14,14,,,,,,,,,73.57984837,None,2,12.02035495,73.57984837,None,73.57984837,None,73.57984837,None,,,bei,1,2022_Apr_05_1630,Semantic-hierachy,2021.1.2,59.80963765
Trial # 16,layer0-5_T6_to_T9.jpg,layer0-5/layer0-5_T6_to_T9.jpg,TT,layer0-5,0,15,15,15,,,,,,,,,85.71701587,None,1,5.389509379,85.71701587,None,85.71701587,None,85.71701587,None,,,bei,1,2022_Apr_05_1630,Semantic-hierachy,2021.1.2,59.80963765
Trial # 17,layer0-5_O11_to_O12.jpg,layer0-5/layer0-5_O11_to_O12.jpg,OO,layer0-5,0,16,16,16,,,,,,,,,91.20159426,None,1,2.904951154,91.20159426,None,91.20159426,None,91.20159426,None,,,bei,1,2022_Apr_05_1630,Semantic-hierachy,2021.1.2,59.80963765
Trial # 18,layer0-5_T11_to_T5.jpg,layer0-5/layer0-5_T11_to_T5.jpg,TT,layer0-5,0,17,17,17,,,,,,,,,94.23543742,None,1,1.690769454,94.23543742,None,94.23543742,None,94.23543742,None,,,bei,1,2022_Apr_05_1630,Semantic-hierachy,2021.1.2,59.80963765
Trial # 19,layer0-5_O6_to_T12.jpg,layer0-5/layer0-5_O6_to_T12.jpg,OT,layer0-5,0,18,18,18,,,,,,,,,96.03655818,None,1,1.74024668,96.03655818,None,96.03655818,None,96.03655818,None,,,bei,1,2022_Apr_05_1630,Semantic-hierachy,2021.1.2,59.80963765
Trial # 20,layer6-8_T6_to_T8.jpg,layer6-8/layer6-8_T6_to_T8.jpg,TT,layer6-8,0,19,19,19,,,,,,,,,97.88666341,None,3,27.34812951,97.88666341,None,97.88666341,None,97.88666341,None,,,bei,1,2022_Apr_05_1630,Semantic-hierachy,2021.1.2,59.80963765
Trial # 21,layer9-17_T2_to_T5.jpg,layer9-17/layer9-17_T2_to_T5.jpg,TT,layer9-17,0,20,20,20,,,,,,,,,125.4288861,None,2,13.73698315,125.4288861,None,125.4288861,None,125.4288861,None,,,bei,1,2022_Apr_05_1630,Semantic-hierachy,2021.1.2,59.80963765
Trial # 22,layer6-8_O2_to_O6.jpg,layer6-8/layer6-8_O2_to_O6.jpg,OO,layer6-8,0,21,21,21,,,,,,,,,139.2832447,None,2,6.960488811,139.2832447,None,139.2832447,None,139.2832447,None,,,bei,1,2022_Apr_05_1630,Semantic-hierachy,2021.1.2,59.80963765
Trial # 23,layer9-17_O3_to_T12.jpg,layer9-17/layer9-17_O3_to_T12.jpg,OT,layer9-17,0,22,22,22,,,,,,,,,146.3530195,None,2,1.291002993,146.3530195,None,146.3530195,None,146.3530195,None,,,bei,1,2022_Apr_05_1630,Semantic-hierachy,2021.1.2,59.80963765
Trial # 24,layer0-5_O11_to_O3.jpg,layer0-5/layer0-5_O11_to_O3.jpg,OO,layer0-5,0,23,23,23,,,,,,,,,147.7519638,None,1,2.027069516,147.7519638,None,147.7519638,None,147.7519638,None,,,bei,1,2022_Apr_05_1630,Semantic-hierachy,2021.1.2,59.80963765
Trial # 25,layer6-8_O2_to_O9.jpg,layer6-8/layer6-8_O2_to_O9.jpg,OO,layer6-8,0,24,24,24,,,,,,,,,149.8859215,None,3,16.86378959,149.8859215,None,149.8859215,None,149.8859215,None,,,bei,1,2022_Apr_05_1630,Semantic-hierachy,2021.1.2,59.80963765
Trial # 26,layer9-17_O10_to_O8.jpg,layer9-17/layer9-17_O10_to_O8.jpg,OO,layer9-17,0,25,25,25,,,,,,,,,166.8420747,None,3,16.66151795,166.8420747,None,166.8420747,None,166.8420747,None,,,bei,1,2022_Apr_05_1630,Semantic-hierachy,2021.1.2,59.80963765
Trial # 27,layer9-17_T4_to_T6.jpg,layer9-17/layer9-17_T4_to_T6.jpg,TT,layer9-17,0,26,26,26,,,,,,,,,183.6301499,None,2,2.02997576,183.6301499,None,183.6301499,None,183.6301499,None,,,bei,1,2022_Apr_05_1630,Semantic-hierachy,2021.1.2,59.80963765
Trial # 28,layer6-8_O7_to_T8.jpg,layer6-8/layer6-8_O7_to_T8.jpg,OT,layer6-8,0,27,27,27,,,,,,,,,185.781277,None,2,1.139160644,185.781277,None,185.781277,None,185.781277,None,,,bei,1,2022_Apr_05_1630,Semantic-hierachy,2021.1.2,59.80963765
Trial # 29,layer6-8_T4_to_T5.jpg,layer6-8/layer6-8_T4_to_T5.jpg,TT,layer6-8,0,28,28,28,,,,,,,,,187.0321951,None,3,1.920360446,187.0321951,None,187.0321951,None,187.0321951,None,,,bei,1,2022_Apr_05_1630,Semantic-hierachy,2021.1.2,59.80963765
Trial # 30,layer6-8_T10_to_T9.jpg,layer6-8/layer6-8_T10_to_T9.jpg,TT,layer6-8,0,29,29,29,,,,,,,,,189.0649733,None,3,5.306856318,189.0649733,None,189.0649733,None,189.0649733,None,,,bei,1,2022_Apr_05_1630,Semantic-hierachy,2021.1.2,59.80963765
Trial # 31,layer9-17_O1_to_O8.jpg,layer9-17/layer9-17_O1_to_O8.jpg,OO,layer9-17,0,30,30,30,,,,,,,,,194.4832127,None,2,1.912647234,194.4832127,None,194.4832127,None,194.4832127,None,,,bei,1,2022_Apr_05_1630,Semantic-hierachy,2021.1.2,59.80963765
Trial # 32,layer9-17_O12_to_O7.jpg,layer9-17/layer9-17_O12_to_O7.jpg,OO,layer9-17,0,31,31,31,,,,,,,,,196.5010835,None,2,2.843642705,196.5010835,None,196.5010835,None,196.5010835,None,,,bei,1,2022_Apr_05_1630,Semantic-hierachy,2021.1.2,59.80963765
Trial # 33,layer9-17_T10_to_T12.jpg,layer9-17/layer9-17_T10_to_T12.jpg,TT,layer9-17,0,32,32,32,,,,,,,,,199.4515282,None,4,3.801447301,199.4515282,None,199.4515282,None,199.4515282,None,,,bei,1,2022_Apr_05_1630,Semantic-hierachy,2021.1.2,59.80963765
Trial # 34,layer0-5_T2_to_T6.jpg,layer0-5/layer0-5_T2_to_T6.jpg,TT,layer0-5,0,33,33,33,,,,,,,,,203.3703447,None,1,6.753658867,203.3703447,None,203.3703447,None,203.3703447,None,,,bei,1,2022_Apr_05_1630,Semantic-hierachy,2021.1.2,59.80963765
Trial # 35,layer6-8_T11_to_T2.jpg,layer6-8/layer6-8_T11_to_T2.jpg,TT,layer6-8,0,34,34,34,,,,,,,,,210.2379633,None,2,3.761808586,210.2379633,None,210.2379633,None,210.2379633,None,,,bei,1,2022_Apr_05_1630,Semantic-hierachy,2021.1.2,59.80963765
Trial # 36,layer6-8_O4_to_T3.jpg,layer6-8/layer6-8_O4_to_T3.jpg,OT,layer6-8,0,35,35,35,,,,,,,,,214.1063042,None,3,2.511721418,214.1063042,None,214.1063042,None,214.1063042,None,,,bei,1,2022_Apr_05_1630,Semantic-hierachy,2021.1.2,59.80963765
Trial # 37,layer6-8_O3_to_T11.jpg,layer6-8/layer6-8_O3_to_T11.jpg,OT,layer6-8,0,36,36,36,,,,,,,,,216.7245122,None,2,3.001349768,216.7245122,None,216.7245122,None,216.7245122,None,,,bei,1,2022_Apr_05_1630,Semantic-hierachy,2021.1.2,59.80963765
Trial # 38,layer6-8_T1_to_T2.jpg,layer6-8/layer6-8_T1_to_T2.jpg,TT,layer6-8,0,37,37,37,,,,,,,,,219.8416456,None,3,7.735077408,219.8416456,None,219.8416456,None,219.8416456,None,,,bei,1,2022_Apr_05_1630,Semantic-hierachy,2021.1.2,59.80963765
Trial # 39,layer9-17_O2_to_O6.jpg,layer9-17/layer9-17_O2_to_O6.jpg,OO,layer9-17,0,38,38,38,,,,,,,,,227.6936045,None,3,7.656628751,227.6936045,None,227.6936045,None,227.6936045,None,,,bei,1,2022_Apr_05_1630,Semantic-hierachy,2021.1.2,59.80963765
Trial # 40,layer9-17_O4_to_T2.jpg,layer9-17/layer9-17_O4_to_T2.jpg,OT,layer9-17,0,39,39,39,,,,,,,,,235.4460806,None,2,1.952908635,235.4460806,None,235.4460806,None,235.4460806,None,,,bei,1,2022_Apr_05_1630,Semantic-hierachy,2021.1.2,59.80963765
Trial # 41,layer6-8_O5_to_T3.jpg,layer6-8/layer6-8_O5_to_T3.jpg,OT,layer6-8,0,40,40,40,,,,,,,,,237.5147036,None,3,26.3295817,237.5147036,None,237.5147036,None,237.5147036,None,,,bei,1,2022_Apr_05_1630,Semantic-hierachy,2021.1.2,59.80963765
Trial # 42,layer6-8_O2_to_O3.jpg,layer6-8/layer6-8_O2_to_O3.jpg,OO,layer6-8,0,41,41,41,,,,,,,,,263.9387831,None,2,2.563074265,263.9387831,None,263.9387831,None,263.9387831,None,,,bei,1,2022_Apr_05_1630,Semantic-hierachy,2021.1.2,59.80963765
Trial # 43,layer6-8_O1_to_T6.jpg,layer6-8/layer6-8_O1_to_T6.jpg,OT,layer6-8,0,42,42,42,,,,,,,,,266.6235197,None,3,36.6034226,266.6235197,None,266.6235197,None,266.6235197,None,,,bei,1,2022_Apr_05_1630,Semantic-hierachy,2021.1.2,59.80963765
Trial # 44,layer6-8_O2_to_T12.jpg,layer6-8/layer6-8_O2_to_T12.jpg,OT,layer6-8,0,43,43,43,,,,,,,,,303.3670339,None,3,17.24949311,303.3670339,None,303.3670339,None,303.3670339,None,,,bei,1,2022_Apr_05_1630,Semantic-hierachy,2021.1.2,59.80963765
Trial # 45,layer9-17_O2_to_O8.jpg,layer9-17/layer9-17_O2_to_O8.jpg,OO,layer9-17,0,44,44,44,,,,,,,,,320.7223532,None,3,2.167494606,320.7223532,None,320.7223532,None,320.7223532,None,,,bei,1,2022_Apr_05_1630,Semantic-hierachy,2021.1.2,59.80963765
Trial # 46,layer9-17_O10_to_O4.jpg,layer9-17/layer9-17_O10_to_O4.jpg,OO,layer9-17,0,45,45,45,,,,,,,,,323.0065329,None,3,8.337354865,323.0065329,None,323.0065329,None,323.0065329,None,,,bei,1,2022_Apr_05_1630,Semantic-hierachy,2021.1.2,59.80963765
Trial # 47,layer0-5_O1_to_O4.jpg,layer0-5/layer0-5_O1_to_O4.jpg,OO,layer0-5,0,46,46,46,,,,,,,,,331.4600402,None,1,7.842953002,331.4600402,None,331.4600402,None,331.4600402,None,,,bei,1,2022_Apr_05_1630,Semantic-hierachy,2021.1.2,59.80963765
Trial # 48,layer0-5_T4_to_T5.jpg,layer0-5/layer0-5_T4_to_T5.jpg,TT,layer0-5,0,47,47,47,,,,,,,,,339.4119103,None,1,1.954965272,339.4119103,None,339.4119103,None,339.4119103,None,,,bei,1,2022_Apr_05_1630,Semantic-hierachy,2021.1.2,59.80963765
Trial # 49,layer9-17_T12_to_T8.jpg,layer9-17/layer9-17_T12_to_T8.jpg,TT,layer9-17,0,48,48,48,,,,,,,,,341.5124325,None,2,2.018647707,341.5124325,None,341.5124325,None,341.5124325,None,,,bei,1,2022_Apr_05_1630,Semantic-hierachy,2021.1.2,59.80963765
Trial # 50,layer0-5_T10_to_T5.jpg,layer0-5/layer0-5_T10_to_T5.jpg,TT,layer0-5,0,49,49,49,,,,,,,,,343.6465739,None,1,7.777283508,343.6465739,None,343.6465739,None,343.6465739,None,,,bei,1,2022_Apr_05_1630,Semantic-hierachy,2021.1.2,59.80963765
Trial # 51,layer6-8_O10_to_O8.jpg,layer6-8/layer6-8_O10_to_O8.jpg,OO,layer6-8,0,50,50,50,,,,,,,,,351.5328755,None,3,4.418373767,351.5328755,None,351.5328755,None,351.5328755,None,,,bei,1,2022_Apr_05_1630,Semantic-hierachy,2021.1.2,59.80963765
Trial # 52,layer9-17_O3_to_O5.jpg,layer9-17/layer9-17_O3_to_O5.jpg,OO,layer9-17,0,51,51,51,,,,,,,,,356.0503406,None,2,1.597518308,356.0503406,None,356.0503406,None,356.0503406,None,,,bei,1,2022_Apr_05_1630,Semantic-hierachy,2021.1.2,59.80963765
Trial # 53,layer6-8_T1_to_T12.jpg,layer6-8/layer6-8_T1_to_T12.jpg,TT,layer6-8,0,52,52,52,,,,,,,,,357.767066,None,3,2.425469323,357.767066,None,357.767066,None,357.767066,None,,,bei,1,2022_Apr_05_1630,Semantic-hierachy,2021.1.2,59.80963765
Trial # 54,layer0-5_O4_to_O9.jpg,layer0-5/layer0-5_O4_to_O9.jpg,OO,layer0-5,0,53,53,53,,,,,,,,,360.2841031,None,1,6.182418189,360.2841031,None,360.2841031,None,360.2841031,None,,,bei,1,2022_Apr_05_1630,Semantic-hierachy,2021.1.2,59.80963765
Trial # 55,layer0-5_O5_to_O9.jpg,layer0-5/layer0-5_O5_to_O9.jpg,OO,layer0-5,0,54,54,54,,,,,,,,,366.5871867,None,1,6.323787083,366.5871867,None,366.5871867,None,366.5871867,None,,,bei,1,2022_Apr_05_1630,Semantic-hierachy,2021.1.2,59.80963765
Trial # 56,layer0-5_O1_to_O2.jpg,layer0-5/layer0-5_O1_to_O2.jpg,OO,layer0-5,0,55,55,55,,,,,,,,,373.0218936,None,1,1.160722219,373.0218936,None,373.0218936,None,373.0218936,None,,,bei,1,2022_Apr_05_1630,Semantic-hierachy,2021.1.2,59.80963765
Trial # 57,layer9-17_T12_to_T3.jpg,layer9-17/layer9-17_T12_to_T3.jpg,TT,layer9-17,0,56,56,56,,,,,,,,,374.288946,None,2,1.6891174,374.288946,None,374.288946,None,374.288946,None,,,bei,1,2022_Apr_05_1630,Semantic-hierachy,2021.1.2,59.80963765
Trial # 58,layer0-5_O7_to_O9.jpg,layer0-5/layer0-5_O7_to_O9.jpg,OO,layer0-5,0,57,57,57,,,,,,,,,376.0896945,None,1,1.589698869,376.0896945,None,376.0896945,None,376.0896945,None,,,bei,1,2022_Apr_05_1630,Semantic-hierachy,2021.1.2,59.80963765
Trial # 59,layer0-5_T5_to_T9.jpg,layer0-5/layer0-5_T5_to_T9.jpg,TT,layer0-5,0,58,58,58,,,,,,,,,377.7906723,None,1,1.487825653,377.7906723,None,377.7906723,None,377.7906723,None,,,bei,1,2022_Apr_05_1630,Semantic-hierachy,2021.1.2,59.80963765
Trial # 60,layer9-17_O1_to_O9.jpg,layer9-17/layer9-17_O1_to_O9.jpg,OO,layer9-17,0,59,59,59,,,,,,,,,379.374002,None,3,5.274979412,379.374002,None,379.374002,None,379.374002,None,,,bei,1,2022_Apr_05_1630,Semantic-hierachy,2021.1.2,59.80963765
Trial # 61,layer0-5_O6_to_O7.jpg,layer0-5/layer0-5_O6_to_O7.jpg,OO,layer0-5,0,60,60,60,,,,,,,,,384.7587088,None,1,1.823140704,384.7587088,None,384.7587088,None,384.7587088,None,,,bei,1,2022_Apr_05_1630,Semantic-hierachy,2021.1.2,59.80963765
Trial # 62,layer9-17_T5_to_T6.jpg,layer9-17/layer9-17_T5_to_T6.jpg,TT,layer9-17,0,61,61,61,,,,,,,,,386.6929643,None,3,13.11210292,386.6929643,None,386.6929643,None,386.6929643,None,,,bei,1,2022_Apr_05_1630,Semantic-hierachy,2021.1.2,59.80963765
Trial # 63,layer9-17_T4_to_T9.jpg,layer9-17/layer9-17_T4_to_T9.jpg,TT,layer9-17,0,62,62,62,,,,,,,,,399.9140212,None,2,1.627192487,399.9140212,None,399.9140212,None,399.9140212,None,,,bei,1,2022_Apr_05_1630,Semantic-hierachy,2021.1.2,59.80963765
Trial # 64,layer0-5_O11_to_T1.jpg,layer0-5/layer0-5_O11_to_T1.jpg,OT,layer0-5,0,63,63,63,,,,,,,,,401.6314754,None,1,1.580063199,401.6314754,None,401.6314754,None,401.6314754,None,,,bei,1,2022_Apr_05_1630,Semantic-hierachy,2021.1.2,59.80963765
Trial # 65,layer6-8_T5_to_T9.jpg,layer6-8/layer6-8_T5_to_T9.jpg,TT,layer6-8,0,64,64,64,,,,,,,,,403.3144962,None,3,2.863092232,403.3144962,None,403.3144962,None,403.3144962,None,,,bei,1,2022_Apr_05_1630,Semantic-hierachy,2021.1.2,59.80963765
Trial # 66,layer0-5_T4_to_T7.jpg,layer0-5/layer0-5_T4_to_T7.jpg,TT,layer0-5,0,65,65,65,,,,,,,,,406.299194,None,1,2.361396331,406.299194,None,406.299194,None,406.299194,None,,,bei,1,2022_Apr_05_1630,Semantic-hierachy,2021.1.2,59.80963765
Trial # 67,layer0-5_O2_to_O6.jpg,layer0-5/layer0-5_O2_to_O6.jpg,OO,layer0-5,0,66,66,66,,,,,,,,,408.7658111,None,1,1.274186839,408.7658111,None,408.7658111,None,408.7658111,None,,,bei,1,2022_Apr_05_1630,Semantic-hierachy,2021.1.2,59.80963765
Trial # 68,layer9-17_O12_to_T3.jpg,layer9-17/layer9-17_O12_to_T3.jpg,OT,layer9-17,0,67,67,67,,,,,,,,,410.1506895,None,2,2.807368604,410.1506895,None,410.1506895,None,410.1506895,None,,,bei,1,2022_Apr_05_1630,Semantic-hierachy,2021.1.2,59.80963765
Trial # 69,layer9-17_O7_to_O9.jpg,layer9-17/layer9-17_O7_to_O9.jpg,OO,layer9-17,0,68,68,68,,,,,,,,,413.0520994,None,3,4.584097243,413.0520994,None,413.0520994,None,413.0520994,None,,,bei,1,2022_Apr_05_1630,Semantic-hierachy,2021.1.2,59.80963765
Trial # 70,layer9-17_T1_to_T8.jpg,layer9-17/layer9-17_T1_to_T8.jpg,TT,layer9-17,0,69,69,69,,,,,,,,,417.7370451,None,3,5.560139182,417.7370451,None,417.7370451,None,417.7370451,None,,,bei,1,2022_Apr_05_1630,Semantic-hierachy,2021.1.2,59.80963765
Trial # 71,layer0-5_O3_to_T8.jpg,layer0-5/layer0-5_O3_to_T8.jpg,OT,layer0-5,0,70,70,70,,,,,,,,,423.4375883,None,1,4.054557317,423.4375883,None,423.4375883,None,423.4375883,None,,,bei,1,2022_Apr_05_1630,Semantic-hierachy,2021.1.2,59.80963765
Trial # 72,layer9-17_O9_to_T2.jpg,layer9-17/layer9-17_O9_to_T2.jpg,OT,layer9-17,0,71,71,71,,,,,,,,,427.5897068,None,3,27.87307708,427.5897068,None,427.5897068,None,427.5897068,None,,,bei,1,2022_Apr_05_1630,Semantic-hierachy,2021.1.2,59.80963765
Trial # 73,layer9-17_O5_to_O7.jpg,layer9-17/layer9-17_O5_to_O7.jpg,OO,layer9-17,0,72,72,72,,,,,,,,,455.5807285,None,2,2.503932647,455.5807285,None,455.5807285,None,455.5807285,None,,,bei,1,2022_Apr_05_1630,Semantic-hierachy,2021.1.2,59.80963765
Trial # 74,layer0-5_T11_to_T9.jpg,layer0-5/layer0-5_T11_to_T9.jpg,TT,layer0-5,0,73,73,73,,,,,,,,,458.1818725,None,1,1.596973262,458.1818725,None,458.1818725,None,458.1818725,None,,,bei,1,2022_Apr_05_1630,Semantic-hierachy,2021.1.2,59.80963765
Trial # 75,layer0-5_O11_to_T12.jpg,layer0-5/layer0-5_O11_to_T12.jpg,OT,layer0-5,0,74,74,74,,,,,,,,,459.8984933,None,1,1.992626467,459.8984933,None,459.8984933,None,459.8984933,None,,,bei,1,2022_Apr_05_1630,Semantic-hierachy,2021.1.2,59.80963765
Trial # 76,layer9-17_T7_to_T9.jpg,layer9-17/layer9-17_T7_to_T9.jpg,TT,layer9-17,0,75,75,75,,,,,,,,,462.0006129,None,3,3.924403413,462.0006129,None,462.0006129,None,462.0006129,None,,,bei,1,2022_Apr_05_1630,Semantic-hierachy,2021.1.2,59.80963765
Trial # 77,layer6-8_O6_to_T2.jpg,layer6-8/layer6-8_O6_to_T2.jpg,OT,layer6-8,0,76,76,76,,,,,,,,,466.0176436,None,2,2.99672175,466.0176436,None,466.0176436,None,466.0176436,None,,,bei,1,2022_Apr_05_1630,Semantic-hierachy,2021.1.2,59.80963765
Trial # 78,layer9-17_T4_to_T5.jpg,layer9-17/layer9-17_T4_to_T5.jpg,TT,layer9-17,0,77,77,77,,,,,,,,,469.1179343,None,2,17.88876154,469.1179343,None,469.1179343,None,469.1179343,None,,,bei,1,2022_Apr_05_1630,Semantic-hierachy,2021.1.2,59.80963765
Trial # 79,layer0-5_T2_to_T4.jpg,layer0-5/layer0-5_T2_to_T4.jpg,TT,layer0-5,0,78,78,78,,,,,,,,,487.1414948,None,1,2.616264981,487.1414948,None,487.1414948,None,487.1414948,None,,,bei,1,2022_Apr_05_1630,Semantic-hierachy,2021.1.2,59.80963765
Trial # 80,layer0-5_T2_to_T8.jpg,layer0-5/layer0-5_T2_to_T8.jpg,TT,layer0-5,0,79,79,79,,,,,,,,,489.858383,None,1,3.06452707,489.858383,None,489.858383,None,489.858383,None,,,bei,1,2022_Apr_05_1630,Semantic-hierachy,2021.1.2,59.80963765
Trial # 81,layer9-17_T3_to_T9.jpg,layer9-17/layer9-17_T3_to_T9.jpg,TT,layer9-17,0,80,80,80,,,,,,,,,493.0422033,None,3,3.760387665,493.0422033,None,493.0422033,None,493.0422033,None,,,bei,1,2022_Apr_05_1630,Semantic-hierachy,2021.1.2,59.80963765
Trial # 82,layer9-17_O2_to_O5.jpg,layer9-17/layer9-17_O2_to_O5.jpg,OO,layer9-17,0,81,81,81,,,,,,,,,496.9114603,None,1,2.042171372,496.9114603,None,496.9114603,None,496.9114603,None,,,bei,1,2022_Apr_05_1630,Semantic-hierachy,2021.1.2,59.80963765
Trial # 83,layer6-8_O6_to_O7.jpg,layer6-8/layer6-8_O6_to_O7.jpg,OO,layer6-8,0,82,82,82,,,,,,,,,499.0440808,None,3,5.931334869,499.0440808,None,499.0440808,None,499.0440808,None,,,bei,1,2022_Apr_05_1630,Semantic-hierachy,2021.1.2,59.80963765
Trial # 84,layer9-17_O11_to_T1.jpg,layer9-17/layer9-17_O11_to_T1.jpg,OT,layer9-17,0,83,83,83,,,,,,,,,505.096295,None,2,1.442875718,505.096295,None,505.096295,None,505.096295,None,,,bei,1,2022_Apr_05_1630,Semantic-hierachy,2021.1.2,59.80963765
Trial # 85,layer6-8_O5_to_T12.jpg,layer6-8/layer6-8_O5_to_T12.jpg,OT,layer6-8,0,84,84,84,,,,,,,,,506.6470018,None,3,4.52123287,506.6470018,None,506.6470018,None,506.6470018,None,,,bei,1,2022_Apr_05_1630,Semantic-hierachy,2021.1.2,59.80963765
Trial # 86,layer6-8_O4_to_O7.jpg,layer6-8/layer6-8_O4_to_O7.jpg,OO,layer6-8,0,85,85,85,,,,,,,,,511.2658329,None,3,2.718628059,511.2658329,None,511.2658329,None,511.2658329,None,,,bei,1,2022_Apr_05_1630,Semantic-hierachy,2021.1.2,59.80963765
Trial # 87,layer6-8_T10_to_T8.jpg,layer6-8/layer6-8_T10_to_T8.jpg,TT,layer6-8,0,86,86,86,,,,,,,,,514.0990956,None,2,1.861729152,514.0990956,None,514.0990956,None,514.0990956,None,,,bei,1,2022_Apr_05_1630,Semantic-hierachy,2021.1.2,59.80963765
Trial # 88,layer6-8_O10_to_T3.jpg,layer6-8/layer6-8_O10_to_T3.jpg,OT,layer6-8,0,87,87,87,,,,,,,,,516.067503,None,3,3.260464408,516.067503,None,516.067503,None,516.067503,None,,,bei,1,2022_Apr_05_1630,Semantic-hierachy,2021.1.2,59.80963765
Trial # 89,layer6-8_O5_to_O9.jpg,layer6-8/layer6-8_O5_to_O9.jpg,OO,layer6-8,0,88,88,88,,,,,,,,,519.4171083,None,3,3.362402953,519.4171083,None,519.4171083,None,519.4171083,None,,,bei,1,2022_Apr_05_1630,Semantic-hierachy,2021.1.2,59.80963765
Trial # 90,layer6-8_O10_to_O11.jpg,layer6-8/layer6-8_O10_to_O11.jpg,OO,layer6-8,0,89,89,89,,,,,,,,,522.8859279,None,3,11.4530101,522.8859279,None,522.8859279,None,522.8859279,None,,,bei,1,2022_Apr_05_1630,Semantic-hierachy,2021.1.2,59.80963765
Trial # 91,layer0-5_O4_to_T5.jpg,layer0-5/layer0-5_O4_to_T5.jpg,OT,layer0-5,0,90,90,90,,,,,,,,,534.4551927,None,1,1.688110306,534.4551927,None,534.4551927,None,534.4551927,None,,,bei,1,2022_Apr_05_1630,Semantic-hierachy,2021.1.2,59.80963765
Trial # 92,layer0-5_T11_to_T12.jpg,layer0-5/layer0-5_T11_to_T12.jpg,TT,layer0-5,0,91,91,91,,,,,,,,,536.2396047,None,1,1.766403355,536.2396047,None,536.2396047,None,536.2396047,None,,,bei,1,2022_Apr_05_1630,Semantic-hierachy,2021.1.2,59.80963765
Trial # 93,layer0-5_T10_to_T3.jpg,layer0-5/layer0-5_T10_to_T3.jpg,TT,layer0-5,0,92,92,92,,,,,,,,,538.1236371,None,1,5.440964243,538.1236371,None,538.1236371,None,538.1236371,None,,,bei,1,2022_Apr_05_1630,Semantic-hierachy,2021.1.2,59.80963765
Trial # 94,layer0-5_O2_to_O8.jpg,layer0-5/layer0-5_O2_to_O8.jpg,OO,layer0-5,0,93,93,93,,,,,,,,,543.6578403,None,1,1.350587108,543.6578403,None,543.6578403,None,543.6578403,None,,,bei,1,2022_Apr_05_1630,Semantic-hierachy,2021.1.2,59.80963765
Trial # 95,layer0-5_T3_to_T8.jpg,layer0-5/layer0-5_T3_to_T8.jpg,TT,layer0-5,0,94,94,94,,,,,,,,,545.1082834,None,1,1.409062964,545.1082834,None,545.1082834,None,545.1082834,None,,,bei,1,2022_Apr_05_1630,Semantic-hierachy,2021.1.2,59.80963765
Trial # 96,layer0-5_O7_to_O8.jpg,layer0-5/layer0-5_O7_to_O8.jpg,OO,layer0-5,0,95,95,95,,,,,,,,,546.6263417,None,3,2.424684513,546.6263417,None,546.6263417,None,546.6263417,None,,,bei,1,2022_Apr_05_1630,Semantic-hierachy,2021.1.2,59.80963765
Trial # 97,layer6-8_T10_to_T6.jpg,layer6-8/layer6-8_T10_to_T6.jpg,TT,layer6-8,0,96,96,96,,,,,,,,,549.1602743,None,2,8.028104684,549.1602743,None,549.1602743,None,549.1602743,None,,,bei,1,2022_Apr_05_1630,Semantic-hierachy,2021.1.2,59.80963765
Trial # 98,layer0-5_O1_to_O5.jpg,layer0-5/layer0-5_O1_to_O5.jpg,OO,layer0-5,0,97,97,97,,,,,,,,,557.2957842,None,1,1.75994924,557.2957842,None,557.2957842,None,557.2957842,None,,,bei,1,2022_Apr_05_1630,Semantic-hierachy,2021.1.2,59.80963765
Trial # 99,layer6-8_O1_to_O6.jpg,layer6-8/layer6-8_O1_to_O6.jpg,OO,layer6-8,0,98,98,98,,,,,,,,,559.1626043,None,2,2.658773501,559.1626043,None,559.1626043,None,559.1626043,None,,,bei,1,2022_Apr_05_1630,Semantic-hierachy,2021.1.2,59.80963765
Trial # 100,layer6-8_O3_to_T1.jpg,layer6-8/layer6-8_O3_to_T1.jpg,OT,layer6-8,0,99,99,99,,,,,,,,,561.930659,None,2,1.443297912,561.930659,None,561.930659,None,561.930659,None,,,bei,1,2022_Apr_05_1630,Semantic-hierachy,2021.1.2,59.80963765
Trial # 101,layer6-8_T1_to_T9.jpg,layer6-8/layer6-8_T1_to_T9.jpg,TT,layer6-8,0,100,100,100,,,,,,,,,563.4809252,None,2,5.611501002,563.4809252,None,563.4809252,None,563.4809252,None,,,bei,1,2022_Apr_05_1630,Semantic-hierachy,2021.1.2,59.80963765
Trial # 102,layer9-17_O12_to_O6.jpg,layer9-17/layer9-17_O12_to_O6.jpg,OO,layer9-17,0,101,101,101,,,,,,,,,569.1987801,None,3,2.62003346,569.1987801,None,569.1987801,None,569.1987801,None,,,bei,1,2022_Apr_05_1630,Semantic-hierachy,2021.1.2,59.80963765
Trial # 103,layer0-5_T4_to_T9.jpg,layer0-5/layer0-5_T4_to_T9.jpg,TT,layer0-5,0,102,102,102,,,,,,,,,571.9343559,None,1,1.642982079,571.9343559,None,571.9343559,None,571.9343559,None,,,bei,1,2022_Apr_05_1630,Semantic-hierachy,2021.1.2,59.80963765
Trial # 104,layer6-8_O10_to_T1.jpg,layer6-8/layer6-8_O10_to_T1.jpg,OT,layer6-8,0,103,103,103,,,,,,,,,573.6840081,None,3,4.557956441,573.6840081,None,573.6840081,None,573.6840081,None,,,bei,1,2022_Apr_05_1630,Semantic-hierachy,2021.1.2,59.80963765
Trial # 105,layer0-5_O6_to_T2.jpg,layer0-5/layer0-5_O6_to_T2.jpg,OT,layer0-5,0,104,104,104,,,,,,,,,578.3361944,None,1,1.998188223,578.3361944,None,578.3361944,None,578.3361944,None,,,bei,1,2022_Apr_05_1630,Semantic-hierachy,2021.1.2,59.80963765
Trial # 106,layer9-17_T11_to_T2.jpg,layer9-17/layer9-17_T11_to_T2.jpg,TT,layer9-17,0,105,105,105,,,,,,,,,580.4522365,None,2,1.622398813,580.4522365,None,580.4522365,None,580.4522365,None,,,bei,1,2022_Apr_05_1630,Semantic-hierachy,2021.1.2,59.80963765
Trial # 107,layer9-17_O12_to_O8.jpg,layer9-17/layer9-17_O12_to_O8.jpg,OO,layer9-17,0,106,106,106,,,,,,,,,582.1873961,None,2,4.328745725,582.1873961,None,582.1873961,None,582.1873961,None,,,bei,1,2022_Apr_05_1630,Semantic-hierachy,2021.1.2,59.80963765
Trial # 108,layer0-5_T12_to_T3.jpg,layer0-5/layer0-5_T12_to_T3.jpg,TT,layer0-5,0,107,107,107,,,,,,,,,586.6214331,None,1,7.744212549,586.6214331,None,586.6214331,None,586.6214331,None,,,bei,1,2022_Apr_05_1630,Semantic-hierachy,2021.1.2,59.80963765
Trial # 109,layer0-5_T1_to_T10.jpg,layer0-5/layer0-5_T1_to_T10.jpg,TT,layer0-5,0,108,108,108,,,,,,,,,594.4571773,None,1,5.34902789,594.4571773,None,594.4571773,None,594.4571773,None,,,bei,1,2022_Apr_05_1630,Semantic-hierachy,2021.1.2,59.80963765
Trial # 110,layer6-8_O4_to_T5.jpg,layer6-8/layer6-8_O4_to_T5.jpg,OT,layer6-8,0,109,109,109,,,,,,,,,599.925375,None,3,11.27802336,599.925375,None,599.925375,None,599.925375,None,,,bei,1,2022_Apr_05_1630,Semantic-hierachy,2021.1.2,59.80963765
Trial # 111,layer9-17_O11_to_O7.jpg,layer9-17/layer9-17_O11_to_O7.jpg,OO,layer9-17,0,110,110,110,,,,,,,,,611.3135223,None,2,17.62699437,611.3135223,None,611.3135223,None,611.3135223,None,,,bei,1,2022_Apr_05_1630,Semantic-hierachy,2021.1.2,59.80963765
Trial # 112,layer0-5_O5_to_O8.jpg,layer0-5/layer0-5_O5_to_O8.jpg,OO,layer0-5,0,111,111,111,,,,,,,,,629.0843999,None,1,6.002618578,629.0843999,None,629.0843999,None,629.0843999,None,,,bei,1,2022_Apr_05_1630,Semantic-hierachy,2021.1.2,59.80963765
Trial # 113,layer0-5_O10_to_O4.jpg,layer0-5/layer0-5_O10_to_O4.jpg,OO,layer0-5,0,112,112,112,,,,,,,,,635.1693769,None,1,1.893132646,635.1693769,None,635.1693769,None,635.1693769,None,,,bei,1,2022_Apr_05_1630,Semantic-hierachy,2021.1.2,59.80963765
Trial # 114,layer9-17_O4_to_O8.jpg,layer9-17/layer9-17_O4_to_O8.jpg,OO,layer9-17,0,113,113,113,,,,,,,,,637.1710938,None,3,8.556846343,637.1710938,None,637.1710938,None,637.1710938,None,,,bei,1,2022_Apr_05_1630,Semantic-hierachy,2021.1.2,59.80963765
Trial # 115,layer0-5_O2_to_T8.jpg,layer0-5/layer0-5_O2_to_T8.jpg,OT,layer0-5,0,114,114,114,,,,,,,,,645.8396955,None,1,2.012347945,645.8396955,None,645.8396955,None,645.8396955,None,,,bei,1,2022_Apr_05_1630,Semantic-hierachy,2021.1.2,59.80963765
Trial # 116,layer9-17_T2_to_T3.jpg,layer9-17/layer9-17_T2_to_T3.jpg,TT,layer9-17,0,115,115,115,,,,,,,,,647.9412733,None,2,6.36446327,647.9412733,None,647.9412733,None,647.9412733,None,,,bei,1,2022_Apr_05_1630,Semantic-hierachy,2021.1.2,59.80963765
Trial # 117,layer6-8_O1_to_T10.jpg,layer6-8/layer6-8_O1_to_T10.jpg,OT,layer6-8,0,116,116,116,,,,,,,,,654.4257268,None,3,4.012134701,654.4257268,None,654.4257268,None,654.4257268,None,,,bei,1,2022_Apr_05_1630,Semantic-hierachy,2021.1.2,59.80963765
Trial # 118,layer0-5_T3_to_T7.jpg,layer0-5/layer0-5_T3_to_T7.jpg,TT,layer0-5,0,117,117,117,,,,,,,,,658.5447514,None,1,4.892954084,658.5447514,None,658.5447514,None,658.5447514,None,,,bei,1,2022_Apr_05_1630,Semantic-hierachy,2021.1.2,59.80963765
Trial # 119,layer9-17_O1_to_O12.jpg,layer9-17/layer9-17_O1_to_O12.jpg,OO,layer9-17,0,118,118,118,,,,,,,,,663.5456741,None,2,2.342878314,663.5456741,None,663.5456741,None,663.5456741,None,,,bei,1,2022_Apr_05_1630,Semantic-hierachy,2021.1.2,59.80963765
Trial # 120,layer6-8_O12_to_O2.jpg,layer6-8/layer6-8_O12_to_O2.jpg,OO,layer6-8,0,119,119,119,,,,,,,,,665.9959481,None,3,3.892015114,665.9959481,None,665.9959481,None,665.9959481,None,,,bei,1,2022_Apr_05_1630,Semantic-hierachy,2021.1.2,59.80963765
Trial # 121,layer9-17_O10_to_O9.jpg,layer9-17/layer9-17_O10_to_O9.jpg,OO,layer9-17,0,120,120,120,,,,,,,,,669.9964497,None,2,1.39466637,669.9964497,None,669.9964497,None,669.9964497,None,,,bei,1,2022_Apr_05_1630,Semantic-hierachy,2021.1.2,59.80963765
Trial # 122,layer6-8_O4_to_T10.jpg,layer6-8/layer6-8_O4_to_T10.jpg,OT,layer6-8,0,121,121,121,,,,,,,,,671.497676,None,3,9.795596046,671.497676,None,671.497676,None,671.497676,None,,,bei,1,2022_Apr_05_1630,Semantic-hierachy,2021.1.2,59.80963765
Trial # 123,layer6-8_O2_to_T3.jpg,layer6-8/layer6-8_O2_to_T3.jpg,OT,layer6-8,0,122,122,122,,,,,,,,,681.450796,None,3,2.796256635,681.450796,None,681.450796,None,681.450796,None,,,bei,1,2022_Apr_05_1630,Semantic-hierachy,2021.1.2,59.80963765
Trial # 124,layer0-5_O1_to_O7.jpg,layer0-5/layer0-5_O1_to_O7.jpg,OO,layer0-5,0,123,123,123,,,,,,,,,684.3678761,None,1,4.509785675,684.3678761,None,684.3678761,None,684.3678761,None,,,bei,1,2022_Apr_05_1630,Semantic-hierachy,2021.1.2,59.80963765
Trial # 125,layer0-5_T8_to_T9.jpg,layer0-5/layer0-5_T8_to_T9.jpg,TT,layer0-5,0,124,124,124,,,,,,,,,688.9706131,None,1,1.209941809,688.9706131,None,688.9706131,None,688.9706131,None,,,bei,1,2022_Apr_05_1630,Semantic-hierachy,2021.1.2,59.80963765
Trial # 126,layer0-5_O12_to_T8.jpg,layer0-5/layer0-5_O12_to_T8.jpg,OT,layer0-5,0,125,125,125,,,,,,,,,690.3029035,None,1,1.510608867,690.3029035,None,690.3029035,None,690.3029035,None,,,bei,1,2022_Apr_05_1630,Semantic-hierachy,2021.1.2,59.80963765
Trial # 127,layer9-17_O4_to_O6.jpg,layer9-17/layer9-17_O4_to_O6.jpg,OO,layer9-17,0,126,126,126,,,,,,,,,691.921209,None,2,15.57622593,691.921209,None,691.921209,None,691.921209,None,,,bei,1,2022_Apr_05_1630,Semantic-hierachy,2021.1.2,59.80963765
Trial # 128,layer6-8_O12_to_O6.jpg,layer6-8/layer6-8_O12_to_O6.jpg,OO,layer6-8,0,127,127,127,,,,,,,,,707.5919231,None,2,1.411260176,707.5919231,None,707.5919231,None,707.5919231,None,,,bei,1,2022_Apr_05_1630,Semantic-hierachy,2021.1.2,59.80963765
Trial # 129,layer0-5_T4_to_T6.jpg,layer0-5/layer0-5_T4_to_T6.jpg,TT,layer0-5,0,128,128,128,,,,,,,,,709.1435846,None,1,1.903585609,709.1435846,None,709.1435846,None,709.1435846,None,,,bei,1,2022_Apr_05_1630,Semantic-hierachy,2021.1.2,59.80963765
Trial # 130,layer9-17_O1_to_O3.jpg,layer9-17/layer9-17_O1_to_O3.jpg,OO,layer9-17,0,129,129,129,,,,,,,,,711.1442494,None,2,1.628841816,711.1442494,None,711.1442494,None,711.1442494,None,,,bei,1,2022_Apr_05_1630,Semantic-hierachy,2021.1.2,59.80963765
Trial # 131,layer9-17_O10_to_O3.jpg,layer9-17/layer9-17_O10_to_O3.jpg,OO,layer9-17,0,130,130,130,,,,,,,,,712.8781938,None,2,1.361191543,712.8781938,None,712.8781938,None,712.8781938,None,,,bei,1,2022_Apr_05_1630,Semantic-hierachy,2021.1.2,59.80963765
Trial # 132,layer9-17_O12_to_O3.jpg,layer9-17/layer9-17_O12_to_O3.jpg,OO,layer9-17,0,131,131,131,,,,,,,,,714.3604469,None,2,1.360101428,714.3604469,None,714.3604469,None,714.3604469,None,,,bei,1,2022_Apr_05_1630,Semantic-hierachy,2021.1.2,59.80963765
Trial # 133,layer9-17_O11_to_O4.jpg,layer9-17/layer9-17_O11_to_O4.jpg,OO,layer9-17,0,132,132,132,,,,,,,,,715.8274462,None,4,15.6299881,715.8274462,None,715.8274462,None,715.8274462,None,,,bei,1,2022_Apr_05_1630,Semantic-hierachy,2021.1.2,59.80963765
Trial # 134,layer9-17_T4_to_T7.jpg,layer9-17/layer9-17_T4_to_T7.jpg,TT,layer9-17,0,133,133,133,,,,,,,,,731.5660037,None,2,1.609924672,731.5660037,None,731.5660037,None,731.5660037,None,,,bei,1,2022_Apr_05_1630,Semantic-hierachy,2021.1.2,59.80963765
Trial # 135,layer9-17_O1_to_T1.jpg,layer9-17/layer9-17_O1_to_T1.jpg,OT,layer9-17,0,134,134,134,,,,,,,,,733.2676231,None,3,2.757137272,733.2676231,None,733.2676231,None,733.2676231,None,,,bei,1,2022_Apr_05_1630,Semantic-hierachy,2021.1.2,59.80963765
Trial # 136,layer6-8_T2_to_T5.jpg,layer6-8/layer6-8_T2_to_T5.jpg,TT,layer6-8,0,135,135,135,,,,,,,,,736.1188625,None,3,4.534985558,736.1188625,None,736.1188625,None,736.1188625,None,,,bei,1,2022_Apr_05_1630,Semantic-hierachy,2021.1.2,59.80963765
Trial # 137,layer9-17_T11_to_T7.jpg,layer9-17/layer9-17_T11_to_T7.jpg,TT,layer9-17,0,136,136,136,,,,,,,,,740.7521085,None,2,4.95579485,740.7521085,None,740.7521085,None,740.7521085,None,,,bei,1,2022_Apr_05_1630,Semantic-hierachy,2021.1.2,59.80963765
Trial # 138,layer6-8_O3_to_O8.jpg,layer6-8/layer6-8_O3_to_O8.jpg,OO,layer6-8,0,137,137,137,,,,,,,,,745.8204261,None,3,3.261776717,745.8204261,None,745.8204261,None,745.8204261,None,,,bei,1,2022_Apr_05_1630,Semantic-hierachy,2021.1.2,59.80963765
Trial # 139,layer6-8_O1_to_T7.jpg,layer6-8/layer6-8_O1_to_T7.jpg,OT,layer6-8,0,138,138,138,,,,,,,,,749.1714049,None,3,3.316530932,749.1714049,None,749.1714049,None,749.1714049,None,,,bei,1,2022_Apr_05_1630,Semantic-hierachy,2021.1.2,59.80963765
Trial # 140,layer9-17_T1_to_T3.jpg,layer9-17/layer9-17_T1_to_T3.jpg,TT,layer9-17,0,139,139,139,,,,,,,,,752.5898727,None,4,16.74726911,752.5898727,None,752.5898727,None,752.5898727,None,,,bei,1,2022_Apr_05_1630,Semantic-hierachy,2021.1.2,59.80963765
Trial # 141,layer6-8_O10_to_O12.jpg,layer6-8/layer6-8_O10_to_O12.jpg,OO,layer6-8,0,140,140,140,,,,,,,,,769.444315,None,3,9.977154316,769.444315,None,769.444315,None,769.444315,None,,,bei,1,2022_Apr_05_1630,Semantic-hierachy,2021.1.2,59.80963765
Trial # 142,layer6-8_O12_to_T11.jpg,layer6-8/layer6-8_O12_to_T11.jpg,OT,layer6-8,0,141,141,141,,,,,,,,,779.5311035,None,3,5.896253143,779.5311035,None,779.5311035,None,779.5311035,None,,,bei,1,2022_Apr_05_1630,Semantic-hierachy,2021.1.2,59.80963765
Trial # 143,layer0-5_O11_to_O5.jpg,layer0-5/layer0-5_O11_to_O5.jpg,OO,layer0-5,0,142,142,142,,,,,,,,,785.5160235,None,1,1.800218927,785.5160235,None,785.5160235,None,785.5160235,None,,,bei,1,2022_Apr_05_1630,Semantic-hierachy,2021.1.2,59.80963765
Trial # 144,layer6-8_O1_to_O8.jpg,layer6-8/layer6-8_O1_to_O8.jpg,OO,layer6-8,0,143,143,143,,,,,,,,,787.4176667,None,2,2.279801013,787.4176667,None,787.4176667,None,787.4176667,None,,,bei,1,2022_Apr_05_1630,Semantic-hierachy,2021.1.2,59.80963765
Trial # 145,layer0-5_T2_to_T5.jpg,layer0-5/layer0-5_T2_to_T5.jpg,TT,layer0-5,0,144,144,144,,,,,,,,,789.8180348,None,1,2.142789493,789.8180348,None,789.8180348,None,789.8180348,None,,,bei,1,2022_Apr_05_1630,Semantic-hierachy,2021.1.2,59.80963765
Trial # 146,layer9-17_O8_to_T3.jpg,layer9-17/layer9-17_O8_to_T3.jpg,OT,layer9-17,0,145,145,145,,,,,,,,,792.085815,None,2,2.32232451,792.085815,None,792.085815,None,792.085815,None,,,bei,1,2022_Apr_05_1630,Semantic-hierachy,2021.1.2,59.80963765
Trial # 147,layer9-17_O8_to_T4.jpg,layer9-17/layer9-17_O8_to_T4.jpg,OT,layer9-17,0,146,146,146,,,,,,,,,794.5021725,None,2,3.032303348,794.5021725,None,794.5021725,None,794.5021725,None,,,bei,1,2022_Apr_05_1630,Semantic-hierachy,2021.1.2,59.80963765
Trial # 148,layer9-17_O4_to_T9.jpg,layer9-17/layer9-17_O4_to_T9.jpg,OT,layer9-17,0,147,147,147,,,,,,,,,797.6364618,None,2,5.415843764,797.6364618,None,797.6364618,None,797.6364618,None,,,bei,1,2022_Apr_05_1630,Semantic-hierachy,2021.1.2,59.80963765
Trial # 149,layer6-8_O4_to_O8.jpg,layer6-8/layer6-8_O4_to_O8.jpg,OO,layer6-8,0,148,148,148,,,,,,,,,803.1550976,None,2,3.21352359,803.1550976,None,803.1550976,None,803.1550976,None,,,bei,1,2022_Apr_05_1630,Semantic-hierachy,2021.1.2,59.80963765
Trial # 150,layer0-5_O12_to_T7.jpg,layer0-5/layer0-5_O12_to_T7.jpg,OT,layer0-5,0,149,149,149,,,,,,,,,806.490082,None,1,2.955645758,806.490082,None,806.490082,None,806.490082,None,,,bei,1,2022_Apr_05_1630,Semantic-hierachy,2021.1.2,59.80963765
Trial # 151,layer6-8_T1_to_T3.jpg,layer6-8/layer6-8_T1_to_T3.jpg,TT,layer6-8,,,,,0,0,0,0,,,,,811.6916738,None,3,2.065943631,811.6916738,None,811.6916738,None,811.6916738,None,,,bei,1,2022_Apr_05_1630,Semantic-hierachy,2021.1.2,59.80963765
Trial # 152,layer0-5_O8_to_O9.jpg,layer0-5/layer0-5_O8_to_O9.jpg,OO,layer0-5,,,,,0,1,1,1,,,,,813.8748899,None,1,2.141870146,813.8748899,None,813.8748899,None,813.8748899,None,,,bei,1,2022_Apr_05_1630,Semantic-hierachy,2021.1.2,59.80963765
Trial # 153,layer9-17_T1_to_T5.jpg,layer9-17/layer9-17_T1_to_T5.jpg,TT,layer9-17,,,,,0,2,2,2,,,,,816.1093125,None,2,1.738613269,816.1093125,None,816.1093125,None,816.1093125,None,,,bei,1,2022_Apr_05_1630,Semantic-hierachy,2021.1.2,59.80963765
Trial # 154,layer6-8_T7_to_T9.jpg,layer6-8/layer6-8_T7_to_T9.jpg,TT,layer6-8,,,,,0,3,3,3,,,,,817.9604724,None,3,7.441884315,817.9604724,None,817.9604724,None,817.9604724,None,,,bei,1,2022_Apr_05_1630,Semantic-hierachy,2021.1.2,59.80963765
Trial # 155,layer9-17_T12_to_T7.jpg,layer9-17/layer9-17_T12_to_T7.jpg,TT,layer9-17,,,,,0,4,4,4,,,,,825.5115793,None,3,1.494852946,825.5115793,None,825.5115793,None,825.5115793,None,,,bei,1,2022_Apr_05_1630,Semantic-hierachy,2021.1.2,59.80963765
Trial # 156,layer0-5_O8_to_T11.jpg,layer0-5/layer0-5_O8_to_T11.jpg,OT,layer0-5,,,,,0,5,5,5,,,,,827.0959461,None,1,1.591356573,827.0959461,None,827.0959461,None,827.0959461,None,,,bei,1,2022_Apr_05_1630,Semantic-hierachy,2021.1.2,59.80963765
Trial # 157,layer0-5_O1_to_O9.jpg,layer0-5/layer0-5_O1_to_O9.jpg,OO,layer0-5,,,,,0,6,6,6,,,,,828.7963204,None,1,4.944944289,828.7963204,None,828.7963204,None,828.7963204,None,,,bei,1,2022_Apr_05_1630,Semantic-hierachy,2021.1.2,59.80963765
Trial # 158,layer0-5_O10_to_O12.jpg,layer0-5/layer0-5_O10_to_O12.jpg,OO,layer0-5,,,,,0,7,7,7,,,,,833.8308032,None,1,1.931114525,833.8308032,None,833.8308032,None,833.8308032,None,,,bei,1,2022_Apr_05_1630,Semantic-hierachy,2021.1.2,59.80963765
Trial # 159,layer6-8_O10_to_T5.jpg,layer6-8/layer6-8_O10_to_T5.jpg,OT,layer6-8,,,,,0,8,8,8,,,,,835.8815025,None,3,1.794806953,835.8815025,None,835.8815025,None,835.8815025,None,,,bei,1,2022_Apr_05_1630,Semantic-hierachy,2021.1.2,59.80963765
Trial # 160,layer6-8_O5_to_O6.jpg,layer6-8/layer6-8_O5_to_O6.jpg,OO,layer6-8,,,,,0,9,9,9,,,,,837.7664599,None,2,2.478538945,837.7664599,None,837.7664599,None,837.7664599,None,,,bei,1,2022_Apr_05_1630,Semantic-hierachy,2021.1.2,59.80963765
Trial # 161,layer6-8_O6_to_T11.jpg,layer6-8/layer6-8_O6_to_T11.jpg,OT,layer6-8,,,,,0,10,10,10,,,,,840.3660266,None,2,8.962478011,840.3660266,None,840.3660266,None,840.3660266,None,,,bei,1,2022_Apr_05_1630,Semantic-hierachy,2021.1.2,59.80963765
Trial # 162,layer9-17_O12_to_O9.jpg,layer9-17/layer9-17_O12_to_O9.jpg,OO,layer9-17,,,,,0,11,11,11,,,,,849.419245,None,2,2.981401553,849.419245,None,849.419245,None,849.419245,None,,,bei,1,2022_Apr_05_1630,Semantic-hierachy,2021.1.2,59.80963765
Trial # 163,layer6-8_O12_to_T6.jpg,layer6-8/layer6-8_O12_to_T6.jpg,OT,layer6-8,,,,,0,12,12,12,,,,,852.5042186,None,3,1.562975847,852.5042186,None,852.5042186,None,852.5042186,None,,,bei,1,2022_Apr_05_1630,Semantic-hierachy,2021.1.2,59.80963765
Trial # 164,layer0-5_T11_to_T7.jpg,layer0-5/layer0-5_T11_to_T7.jpg,TT,layer0-5,,,,,0,13,13,13,,,,,854.1703662,None,1,1.662093016,854.1703662,None,854.1703662,None,854.1703662,None,,,bei,1,2022_Apr_05_1630,Semantic-hierachy,2021.1.2,59.80963765
Trial # 165,layer9-17_O10_to_T5.jpg,layer9-17/layer9-17_O10_to_T5.jpg,OT,layer9-17,,,,,0,14,14,14,,,,,855.9546409,None,4,14.69948515,855.9546409,None,855.9546409,None,855.9546409,None,,,bei,1,2022_Apr_05_1630,Semantic-hierachy,2021.1.2,59.80963765
Trial # 166,layer9-17_T1_to_T6.jpg,layer9-17/layer9-17_T1_to_T6.jpg,TT,layer9-17,,,,,0,15,15,15,,,,,870.7759086,None,2,8.902292104,870.7759086,None,870.7759086,None,870.7759086,None,,,bei,1,2022_Apr_05_1630,Semantic-hierachy,2021.1.2,59.80963765
Trial # 167,layer0-5_T1_to_T3.jpg,layer0-5/layer0-5_T1_to_T3.jpg,TT,layer0-5,,,,,0,16,16,16,,,,,879.7947365,None,1,1.657375624,879.7947365,None,879.7947365,None,879.7947365,None,,,bei,1,2022_Apr_05_1630,Semantic-hierachy,2021.1.2,59.80963765
Trial # 168,layer0-5_O2_to_O9.jpg,layer0-5/layer0-5_O2_to_O9.jpg,OO,layer0-5,,,,,0,17,17,17,,,,,881.5627763,None,1,1.654514629,881.5627763,None,881.5627763,None,881.5627763,None,,,bei,1,2022_Apr_05_1630,Semantic-hierachy,2021.1.2,59.80963765
Trial # 169,layer9-17_O3_to_T4.jpg,layer9-17/layer9-17_O3_to_T4.jpg,OT,layer9-17,,,,,0,18,18,18,,,,,883.3127743,None,2,2.147980648,883.3127743,None,883.3127743,None,883.3127743,None,,,bei,1,2022_Apr_05_1630,Semantic-hierachy,2021.1.2,59.80963765
Trial # 170,layer6-8_O11_to_O9.jpg,layer6-8/layer6-8_O11_to_O9.jpg,OO,layer6-8,,,,,0,19,19,19,,,,,885.5800015,None,2,4.277596219,885.5800015,None,885.5800015,None,885.5800015,None,,,bei,1,2022_Apr_05_1630,Semantic-hierachy,2021.1.2,59.80963765
Trial # 171,layer9-17_O1_to_O7.jpg,layer9-17/layer9-17_O1_to_O7.jpg,OO,layer9-17,,,,,0,20,20,20,,,,,889.9479683,None,3,3.63481883,889.9479683,None,889.9479683,None,889.9479683,None,,,bei,1,2022_Apr_05_1630,Semantic-hierachy,2021.1.2,59.80963765
Trial # 172,layer0-5_T12_to_T4.jpg,layer0-5/layer0-5_T12_to_T4.jpg,TT,layer0-5,,,,,0,21,21,21,,,,,893.6992722,None,1,1.476202833,893.6992722,None,893.6992722,None,893.6992722,None,,,bei,1,2022_Apr_05_1630,Semantic-hierachy,2021.1.2,59.80963765
Trial # 173,layer0-5_O4_to_T4.jpg,layer0-5/layer0-5_O4_to_T4.jpg,OT,layer0-5,,,,,0,22,22,22,,,,,895.2662631,None,1,6.164675084,895.2662631,None,895.2662631,None,895.2662631,None,,,bei,1,2022_Apr_05_1630,Semantic-hierachy,2021.1.2,59.80963765
Trial # 174,layer6-8_T12_to_T5.jpg,layer6-8/layer6-8_T12_to_T5.jpg,TT,layer6-8,,,,,0,23,23,23,,,,,901.5360793,None,3,3.014083214,901.5360793,None,901.5360793,None,901.5360793,None,,,bei,1,2022_Apr_05_1630,Semantic-hierachy,2021.1.2,59.80963765
Trial # 175,layer6-8_O11_to_T1.jpg,layer6-8/layer6-8_O11_to_T1.jpg,OT,layer6-8,,,,,0,24,24,24,,,,,904.6525416,None,3,2.098169249,904.6525416,None,904.6525416,None,904.6525416,None,,,bei,1,2022_Apr_05_1630,Semantic-hierachy,2021.1.2,59.80963765
Trial # 176,layer0-5_O7_to_T8.jpg,layer0-5/layer0-5_O7_to_T8.jpg,OT,layer0-5,,,,,0,25,25,25,,,,,906.8709275,None,1,1.757232631,906.8709275,None,906.8709275,None,906.8709275,None,,,bei,1,2022_Apr_05_1630,Semantic-hierachy,2021.1.2,59.80963765
Trial # 177,layer0-5_O11_to_T5.jpg,layer0-5/layer0-5_O11_to_T5.jpg,OT,layer0-5,,,,,0,26,26,26,,,,,908.7876242,None,1,1.984440233,908.7876242,None,908.7876242,None,908.7876242,None,,,bei,1,2022_Apr_05_1630,Semantic-hierachy,2021.1.2,59.80963765
Trial # 178,layer9-17_O2_to_T2.jpg,layer9-17/layer9-17_O2_to_T2.jpg,OT,layer9-17,,,,,0,27,27,27,,,,,910.8709976,None,1,4.063033775,910.8709976,None,910.8709976,None,910.8709976,None,,,bei,1,2022_Apr_05_1630,Semantic-hierachy,2021.1.2,59.80963765
Trial # 179,layer0-5_O4_to_T9.jpg,layer0-5/layer0-5_O4_to_T9.jpg,OT,layer0-5,,,,,0,28,28,28,,,,,915.0560099,None,1,5.307856085,915.0560099,None,915.0560099,None,915.0560099,None,,,bei,1,2022_Apr_05_1630,Semantic-hierachy,2021.1.2,59.80963765
Trial # 180,layer9-17_T6_to_T8.jpg,layer9-17/layer9-17_T6_to_T8.jpg,TT,layer9-17,,,,,0,29,29,29,,,,,920.4577504,None,2,5.484137486,920.4577504,None,920.4577504,None,920.4577504,None,,,bei,1,2022_Apr_05_1630,Semantic-hierachy,2021.1.2,59.80963765
Trial # 181,layer9-17_O12_to_O5.jpg,layer9-17/layer9-17_O12_to_O5.jpg,OO,layer9-17,,,,,0,30,30,30,,,,,926.0596118,None,2,7.346628347,926.0596118,None,926.0596118,None,926.0596118,None,,,bei,1,2022_Apr_05_1630,Semantic-hierachy,2021.1.2,59.80963765
Trial # 182,layer6-8_O1_to_O7.jpg,layer6-8/layer6-8_O1_to_O7.jpg,OO,layer6-8,,,,,0,31,31,31,,,,,933.4950255,None,2,6.233659056,933.4950255,None,933.4950255,None,933.4950255,None,,,bei,1,2022_Apr_05_1630,Semantic-hierachy,2021.1.2,59.80963765
Trial # 183,layer6-8_O3_to_T10.jpg,layer6-8/layer6-8_O3_to_T10.jpg,OT,layer6-8,,,,,0,32,32,32,,,,,939.8470543,None,3,1.972632337,939.8470543,None,939.8470543,None,939.8470543,None,,,bei,1,2022_Apr_05_1630,Semantic-hierachy,2021.1.2,59.80963765
Trial # 184,layer0-5_O1_to_T11.jpg,layer0-5/layer0-5_O1_to_T11.jpg,OT,layer0-5,,,,,0,33,33,33,,,,,941.9825784,None,1,1.729334835,941.9825784,None,941.9825784,None,941.9825784,None,,,bei,1,2022_Apr_05_1630,Semantic-hierachy,2021.1.2,59.80963765
Trial # 185,layer6-8_O8_to_O9.jpg,layer6-8/layer6-8_O8_to_O9.jpg,OO,layer6-8,,,,,0,34,34,34,,,,,943.8319588,None,2,15.13261505,943.8319588,None,943.8319588,None,943.8319588,None,,,bei,1,2022_Apr_05_1630,Semantic-hierachy,2021.1.2,59.80963765
Trial # 186,layer9-17_O4_to_O9.jpg,layer9-17/layer9-17_O4_to_O9.jpg,OO,layer9-17,,,,,0,35,35,35,,,,,959.0707087,None,3,4.777470088,959.0707087,None,959.0707087,None,959.0707087,None,,,bei,1,2022_Apr_05_1630,Semantic-hierachy,2021.1.2,59.80963765
Trial # 187,layer0-5_O12_to_O5.jpg,layer0-5/layer0-5_O12_to_O5.jpg,OO,layer0-5,,,,,0,36,36,36,,,,,963.9544622,None,1,1.694241286,963.9544622,None,963.9544622,None,963.9544622,None,,,bei,1,2022_Apr_05_1630,Semantic-hierachy,2021.1.2,59.80963765
Trial # 188,layer6-8_T12_to_T4.jpg,layer6-8/layer6-8_T12_to_T4.jpg,TT,layer6-8,,,,,0,37,37,37,,,,,965.7390318,None,3,2.433621177,965.7390318,None,965.7390318,None,965.7390318,None,,,bei,1,2022_Apr_05_1630,Semantic-hierachy,2021.1.2,59.80963765
Trial # 189,layer0-5_T6_to_T8.jpg,layer0-5/layer0-5_T6_to_T8.jpg,TT,layer0-5,,,,,0,38,38,38,,,,,968.2733027,None,1,2.161470878,968.2733027,None,968.2733027,None,968.2733027,None,,,bei,1,2022_Apr_05_1630,Semantic-hierachy,2021.1.2,59.80963765
Trial # 190,layer6-8_O11_to_T2.jpg,layer6-8/layer6-8_O11_to_T2.jpg,OT,layer6-8,,,,,0,39,39,39,,,,,970.556148,None,3,2.074482025,970.556148,None,970.556148,None,970.556148,None,,,bei,1,2022_Apr_05_1630,Semantic-hierachy,2021.1.2,59.80963765
Trial # 191,layer6-8_O1_to_O3.jpg,layer6-8/layer6-8_O1_to_O3.jpg,OO,layer6-8,,,,,0,40,40,40,,,,,972.7419289,None,2,2.508766661,972.7419289,None,972.7419289,None,972.7419289,None,,,bei,1,2022_Apr_05_1630,Semantic-hierachy,2021.1.2,59.80963765
Trial # 192,layer0-5_O7_to_T1.jpg,layer0-5/layer0-5_O7_to_T1.jpg,OT,layer0-5,,,,,0,41,41,41,,,,,975.3414791,None,1,3.163665179,975.3414791,None,975.3414791,None,975.3414791,None,,,bei,1,2022_Apr_05_1630,Semantic-hierachy,2021.1.2,59.80963765
Trial # 193,layer6-8_O3_to_T7.jpg,layer6-8/layer6-8_O3_to_T7.jpg,OT,layer6-8,,,,,0,42,42,42,,,,,978.6258647,None,3,1.70771325,978.6258647,None,978.6258647,None,978.6258647,None,,,bei,1,2022_Apr_05_1630,Semantic-hierachy,2021.1.2,59.80963765
Trial # 194,layer9-17_T10_to_T6.jpg,layer9-17/layer9-17_T10_to_T6.jpg,TT,layer9-17,,,,,0,43,43,43,,,,,980.4259913,None,2,1.613709088,980.4259913,None,980.4259913,None,980.4259913,None,,,bei,1,2022_Apr_05_1630,Semantic-hierachy,2021.1.2,59.80963765
Trial # 195,layer6-8_T2_to_T9.jpg,layer6-8/layer6-8_T2_to_T9.jpg,TT,layer6-8,,,,,0,44,44,44,,,,,982.1613129,None,3,1.824175336,982.1613129,None,982.1613129,None,982.1613129,None,,,bei,1,2022_Apr_05_1630,Semantic-hierachy,2021.1.2,59.80963765
Trial # 196,layer0-5_O3_to_T3.jpg,layer0-5/layer0-5_O3_to_T3.jpg,OT,layer0-5,,,,,0,45,45,45,,,,,984.0941159,None,1,1.458931463,984.0941159,None,984.0941159,None,984.0941159,None,,,bei,1,2022_Apr_05_1630,Semantic-hierachy,2021.1.2,59.80963765
Trial # 197,layer9-17_O1_to_O2.jpg,layer9-17/layer9-17_O1_to_O2.jpg,OO,layer9-17,,,,,0,46,46,46,,,,,985.6613354,None,3,3.59363447,985.6613354,None,985.6613354,None,985.6613354,None,,,bei,1,2022_Apr_05_1630,Semantic-hierachy,2021.1.2,59.80963765
Trial # 198,layer9-17_T2_to_T9.jpg,layer9-17/layer9-17_T2_to_T9.jpg,TT,layer9-17,,,,,0,47,47,47,,,,,989.3626097,None,3,2.993740584,989.3626097,None,989.3626097,None,989.3626097,None,,,bei,1,2022_Apr_05_1630,Semantic-hierachy,2021.1.2,59.80963765
Trial # 199,layer9-17_O6_to_T10.jpg,layer9-17/layer9-17_O6_to_T10.jpg,OT,layer9-17,,,,,0,48,48,48,,,,,992.4634111,None,2,1.309317302,992.4634111,None,992.4634111,None,992.4634111,None,,,bei,1,2022_Apr_05_1630,Semantic-hierachy,2021.1.2,59.80963765
Trial # 200,layer0-5_T12_to_T5.jpg,layer0-5/layer0-5_T12_to_T5.jpg,TT,layer0-5,,,,,0,49,49,49,,,,,993.8636066,None,1,1.515032302,993.8636066,None,993.8636066,None,993.8636066,None,,,bei,1,2022_Apr_05_1630,Semantic-hierachy,2021.1.2,59.80963765
Trial # 201,layer0-5_O10_to_T10.jpg,layer0-5/layer0-5_O10_to_T10.jpg,OT,layer0-5,,,,,0,50,50,50,,,,,995.4811161,None,1,2.081365621,995.4811161,None,995.4811161,None,995.4811161,None,,,bei,1,2022_Apr_05_1630,Semantic-hierachy,2021.1.2,59.80963765
Trial # 202,layer9-17_T11_to_T12.jpg,layer9-17/layer9-17_T11_to_T12.jpg,TT,layer9-17,,,,,0,51,51,51,,,,,997.664913,None,2,7.181911442,997.664913,None,997.664913,None,997.664913,None,,,bei,1,2022_Apr_05_1630,Semantic-hierachy,2021.1.2,59.80963765
Trial # 203,layer6-8_T3_to_T5.jpg,layer6-8/layer6-8_T3_to_T5.jpg,TT,layer6-8,,,,,0,52,52,52,,,,,1004.967706,None,3,4.291039909,1004.967706,None,1004.967706,None,1004.967706,None,,,bei,1,2022_Apr_05_1630,Semantic-hierachy,2021.1.2,59.80963765
Trial # 204,layer0-5_O5_to_T10.jpg,layer0-5/layer0-5_O5_to_T10.jpg,OT,layer0-5,,,,,0,53,53,53,,,,,1009.351772,None,1,6.682444163,1009.351772,None,1009.351772,None,1009.351772,None,,,bei,1,2022_Apr_05_1630,Semantic-hierachy,2021.1.2,59.80963765
Trial # 205,layer0-5_O10_to_O5.jpg,layer0-5/layer0-5_O10_to_O5.jpg,OO,layer0-5,,,,,0,54,54,54,,,,,1016.137035,None,1,1.378848368,1016.137035,None,1016.137035,None,1016.137035,None,,,bei,1,2022_Apr_05_1630,Semantic-hierachy,2021.1.2,59.80963765
Trial # 206,layer0-5_O5_to_O7.jpg,layer0-5/layer0-5_O5_to_O7.jpg,OO,layer0-5,,,,,0,55,55,55,,,,,1017.63823,None,1,1.125590417,1017.63823,None,1017.63823,None,1017.63823,None,,,bei,1,2022_Apr_05_1630,Semantic-hierachy,2021.1.2,59.80963765
Trial # 207,layer0-5_O3_to_T10.jpg,layer0-5/layer0-5_O3_to_T10.jpg,OT,layer0-5,,,,,0,56,56,56,,,,,1018.855449,None,1,3.098876059,1018.855449,None,1018.855449,None,1018.855449,None,,,bei,1,2022_Apr_05_1630,Semantic-hierachy,2021.1.2,59.80963765
Trial # 208,layer0-5_O4_to_O5.jpg,layer0-5/layer0-5_O4_to_O5.jpg,OO,layer0-5,,,,,0,57,57,57,,,,,1022.073309,None,1,1.12294878,1022.073309,None,1022.073309,None,1022.073309,None,,,bei,1,2022_Apr_05_1630,Semantic-hierachy,2021.1.2,59.80963765
Trial # 209,layer6-8_T12_to_T3.jpg,layer6-8/layer6-8_T12_to_T3.jpg,TT,layer6-8,,,,,0,58,58,58,,,,,1023.289926,None,3,2.046273492,1023.289926,None,1023.289926,None,1023.289926,None,,,bei,1,2022_Apr_05_1630,Semantic-hierachy,2021.1.2,59.80963765
Trial # 210,layer6-8_O7_to_T9.jpg,layer6-8/layer6-8_O7_to_T9.jpg,OT,layer6-8,,,,,0,59,59,59,,,,,1025.440007,None,1,1.836153501,1025.440007,None,1025.440007,None,1025.440007,None,,,bei,1,2022_Apr_05_1630,Semantic-hierachy,2021.1.2,59.80963765
Trial # 211,layer6-8_O1_to_O11.jpg,layer6-8/layer6-8_O1_to_O11.jpg,OO,layer6-8,,,,,0,60,60,60,,,,,1027.375023,None,3,7.947929986,1027.375023,None,1027.375023,None,1027.375023,None,,,bei,1,2022_Apr_05_1630,Semantic-hierachy,2021.1.2,59.80963765
Trial # 212,layer6-8_T2_to_T6.jpg,layer6-8/layer6-8_T2_to_T6.jpg,TT,layer6-8,,,,,0,61,61,61,,,,,1035.426253,None,2,11.64944801,1035.426253,None,1035.426253,None,1035.426253,None,,,bei,1,2022_Apr_05_1630,Semantic-hierachy,2021.1.2,59.80963765
Trial # 213,layer6-8_O10_to_O6.jpg,layer6-8/layer6-8_O10_to_O6.jpg,OO,layer6-8,,,,,0,62,62,62,,,,,1047.213819,None,3,3.20200135,1047.213819,None,1047.213819,None,1047.213819,None,,,bei,1,2022_Apr_05_1630,Semantic-hierachy,2021.1.2,59.80963765
Trial # 214,layer9-17_T5_to_T8.jpg,layer9-17/layer9-17_T5_to_T8.jpg,TT,layer9-17,,,,,0,63,63,63,,,,,1050.515107,None,2,3.381236516,1050.515107,None,1050.515107,None,1050.515107,None,,,bei,1,2022_Apr_05_1630,Semantic-hierachy,2021.1.2,59.80963765
Trial # 215,layer9-17_O3_to_T10.jpg,layer9-17/layer9-17_O3_to_T10.jpg,OT,layer9-17,,,,,0,64,64,64,,,,,1053.999058,None,2,3.469098961,1053.999058,None,1053.999058,None,1053.999058,None,,,bei,1,2022_Apr_05_1630,Semantic-hierachy,2021.1.2,59.80963765
Trial # 216,layer6-8_O12_to_O3.jpg,layer6-8/layer6-8_O12_to_O3.jpg,OO,layer6-8,,,,,0,65,65,65,,,,,1057.566719,None,3,2.381336576,1057.566719,None,1057.566719,None,1057.566719,None,,,bei,1,2022_Apr_05_1630,Semantic-hierachy,2021.1.2,59.80963765
Trial # 217,layer0-5_T10_to_T2.jpg,layer0-5/layer0-5_T10_to_T2.jpg,TT,layer0-5,,,,,0,66,66,66,,,,,1060.050491,None,1,2.846646791,1060.050491,None,1060.050491,None,1060.050491,None,,,bei,1,2022_Apr_05_1630,Semantic-hierachy,2021.1.2,59.80963765
Trial # 218,layer9-17_O10_to_O6.jpg,layer9-17/layer9-17_O10_to_O6.jpg,OO,layer9-17,,,,,0,67,67,67,,,,,1063.0026,None,1,4.746935614,1063.0026,None,1063.0026,None,1063.0026,None,,,bei,1,2022_Apr_05_1630,Semantic-hierachy,2021.1.2,59.80963765
Trial # 219,layer6-8_O6_to_O9.jpg,layer6-8/layer6-8_O6_to_O9.jpg,OO,layer6-8,,,,,0,68,68,68,,,,,1067.854292,None,3,9.297388556,1067.854292,None,1067.854292,None,1067.854292,None,,,bei,1,2022_Apr_05_1630,Semantic-hierachy,2021.1.2,59.80963765
Trial # 220,layer0-5_O7_to_T2.jpg,layer0-5/layer0-5_O7_to_T2.jpg,OT,layer0-5,,,,,0,69,69,69,,,,,1077.273694,None,1,1.660623965,1077.273694,None,1077.273694,None,1077.273694,None,,,bei,1,2022_Apr_05_1630,Semantic-hierachy,2021.1.2,59.80963765
Trial # 221,layer9-17_T12_to_T2.jpg,layer9-17/layer9-17_T12_to_T2.jpg,TT,layer9-17,,,,,0,70,70,70,,,,,1079.040869,None,4,11.59511979,1079.040869,None,1079.040869,None,1079.040869,None,,,bei,1,2022_Apr_05_1630,Semantic-hierachy,2021.1.2,59.80963765
Trial # 222,layer9-17_O8_to_T11.jpg,layer9-17/layer9-17_O8_to_T11.jpg,OT,layer9-17,,,,,0,71,71,71,,,,,1090.726884,None,3,3.778939248,1090.726884,None,1090.726884,None,1090.726884,None,,,bei,1,2022_Apr_05_1630,Semantic-hierachy,2021.1.2,59.80963765
Trial # 223,layer6-8_O3_to_T9.jpg,layer6-8/layer6-8_O3_to_T9.jpg,OT,layer6-8,,,,,0,72,72,72,,,,,1094.611337,None,3,2.417331511,1094.611337,None,1094.611337,None,1094.611337,None,,,bei,1,2022_Apr_05_1630,Semantic-hierachy,2021.1.2,59.80963765
Trial # 224,layer0-5_O6_to_O9.jpg,layer0-5/layer0-5_O6_to_O9.jpg,OO,layer0-5,,,,,0,73,73,73,,,,,1097.14604,None,1,1.659123258,1097.14604,None,1097.14604,None,1097.14604,None,,,bei,1,2022_Apr_05_1630,Semantic-hierachy,2021.1.2,59.80963765
Trial # 225,layer0-5_O12_to_T1.jpg,layer0-5/layer0-5_O12_to_T1.jpg,OT,layer0-5,,,,,0,74,74,74,,,,,1098.896448,None,1,2.696773409,1098.896448,None,1098.896448,None,1098.896448,None,,,bei,1,2022_Apr_05_1630,Semantic-hierachy,2021.1.2,59.80963765
Trial # 226,layer9-17_O2_to_T8.jpg,layer9-17/layer9-17_O2_to_T8.jpg,OT,layer9-17,,,,,0,75,75,75,,,,,1101.714139,None,2,2.794298438,1101.714139,None,1101.714139,None,1101.714139,None,,,bei,1,2022_Apr_05_1630,Semantic-hierachy,2021.1.2,59.80963765
Trial # 227,layer0-5_T4_to_T8.jpg,layer0-5/layer0-5_T4_to_T8.jpg,TT,layer0-5,,,,,0,76,76,76,,,,,1104.597499,None,1,1.289690537,1104.597499,None,1104.597499,None,1104.597499,None,,,bei,1,2022_Apr_05_1630,Semantic-hierachy,2021.1.2,59.80963765
Trial # 228,layer9-17_O2_to_T1.jpg,layer9-17/layer9-17_O2_to_T1.jpg,OT,layer9-17,,,,,0,77,77,77,,,,,1105.998706,None,3,2.694613583,1105.998706,None,1105.998706,None,1105.998706,None,,,bei,1,2022_Apr_05_1630,Semantic-hierachy,2021.1.2,59.80963765
Trial # 229,layer0-5_O11_to_O7.jpg,layer0-5/layer0-5_O11_to_O7.jpg,OO,layer0-5,,,,,0,78,78,78,,,,,1108.799387,None,1,1.391571971,1108.799387,None,1108.799387,None,1108.799387,None,,,bei,1,2022_Apr_05_1630,Semantic-hierachy,2021.1.2,59.80963765
Trial # 230,layer6-8_T2_to_T8.jpg,layer6-8/layer6-8_T2_to_T8.jpg,TT,layer6-8,,,,,0,79,79,79,,,,,1110.299389,None,3,7.512438517,1110.299389,None,1110.299389,None,1110.299389,None,,,bei,1,2022_Apr_05_1630,Semantic-hierachy,2021.1.2,59.80963765
Trial # 231,layer9-17_T4_to_T8.jpg,layer9-17/layer9-17_T4_to_T8.jpg,TT,layer9-17,,,,,0,80,80,80,,,,,1117.903271,None,2,4.396740599,1117.903271,None,1117.903271,None,1117.903271,None,,,bei,1,2022_Apr_05_1630,Semantic-hierachy,2021.1.2,59.80963765
Trial # 232,layer9-17_T11_to_T3.jpg,layer9-17/layer9-17_T11_to_T3.jpg,TT,layer9-17,,,,,0,81,81,81,,,,,1122.436854,None,2,1.600809044,1122.436854,None,1122.436854,None,1122.436854,None,,,bei,1,2022_Apr_05_1630,Semantic-hierachy,2021.1.2,59.80963765
Trial # 233,layer0-5_O3_to_T9.jpg,layer0-5/layer0-5_O3_to_T9.jpg,OT,layer0-5,,,,,0,82,82,82,,,,,1124.137407,None,1,1.662935588,1124.137407,None,1124.137407,None,1124.137407,None,,,bei,1,2022_Apr_05_1630,Semantic-hierachy,2021.1.2,59.80963765
Trial # 234,layer9-17_T7_to_T8.jpg,layer9-17/layer9-17_T7_to_T8.jpg,TT,layer9-17,,,,,0,83,83,83,,,,,1125.921008,None,2,3.507110529,1125.921008,None,1125.921008,None,1125.921008,None,,,bei,1,2022_Apr_05_1630,Semantic-hierachy,2021.1.2,59.80963765
Trial # 235,layer9-17_O3_to_O4.jpg,layer9-17/layer9-17_O3_to_O4.jpg,OO,layer9-17,,,,,0,84,84,84,,,,,1129.522632,None,2,1.227593239,1129.522632,None,1129.522632,None,1129.522632,None,,,bei,1,2022_Apr_05_1630,Semantic-hierachy,2021.1.2,59.80963765
Trial # 236,layer6-8_O8_to_T6.jpg,layer6-8/layer6-8_O8_to_T6.jpg,OT,layer6-8,,,,,0,85,85,85,,,,,1130.85567,None,4,7.215099338,1130.85567,None,1130.85567,None,1130.85567,None,,,bei,1,2022_Apr_05_1630,Semantic-hierachy,2021.1.2,59.80963765
Trial # 237,layer9-17_T6_to_T7.jpg,layer9-17/layer9-17_T6_to_T7.jpg,TT,layer9-17,,,,,0,86,86,86,,,,,1138.192416,None,2,1.557467745,1138.192416,None,1138.192416,None,1138.192416,None,,,bei,1,2022_Apr_05_1630,Semantic-hierachy,2021.1.2,59.80963765
Trial # 238,layer0-5_T2_to_T9.jpg,layer0-5/layer0-5_T2_to_T9.jpg,TT,layer0-5,,,,,0,87,87,87,,,,,1139.85876,None,1,1.592947289,1139.85876,None,1139.85876,None,1139.85876,None,,,bei,1,2022_Apr_05_1630,Semantic-hierachy,2021.1.2,59.80963765
Trial # 239,layer0-5_O2_to_O5.jpg,layer0-5/layer0-5_O2_to_O5.jpg,OO,layer0-5,,,,,0,88,88,88,,,,,1141.543155,None,1,1.293895557,1141.543155,None,1141.543155,None,1141.543155,None,,,bei,1,2022_Apr_05_1630,Semantic-hierachy,2021.1.2,59.80963765
Trial # 240,layer6-8_O1_to_O5.jpg,layer6-8/layer6-8_O1_to_O5.jpg,OO,layer6-8,,,,,0,89,89,89,,,,,1142.943306,None,3,2.673250737,1142.943306,None,1142.943306,None,1142.943306,None,,,bei,1,2022_Apr_05_1630,Semantic-hierachy,2021.1.2,59.80963765
Trial # 241,layer9-17_O3_to_O7.jpg,layer9-17/layer9-17_O3_to_O7.jpg,OO,layer9-17,,,,,0,90,90,90,,,,,1145.727116,None,2,1.476537599,1145.727116,None,1145.727116,None,1145.727116,None,,,bei,1,2022_Apr_05_1630,Semantic-hierachy,2021.1.2,59.80963765
Trial # 242,layer6-8_O11_to_O8.jpg,layer6-8/layer6-8_O11_to_O8.jpg,OO,layer6-8,,,,,0,91,91,91,,,,,1147.312449,None,4,3.458749553,1147.312449,None,1147.312449,None,1147.312449,None,,,bei,1,2022_Apr_05_1630,Semantic-hierachy,2021.1.2,59.80963765
Trial # 243,layer9-17_T1_to_T12.jpg,layer9-17/layer9-17_T1_to_T12.jpg,TT,layer9-17,,,,,0,92,92,92,,,,,1150.861868,None,2,3.566316414,1150.861868,None,1150.861868,None,1150.861868,None,,,bei,1,2022_Apr_05_1630,Semantic-hierachy,2021.1.2,59.80963765
Trial # 244,layer9-17_O6_to_O8.jpg,layer9-17/layer9-17_O6_to_O8.jpg,OO,layer9-17,,,,,0,93,93,93,,,,,1154.580643,None,3,19.35624541,1154.580643,None,1154.580643,None,1154.580643,None,,,bei,1,2022_Apr_05_1630,Semantic-hierachy,2021.1.2,59.80963765
Trial # 245,layer6-8_O4_to_T11.jpg,layer6-8/layer6-8_O4_to_T11.jpg,OT,layer6-8,,,,,0,94,94,94,,,,,1174.052644,None,3,1.225510432,1174.052644,None,1174.052644,None,1174.052644,None,,,bei,1,2022_Apr_05_1630,Semantic-hierachy,2021.1.2,59.80963765
Trial # 246,layer9-17_T10_to_T3.jpg,layer9-17/layer9-17_T10_to_T3.jpg,TT,layer9-17,,,,,0,95,95,95,,,,,1175.369701,None,2,1.730586675,1175.369701,None,1175.369701,None,1175.369701,None,,,bei,1,2022_Apr_05_1630,Semantic-hierachy,2021.1.2,59.80963765
Trial # 247,layer0-5_O10_to_O8.jpg,layer0-5/layer0-5_O10_to_O8.jpg,OO,layer0-5,,,,,0,96,96,96,,,,,1177.205021,None,1,2.066473573,1177.205021,None,1177.205021,None,1177.205021,None,,,bei,1,2022_Apr_05_1630,Semantic-hierachy,2021.1.2,59.80963765
Trial # 248,layer6-8_O3_to_T12.jpg,layer6-8/layer6-8_O3_to_T12.jpg,OT,layer6-8,,,,,0,97,97,97,,,,,1179.387772,None,3,1.843594188,1179.387772,None,1179.387772,None,1179.387772,None,,,bei,1,2022_Apr_05_1630,Semantic-hierachy,2021.1.2,59.80963765
Trial # 249,layer0-5_O12_to_T9.jpg,layer0-5/layer0-5_O12_to_T9.jpg,OT,layer0-5,,,,,0,98,98,98,,,,,1181.355696,None,1,4.35866767,1181.355696,None,1181.355696,None,1181.355696,None,,,bei,1,2022_Apr_05_1630,Semantic-hierachy,2021.1.2,59.80963765
Trial # 250,layer9-17_T1_to_T9.jpg,layer9-17/layer9-17_T1_to_T9.jpg,TT,layer9-17,,,,,0,99,99,99,,,,,1185.806516,None,2,3.250612441,1185.806516,None,1185.806516,None,1185.806516,None,,,bei,1,2022_Apr_05_1630,Semantic-hierachy,2021.1.2,59.80963765
Trial # 251,layer9-17_T11_to_T8.jpg,layer9-17/layer9-17_T11_to_T8.jpg,TT,layer9-17,,,,,0,100,100,100,,,,,1189.157507,None,2,3.444952678,1189.157507,None,1189.157507,None,1189.157507,None,,,bei,1,2022_Apr_05_1630,Semantic-hierachy,2021.1.2,59.80963765
Trial # 252,layer9-17_T11_to_T5.jpg,layer9-17/layer9-17_T11_to_T5.jpg,TT,layer9-17,,,,,0,101,101,101,,,,,1192.691843,None,3,4.381258972,1192.691843,None,1192.691843,None,1192.691843,None,,,bei,1,2022_Apr_05_1630,Semantic-hierachy,2021.1.2,59.80963765
Trial # 253,layer6-8_T10_to_T12.jpg,layer6-8/layer6-8_T10_to_T12.jpg,TT,layer6-8,,,,,0,102,102,102,,,,,1197.176886,None,3,2.047606758,1197.176886,None,1197.176886,None,1197.176886,None,,,bei,1,2022_Apr_05_1630,Semantic-hierachy,2021.1.2,59.80963765
Trial # 254,layer9-17_O5_to_T1.jpg,layer9-17/layer9-17_O5_to_T1.jpg,OT,layer9-17,,,,,0,103,103,103,,,,,1199.327374,None,2,2.128938173,1199.327374,None,1199.327374,None,1199.327374,None,,,bei,1,2022_Apr_05_1630,Semantic-hierachy,2021.1.2,59.80963765
Trial # 255,layer6-8_T2_to_T3.jpg,layer6-8/layer6-8_T2_to_T3.jpg,TT,layer6-8,,,,,0,104,104,104,,,,,1201.578547,None,3,2.142197954,1201.578547,None,1201.578547,None,1201.578547,None,,,bei,1,2022_Apr_05_1630,Semantic-hierachy,2021.1.2,59.80963765
Trial # 256,layer6-8_O2_to_T6.jpg,layer6-8/layer6-8_O2_to_T6.jpg,OT,layer6-8,,,,,0,105,105,105,,,,,1203.812136,None,3,1.481642725,1203.812136,None,1203.812136,None,1203.812136,None,,,bei,1,2022_Apr_05_1630,Semantic-hierachy,2021.1.2,59.80963765
Trial # 257,layer6-8_T11_to_T9.jpg,layer6-8/layer6-8_T11_to_T9.jpg,TT,layer6-8,,,,,0,106,106,106,,,,,1205.412459,None,3,2.259958206,1205.412459,None,1205.412459,None,1205.412459,None,,,bei,1,2022_Apr_05_1630,Semantic-hierachy,2021.1.2,59.80963765
Trial # 258,layer6-8_O5_to_T9.jpg,layer6-8/layer6-8_O5_to_T9.jpg,OT,layer6-8,,,,,0,107,107,107,,,,,1207.779848,None,3,2.160408175,1207.779848,None,1207.779848,None,1207.779848,None,,,bei,1,2022_Apr_05_1630,Semantic-hierachy,2021.1.2,59.80963765
Trial # 259,layer6-8_O9_to_T8.jpg,layer6-8/layer6-8_O9_to_T8.jpg,OT,layer6-8,,,,,0,108,108,108,,,,,1210.030161,None,3,1.231300427,1210.030161,None,1210.030161,None,1210.030161,None,,,bei,1,2022_Apr_05_1630,Semantic-hierachy,2021.1.2,59.80963765
Trial # 260,layer6-8_T1_to_T5.jpg,layer6-8/layer6-8_T1_to_T5.jpg,TT,layer6-8,,,,,0,109,109,109,,,,,1211.365472,None,3,1.55829509,1211.365472,None,1211.365472,None,1211.365472,None,,,bei,1,2022_Apr_05_1630,Semantic-hierachy,2021.1.2,59.80963765
Trial # 261,layer0-5_O11_to_T2.jpg,layer0-5/layer0-5_O11_to_T2.jpg,OT,layer0-5,,,,,0,110,110,110,,,,,1213.014928,None,1,1.698578129,1213.014928,None,1213.014928,None,1213.014928,None,,,bei,1,2022_Apr_05_1630,Semantic-hierachy,2021.1.2,59.80963765
Trial # 262,layer0-5_O7_to_T4.jpg,layer0-5/layer0-5_O7_to_T4.jpg,OT,layer0-5,,,,,0,111,111,111,,,,,1214.832106,None,1,1.292774564,1214.832106,None,1214.832106,None,1214.832106,None,,,bei,1,2022_Apr_05_1630,Semantic-hierachy,2021.1.2,59.80963765
Trial # 263,layer6-8_T12_to_T8.jpg,layer6-8/layer6-8_T12_to_T8.jpg,TT,layer6-8,,,,,0,112,112,112,,,,,1216.217109,None,2,2.124659965,1216.217109,None,1216.217109,None,1216.217109,None,,,bei,1,2022_Apr_05_1630,Semantic-hierachy,2021.1.2,59.80963765
Trial # 264,layer6-8_O4_to_O9.jpg,layer6-8/layer6-8_O4_to_O9.jpg,OO,layer6-8,,,,,0,113,113,113,,,,,1218.449917,None,3,2.475746053,1218.449917,None,1218.449917,None,1218.449917,None,,,bei,1,2022_Apr_05_1630,Semantic-hierachy,2021.1.2,59.80963765
Trial # 265,layer0-5_T1_to_T5.jpg,layer0-5/layer0-5_T1_to_T5.jpg,TT,layer0-5,,,,,0,114,114,114,,,,,1221.033155,None,1,1.962140135,1221.033155,None,1221.033155,None,1221.033155,None,,,bei,1,2022_Apr_05_1630,Semantic-hierachy,2021.1.2,59.80963765
Trial # 266,layer0-5_O12_to_O7.jpg,layer0-5/layer0-5_O12_to_O7.jpg,OO,layer0-5,,,,,0,115,115,115,,,,,1223.08528,None,1,1.16290254,1223.08528,None,1223.08528,None,1223.08528,None,,,bei,1,2022_Apr_05_1630,Semantic-hierachy,2021.1.2,59.80963765
Trial # 267,layer6-8_T8_to_T9.jpg,layer6-8/layer6-8_T8_to_T9.jpg,TT,layer6-8,,,,,0,116,116,116,,,,,1224.351464,None,4,5.901111354,1224.351464,None,1224.351464,None,1224.351464,None,,,bei,1,2022_Apr_05_1630,Semantic-hierachy,2021.1.2,59.80963765
Trial # 268,layer9-17_O11_to_T10.jpg,layer9-17/layer9-17_O11_to_T10.jpg,OT,layer9-17,,,,,0,117,117,117,,,,,1230.369947,None,2,1.48728067,1230.369947,None,1230.369947,None,1230.369947,None,,,bei,1,2022_Apr_05_1630,Semantic-hierachy,2021.1.2,59.80963765
Trial # 269,layer0-5_O8_to_T9.jpg,layer0-5/layer0-5_O8_to_T9.jpg,OT,layer0-5,,,,,0,118,118,118,,,,,1231.954564,None,1,1.5787407,1231.954564,None,1231.954564,None,1231.954564,None,,,bei,1,2022_Apr_05_1630,Semantic-hierachy,2021.1.2,59.80963765
Trial # 270,layer9-17_O10_to_O11.jpg,layer9-17/layer9-17_O10_to_O11.jpg,OO,layer9-17,,,,,0,119,119,119,,,,,1233.638555,None,3,2.165593423,1233.638555,None,1233.638555,None,1233.638555,None,,,bei,1,2022_Apr_05_1630,Semantic-hierachy,2021.1.2,59.80963765
Trial # 271,layer0-5_T1_to_T9.jpg,layer0-5/layer0-5_T1_to_T9.jpg,TT,layer0-5,,,,,0,120,120,120,,,,,1235.921687,None,1,1.406883648,1235.921687,None,1235.921687,None,1235.921687,None,,,bei,1,2022_Apr_05_1630,Semantic-hierachy,2021.1.2,59.80963765
Trial # 272,layer6-8_T11_to_T8.jpg,layer6-8/layer6-8_T11_to_T8.jpg,TT,layer6-8,,,,,0,121,121,121,,,,,1237.489559,None,3,3.244764929,1237.489559,None,1237.489559,None,1237.489559,None,,,bei,1,2022_Apr_05_1630,Semantic-hierachy,2021.1.2,59.80963765
Trial # 273,layer9-17_O10_to_O12.jpg,layer9-17/layer9-17_O10_to_O12.jpg,OO,layer9-17,,,,,0,122,122,122,,,,,1240.840031,None,2,1.943255647,1240.840031,None,1240.840031,None,1240.840031,None,,,bei,1,2022_Apr_05_1630,Semantic-hierachy,2021.1.2,59.80963765
Trial # 274,layer0-5_T12_to_T6.jpg,layer0-5/layer0-5_T12_to_T6.jpg,TT,layer0-5,,,,,0,123,123,123,,,,,1242.874224,None,1,1.763650189,1242.874224,None,1242.874224,None,1242.874224,None,,,bei,1,2022_Apr_05_1630,Semantic-hierachy,2021.1.2,59.80963765
Trial # 275,layer9-17_O11_to_O5.jpg,layer9-17/layer9-17_O11_to_O5.jpg,OO,layer9-17,,,,,0,124,124,124,,,,,1244.741312,None,2,3.464253178,1244.741312,None,1244.741312,None,1244.741312,None,,,bei,1,2022_Apr_05_1630,Semantic-hierachy,2021.1.2,59.80963765
Trial # 276,layer9-17_O1_to_O4.jpg,layer9-17/layer9-17_O1_to_O4.jpg,OO,layer9-17,,,,,0,125,125,125,,,,,1248.326711,None,3,5.170737053,1248.326711,None,1248.326711,None,1248.326711,None,,,bei,1,2022_Apr_05_1630,Semantic-hierachy,2021.1.2,59.80963765
Trial # 277,layer6-8_O11_to_O3.jpg,layer6-8/layer6-8_O11_to_O3.jpg,OO,layer6-8,,,,,0,126,126,126,,,,,1253.611904,None,2,2.711735584,1253.611904,None,1253.611904,None,1253.611904,None,,,bei,1,2022_Apr_05_1630,Semantic-hierachy,2021.1.2,59.80963765
Trial # 278,layer6-8_T10_to_T11.jpg,layer6-8/layer6-8_T10_to_T11.jpg,TT,layer6-8,,,,,0,127,127,127,,,,,1256.428372,None,3,3.680649616,1256.428372,None,1256.428372,None,1256.428372,None,,,bei,1,2022_Apr_05_1630,Semantic-hierachy,2021.1.2,59.80963765
Trial # 279,layer0-5_O7_to_T3.jpg,layer0-5/layer0-5_O7_to_T3.jpg,OT,layer0-5,,,,,0,128,128,128,,,,,1260.212769,None,1,1.431230793,1260.212769,None,1260.212769,None,1260.212769,None,,,bei,1,2022_Apr_05_1630,Semantic-hierachy,2021.1.2,59.80963765
Trial # 280,layer9-17_T1_to_T10.jpg,layer9-17/layer9-17_T1_to_T10.jpg,TT,layer9-17,,,,,0,129,129,129,,,,,1261.764062,None,2,2.077158536,1261.764062,None,1261.764062,None,1261.764062,None,,,bei,1,2022_Apr_05_1630,Semantic-hierachy,2021.1.2,59.80963765
Trial # 281,layer9-17_O6_to_T7.jpg,layer9-17/layer9-17_O6_to_T7.jpg,OT,layer9-17,,,,,0,130,130,130,,,,,1263.947024,None,2,1.291119391,1263.947024,None,1263.947024,None,1263.947024,None,,,bei,1,2022_Apr_05_1630,Semantic-hierachy,2021.1.2,59.80963765
Trial # 282,layer0-5_O10_to_O7.jpg,layer0-5/layer0-5_O10_to_O7.jpg,OO,layer0-5,,,,,0,131,131,131,,,,,1265.347311,None,1,1.736822878,1265.347311,None,1265.347311,None,1265.347311,None,,,bei,1,2022_Apr_05_1630,Semantic-hierachy,2021.1.2,59.80963765
Trial # 283,layer0-5_O1_to_O11.jpg,layer0-5/layer0-5_O1_to_O11.jpg,OO,layer0-5,,,,,0,132,132,132,,,,,1267.199065,None,1,1.674683504,1267.199065,None,1267.199065,None,1267.199065,None,,,bei,1,2022_Apr_05_1630,Semantic-hierachy,2021.1.2,59.80963765
Trial # 284,layer6-8_O7_to_O8.jpg,layer6-8/layer6-8_O7_to_O8.jpg,OO,layer6-8,,,,,0,133,133,133,,,,,1268.965489,None,2,2.329740958,1268.965489,None,1268.965489,None,1268.965489,None,,,bei,1,2022_Apr_05_1630,Semantic-hierachy,2021.1.2,59.80963765
Trial # 285,layer0-5_T7_to_T8.jpg,layer0-5/layer0-5_T7_to_T8.jpg,TT,layer0-5,,,,,0,134,134,134,,,,,1271.400346,None,1,10.08138537,1271.400346,None,1271.400346,None,1271.400346,None,,,bei,1,2022_Apr_05_1630,Semantic-hierachy,2021.1.2,59.80963765
Trial # 286,layer9-17_T11_to_T6.jpg,layer9-17/layer9-17_T11_to_T6.jpg,TT,layer9-17,,,,,0,135,135,135,,,,,1281.587061,None,3,1.9790195,1281.587061,None,1281.587061,None,1281.587061,None,,,bei,1,2022_Apr_05_1630,Semantic-hierachy,2021.1.2,59.80963765
Trial # 287,layer0-5_T2_to_T7.jpg,layer0-5/layer0-5_T2_to_T7.jpg,TT,layer0-5,,,,,0,136,136,136,,,,,1283.68639,None,1,1.628761638,1283.68639,None,1283.68639,None,1283.68639,None,,,bei,1,2022_Apr_05_1630,Semantic-hierachy,2021.1.2,59.80963765
Trial # 288,layer9-17_O10_to_O2.jpg,layer9-17/layer9-17_O10_to_O2.jpg,OO,layer9-17,,,,,0,137,137,137,,,,,1285.403542,None,2,2.922837679,1285.403542,None,1285.403542,None,1285.403542,None,,,bei,1,2022_Apr_05_1630,Semantic-hierachy,2021.1.2,59.80963765
Trial # 289,layer0-5_T10_to_T9.jpg,layer0-5/layer0-5_T10_to_T9.jpg,TT,layer0-5,,,,,0,138,138,138,,,,,1288.42148,None,1,3.967623697,1288.42148,None,1288.42148,None,1288.42148,None,,,bei,1,2022_Apr_05_1630,Semantic-hierachy,2021.1.2,59.80963765
Trial # 290,layer6-8_O11_to_O5.jpg,layer6-8/layer6-8_O11_to_O5.jpg,OO,layer6-8,,,,,0,139,139,139,,,,,1292.489579,None,2,10.81829506,1292.489579,None,1292.489579,None,1292.489579,None,,,bei,1,2022_Apr_05_1630,Semantic-hierachy,2021.1.2,59.80963765
Trial # 291,layer6-8_O3_to_O7.jpg,layer6-8/layer6-8_O3_to_O7.jpg,OO,layer6-8,,,,,0,140,140,140,,,,,1303.426659,None,2,2.777165146,1303.426659,None,1303.426659,None,1303.426659,None,,,bei,1,2022_Apr_05_1630,Semantic-hierachy,2021.1.2,59.80963765
Trial # 292,layer9-17_O12_to_T11.jpg,layer9-17/layer9-17_O12_to_T11.jpg,OT,layer9-17,,,,,0,141,141,141,,,,,1306.293728,None,2,1.433170811,1306.293728,None,1306.293728,None,1306.293728,None,,,bei,1,2022_Apr_05_1630,Semantic-hierachy,2021.1.2,59.80963765
Trial # 293,layer9-17_O2_to_O4.jpg,layer9-17/layer9-17_O2_to_O4.jpg,OO,layer9-17,,,,,0,142,142,142,,,,,1307.827649,None,3,1.993444073,1307.827649,None,1307.827649,None,1307.827649,None,,,bei,1,2022_Apr_05_1630,Semantic-hierachy,2021.1.2,59.80963765
Trial # 294,layer6-8_O1_to_T12.jpg,layer6-8/layer6-8_O1_to_T12.jpg,OT,layer6-8,,,,,0,143,143,143,,,,,1309.927646,None,3,1.810582592,1309.927646,None,1309.927646,None,1309.927646,None,,,bei,1,2022_Apr_05_1630,Semantic-hierachy,2021.1.2,59.80963765
Trial # 295,layer9-17_O11_to_T5.jpg,layer9-17/layer9-17_O11_to_T5.jpg,OT,layer9-17,,,,,0,144,144,144,,,,,1311.845683,None,3,2.509806218,1311.845683,None,1311.845683,None,1311.845683,None,,,bei,1,2022_Apr_05_1630,Semantic-hierachy,2021.1.2,59.80963765
Trial # 296,layer0-5_O10_to_O9.jpg,layer0-5/layer0-5_O10_to_O9.jpg,OO,layer0-5,,,,,0,145,145,145,,,,,1314.446049,None,1,1.582190715,1314.446049,None,1314.446049,None,1314.446049,None,,,bei,1,2022_Apr_05_1630,Semantic-hierachy,2021.1.2,59.80963765
Trial # 297,layer6-8_O12_to_T10.jpg,layer6-8/layer6-8_O12_to_T10.jpg,OT,layer6-8,,,,,0,146,146,146,,,,,1316.129985,None,3,1.664688579,1316.129985,None,1316.129985,None,1316.129985,None,,,bei,1,2022_Apr_05_1630,Semantic-hierachy,2021.1.2,59.80963765
Trial # 298,layer6-8_O3_to_T2.jpg,layer6-8/layer6-8_O3_to_T2.jpg,OT,layer6-8,,,,,0,147,147,147,,,,,1317.89838,None,3,2.065212926,1317.89838,None,1317.89838,None,1317.89838,None,,,bei,1,2022_Apr_05_1630,Semantic-hierachy,2021.1.2,59.80963765
Trial # 299,layer9-17_O2_to_T5.jpg,layer9-17/layer9-17_O2_to_T5.jpg,OT,layer9-17,,,,,0,148,148,148,,,,,1320.081162,None,3,1.376676971,1320.081162,None,1320.081162,None,1320.081162,None,,,bei,1,2022_Apr_05_1630,Semantic-hierachy,2021.1.2,59.80963765
Trial # 300,layer0-5_O3_to_T7.jpg,layer0-5/layer0-5_O3_to_T7.jpg,OT,layer0-5,,,,,0,149,149,149,,,,,1321.548575,None,1,1.998056058,1321.548575,None,1321.548575,None,1321.548575,None,,,bei,1,2022_Apr_05_1630,Semantic-hierachy,2021.1.2,59.80963765
Trial # 301,layer9-17_O11_to_O6.jpg,layer9-17/layer9-17_O11_to_O6.jpg,OO,layer9-17,,,,,,,,,0,0,0,0,1329.534033,None,2,2.692628538,1329.534033,None,1329.534033,None,1329.534033,None,,,bei,1,2022_Apr_05_1630,Semantic-hierachy,2021.1.2,59.80963765
Trial # 302,layer0-5_O3_to_O7.jpg,layer0-5/layer0-5_O3_to_O7.jpg,OO,layer0-5,,,,,,,,,0,1,1,1,1332.335086,None,1,2.708048833,1332.335086,None,1332.335086,None,1332.335086,None,,,bei,1,2022_Apr_05_1630,Semantic-hierachy,2021.1.2,59.80963765
Trial # 303,layer6-8_O11_to_T3.jpg,layer6-8/layer6-8_O11_to_T3.jpg,OT,layer6-8,,,,,,,,,0,2,2,2,1335.135472,None,3,1.743119735,1335.135472,None,1335.135472,None,1335.135472,None,,,bei,1,2022_Apr_05_1630,Semantic-hierachy,2021.1.2,59.80963765
Trial # 304,layer6-8_O2_to_T7.jpg,layer6-8/layer6-8_O2_to_T7.jpg,OT,layer6-8,,,,,,,,,0,3,3,3,1336.987347,None,3,6.096706201,1336.987347,None,1336.987347,None,1336.987347,None,,,bei,1,2022_Apr_05_1630,Semantic-hierachy,2021.1.2,59.80963765
Trial # 305,layer0-5_T1_to_T7.jpg,layer0-5/layer0-5_T1_to_T7.jpg,TT,layer0-5,,,,,,,,,0,4,4,4,1343.171323,None,1,1.410979615,1343.171323,None,1343.171323,None,1343.171323,None,,,bei,1,2022_Apr_05_1630,Semantic-hierachy,2021.1.2,59.80963765
Trial # 306,layer6-8_O7_to_T11.jpg,layer6-8/layer6-8_O7_to_T11.jpg,OT,layer6-8,,,,,,,,,0,5,5,5,1344.688899,None,3,1.681004346,1344.688899,None,1344.688899,None,1344.688899,None,,,bei,1,2022_Apr_05_1630,Semantic-hierachy,2021.1.2,59.80963765
Trial # 307,layer9-17_O5_to_T5.jpg,layer9-17/layer9-17_O5_to_T5.jpg,OT,layer9-17,,,,,,,,,0,6,6,6,1346.473494,None,2,2.278998073,1346.473494,None,1346.473494,None,1346.473494,None,,,bei,1,2022_Apr_05_1630,Semantic-hierachy,2021.1.2,59.80963765
Trial # 308,layer9-17_T12_to_T5.jpg,layer9-17/layer9-17_T12_to_T5.jpg,TT,layer9-17,,,,,,,,,0,7,7,7,1348.873789,None,2,1.905358795,1348.873789,None,1348.873789,None,1348.873789,None,,,bei,1,2022_Apr_05_1630,Semantic-hierachy,2021.1.2,59.80963765
Trial # 309,layer6-8_O11_to_O2.jpg,layer6-8/layer6-8_O11_to_O2.jpg,OO,layer6-8,,,,,,,,,0,8,8,8,1350.890197,None,2,2.793536103,1350.890197,None,1350.890197,None,1350.890197,None,,,bei,1,2022_Apr_05_1630,Semantic-hierachy,2021.1.2,59.80963765
Trial # 310,layer6-8_O10_to_O7.jpg,layer6-8/layer6-8_O10_to_O7.jpg,OO,layer6-8,,,,,,,,,0,9,9,9,1353.79168,None,2,1.290093736,1353.79168,None,1353.79168,None,1353.79168,None,,,bei,1,2022_Apr_05_1630,Semantic-hierachy,2021.1.2,59.80963765
Trial # 311,layer9-17_O10_to_T11.jpg,layer9-17/layer9-17_O10_to_T11.jpg,OT,layer9-17,,,,,,,,,0,10,10,10,1355.175662,None,2,0.992476329,1355.175662,None,1355.175662,None,1355.175662,None,,,bei,1,2022_Apr_05_1630,Semantic-hierachy,2021.1.2,59.80963765
Trial # 312,layer6-8_O11_to_O12.jpg,layer6-8/layer6-8_O11_to_O12.jpg,OO,layer6-8,,,,,,,,,0,11,11,11,1356.260303,None,3,3.730007507,1356.260303,None,1356.260303,None,1356.260303,None,,,bei,1,2022_Apr_05_1630,Semantic-hierachy,2021.1.2,59.80963765
Trial # 313,layer9-17_O9_to_T8.jpg,layer9-17/layer9-17_O9_to_T8.jpg,OT,layer9-17,,,,,,,,,0,12,12,12,1360.09402,None,2,3.521842545,1360.09402,None,1360.09402,None,1360.09402,None,,,bei,1,2022_Apr_05_1630,Semantic-hierachy,2021.1.2,59.80963765
Trial # 314,layer0-5_O3_to_T2.jpg,layer0-5/layer0-5_O3_to_T2.jpg,OT,layer0-5,,,,,,,,,0,13,13,13,1363.728047,None,1,2.226538737,1363.728047,None,1363.728047,None,1363.728047,None,,,bei,1,2022_Apr_05_1630,Semantic-hierachy,2021.1.2,59.80963765
Trial # 315,layer9-17_T1_to_T11.jpg,layer9-17/layer9-17_T1_to_T11.jpg,TT,layer9-17,,,,,,,,,0,14,14,14,1366.044919,None,2,1.71596716,1366.044919,None,1366.044919,None,1366.044919,None,,,bei,1,2022_Apr_05_1630,Semantic-hierachy,2021.1.2,59.80963765
Trial # 316,layer6-8_T10_to_T7.jpg,layer6-8/layer6-8_T10_to_T7.jpg,TT,layer6-8,,,,,,,,,0,15,15,15,1367.863356,None,3,2.278431833,1367.863356,None,1367.863356,None,1367.863356,None,,,bei,1,2022_Apr_05_1630,Semantic-hierachy,2021.1.2,59.80963765
Trial # 317,layer0-5_T6_to_T7.jpg,layer0-5/layer0-5_T6_to_T7.jpg,TT,layer0-5,,,,,,,,,0,16,16,16,1370.246633,None,1,2.40217762,1370.246633,None,1370.246633,None,1370.246633,None,,,bei,1,2022_Apr_05_1630,Semantic-hierachy,2021.1.2,59.80963765
Trial # 318,layer9-17_O1_to_T3.jpg,layer9-17/layer9-17_O1_to_T3.jpg,OT,layer9-17,,,,,,,,,0,17,17,17,1372.748619,None,2,3.296785026,1372.748619,None,1372.748619,None,1372.748619,None,,,bei,1,2022_Apr_05_1630,Semantic-hierachy,2021.1.2,59.80963765
Trial # 319,layer0-5_O2_to_T5.jpg,layer0-5/layer0-5_O2_to_T5.jpg,OT,layer0-5,,,,,,,,,0,18,18,18,1376.148386,None,1,1.830675506,1376.148386,None,1376.148386,None,1376.148386,None,,,bei,1,2022_Apr_05_1630,Semantic-hierachy,2021.1.2,59.80963765
Trial # 320,layer6-8_O7_to_T10.jpg,layer6-8/layer6-8_O7_to_T10.jpg,OT,layer6-8,,,,,,,,,0,19,19,19,1378.082812,None,3,2.295448398,1378.082812,None,1378.082812,None,1378.082812,None,,,bei,1,2022_Apr_05_1630,Semantic-hierachy,2021.1.2,59.80963765
Trial # 321,layer0-5_O5_to_O6.jpg,layer0-5/layer0-5_O5_to_O6.jpg,OO,layer0-5,,,,,,,,,0,20,20,20,1380.499939,None,1,1.82519027,1380.499939,None,1380.499939,None,1380.499939,None,,,bei,1,2022_Apr_05_1630,Semantic-hierachy,2021.1.2,59.80963765
Trial # 322,layer9-17_O5_to_T4.jpg,layer9-17/layer9-17_O5_to_T4.jpg,OT,layer9-17,,,,,,,,,0,21,21,21,1382.418247,None,1,1.34795298,1382.418247,None,1382.418247,None,1382.418247,None,,,bei,1,2022_Apr_05_1630,Semantic-hierachy,2021.1.2,59.80963765
Trial # 323,layer0-5_T12_to_T2.jpg,layer0-5/layer0-5_T12_to_T2.jpg,TT,layer0-5,,,,,,,,,0,22,22,22,1383.867568,None,1,1.780114213,1383.867568,None,1383.867568,None,1383.867568,None,,,bei,1,2022_Apr_05_1630,Semantic-hierachy,2021.1.2,59.80963765
Trial # 324,layer0-5_O2_to_O4.jpg,layer0-5/layer0-5_O2_to_O4.jpg,OO,layer0-5,,,,,,,,,0,23,23,23,1385.751171,None,1,1.884311024,1385.751171,None,1385.751171,None,1385.751171,None,,,bei,1,2022_Apr_05_1630,Semantic-hierachy,2021.1.2,59.80963765
Trial # 325,layer6-8_O1_to_O9.jpg,layer6-8/layer6-8_O1_to_O9.jpg,OO,layer6-8,,,,,,,,,0,24,24,24,1387.735664,None,3,5.663112208,1387.735664,None,1387.735664,None,1387.735664,None,,,bei,1,2022_Apr_05_1630,Semantic-hierachy,2021.1.2,59.80963765
Trial # 326,layer0-5_T3_to_T5.jpg,layer0-5/layer0-5_T3_to_T5.jpg,TT,layer0-5,,,,,,,,,0,25,25,25,1393.504582,None,1,4.645695962,1393.504582,None,1393.504582,None,1393.504582,None,,,bei,1,2022_Apr_05_1630,Semantic-hierachy,2021.1.2,59.80963765
Trial # 327,layer6-8_O8_to_T12.jpg,layer6-8/layer6-8_O8_to_T12.jpg,OT,layer6-8,,,,,,,,,0,26,26,26,1398.273448,None,3,1.627612153,1398.273448,None,1398.273448,None,1398.273448,None,,,bei,1,2022_Apr_05_1630,Semantic-hierachy,2021.1.2,59.80963765
Trial # 328,layer9-17_T11_to_T4.jpg,layer9-17/layer9-17_T11_to_T4.jpg,TT,layer9-17,,,,,,,,,0,27,27,27,1399.988815,None,3,2.115389105,1399.988815,None,1399.988815,None,1399.988815,None,,,bei,1,2022_Apr_05_1630,Semantic-hierachy,2021.1.2,59.80963765
Trial # 329,layer9-17_O6_to_T2.jpg,layer9-17/layer9-17_O6_to_T2.jpg,OT,layer9-17,,,,,,,,,0,28,28,28,1402.206833,None,1,1.83078281,1402.206833,None,1402.206833,None,1402.206833,None,,,bei,1,2022_Apr_05_1630,Semantic-hierachy,2021.1.2,59.80963765
Trial # 330,layer9-17_T10_to_T9.jpg,layer9-17/layer9-17_T10_to_T9.jpg,TT,layer9-17,,,,,,,,,0,29,29,29,1404.140368,None,3,7.293802421,1404.140368,None,1404.140368,None,1404.140368,None,,,bei,1,2022_Apr_05_1630,Semantic-hierachy,2021.1.2,59.80963765
Trial # 331,layer0-5_O2_to_O3.jpg,layer0-5/layer0-5_O2_to_O3.jpg,OO,layer0-5,,,,,,,,,0,30,30,30,1411.526171,None,1,1.583127259,1411.526171,None,1411.526171,None,1411.526171,None,,,bei,1,2022_Apr_05_1630,Semantic-hierachy,2021.1.2,59.80963765
Trial # 332,layer6-8_O1_to_O12.jpg,layer6-8/layer6-8_O1_to_O12.jpg,OO,layer6-8,,,,,,,,,0,31,31,31,1413.209988,None,3,2.678211583,1413.209988,None,1413.209988,None,1413.209988,None,,,bei,1,2022_Apr_05_1630,Semantic-hierachy,2021.1.2,59.80963765
Trial # 333,layer0-5_O5_to_T12.jpg,layer0-5/layer0-5_O5_to_T12.jpg,OT,layer0-5,,,,,,,,,0,32,32,32,1415.993663,None,1,2.49686957,1415.993663,None,1415.993663,None,1415.993663,None,,,bei,1,2022_Apr_05_1630,Semantic-hierachy,2021.1.2,59.80963765
Trial # 334,layer9-17_O11_to_T6.jpg,layer9-17/layer9-17_O11_to_T6.jpg,OT,layer9-17,,,,,,,,,0,33,33,33,1418.594674,None,3,24.07131693,1418.594674,None,1418.594674,None,1418.594674,None,,,bei,1,2022_Apr_05_1630,Semantic-hierachy,2021.1.2,59.80963765
Trial # 335,layer0-5_O4_to_T1.jpg,layer0-5/layer0-5_O4_to_T1.jpg,OT,layer0-5,,,,,,,,,0,34,34,34,1442.803465,None,1,1.863735683,1442.803465,None,1442.803465,None,1442.803465,None,,,bei,1,2022_Apr_05_1630,Semantic-hierachy,2021.1.2,59.80963765
Trial # 336,layer6-8_T1_to_T6.jpg,layer6-8/layer6-8_T1_to_T6.jpg,TT,layer6-8,,,,,,,,,0,35,35,35,1444.786249,None,3,2.226288859,1444.786249,None,1444.786249,None,1444.786249,None,,,bei,1,2022_Apr_05_1630,Semantic-hierachy,2021.1.2,59.80963765
Trial # 337,layer0-5_O12_to_O6.jpg,layer0-5/layer0-5_O12_to_O6.jpg,OO,layer0-5,,,,,,,,,0,36,36,36,1447.104387,None,1,1.399085254,1447.104387,None,1447.104387,None,1447.104387,None,,,bei,1,2022_Apr_05_1630,Semantic-hierachy,2021.1.2,59.80963765
Trial # 338,layer0-5_O1_to_O10.jpg,layer0-5/layer0-5_O1_to_O10.jpg,OO,layer0-5,,,,,,,,,0,37,37,37,1448.604016,None,1,1.250581782,1448.604016,None,1448.604016,None,1448.604016,None,,,bei,1,2022_Apr_05_1630,Semantic-hierachy,2021.1.2,59.80963765
Trial # 339,layer0-5_O9_to_T9.jpg,layer0-5/layer0-5_O9_to_T9.jpg,OT,layer0-5,,,,,,,,,0,38,38,38,1449.971707,None,1,1.441584694,1449.971707,None,1449.971707,None,1449.971707,None,,,bei,1,2022_Apr_05_1630,Semantic-hierachy,2021.1.2,59.80963765
Trial # 340,layer6-8_O6_to_T10.jpg,layer6-8/layer6-8_O6_to_T10.jpg,OT,layer6-8,,,,,,,,,0,39,39,39,1451.522134,None,3,1.598001969,1451.522134,None,1451.522134,None,1451.522134,None,,,bei,1,2022_Apr_05_1630,Semantic-hierachy,2021.1.2,59.80963765
Trial # 341,layer9-17_O3_to_T3.jpg,layer9-17/layer9-17_O3_to_T3.jpg,OT,layer9-17,,,,,,,,,0,40,40,40,1453.222886,None,2,1.413898617,1453.222886,None,1453.222886,None,1453.222886,None,,,bei,1,2022_Apr_05_1630,Semantic-hierachy,2021.1.2,59.80963765
Trial # 342,layer0-5_O8_to_T8.jpg,layer0-5/layer0-5_O8_to_T8.jpg,OT,layer0-5,,,,,,,,,0,41,41,41,1454.75566,None,1,1.828368771,1454.75566,None,1454.75566,None,1454.75566,None,,,bei,1,2022_Apr_05_1630,Semantic-hierachy,2021.1.2,59.80963765
Trial # 343,layer9-17_O11_to_O3.jpg,layer9-17/layer9-17_O11_to_O3.jpg,OO,layer9-17,,,,,,,,,0,42,42,42,1456.690083,None,2,1.56176588,1456.690083,None,1456.690083,None,1456.690083,None,,,bei,1,2022_Apr_05_1630,Semantic-hierachy,2021.1.2,59.80963765
Trial # 344,layer9-17_O10_to_T12.jpg,layer9-17/layer9-17_O10_to_T12.jpg,OT,layer9-17,,,,,,,,,0,43,43,43,1458.341334,None,3,3.131760093,1458.341334,None,1458.341334,None,1458.341334,None,,,bei,1,2022_Apr_05_1630,Semantic-hierachy,2021.1.2,59.80963765
Trial # 345,layer6-8_T3_to_T6.jpg,layer6-8/layer6-8_T3_to_T6.jpg,TT,layer6-8,,,,,,,,,0,44,44,44,1461.575288,None,3,2.196569181,1461.575288,None,1461.575288,None,1461.575288,None,,,bei,1,2022_Apr_05_1630,Semantic-hierachy,2021.1.2,59.80963765
Trial # 346,layer6-8_O1_to_O4.jpg,layer6-8/layer6-8_O1_to_O4.jpg,OO,layer6-8,,,,,,,,,0,45,45,45,1463.875991,None,3,3.913568974,1463.875991,None,1463.875991,None,1463.875991,None,,,bei,1,2022_Apr_05_1630,Semantic-hierachy,2021.1.2,59.80963765
Trial # 347,layer0-5_O8_to_T3.jpg,layer0-5/layer0-5_O8_to_T3.jpg,OT,layer0-5,,,,,,,,,0,46,46,46,1467.927742,None,1,1.435510839,1467.927742,None,1467.927742,None,1467.927742,None,,,bei,1,2022_Apr_05_1630,Semantic-hierachy,2021.1.2,59.80963765
Trial # 348,layer9-17_T2_to_T7.jpg,layer9-17/layer9-17_T2_to_T7.jpg,TT,layer9-17,,,,,,,,,0,47,47,47,1469.461206,None,3,2.014221408,1469.461206,None,1469.461206,None,1469.461206,None,,,bei,1,2022_Apr_05_1630,Semantic-hierachy,2021.1.2,59.80963765
Trial # 349,layer0-5_O9_to_T4.jpg,layer0-5/layer0-5_O9_to_T4.jpg,OT,layer0-5,,,,,,,,,0,48,48,48,1471.594975,None,1,4.192569345,1471.594975,None,1471.594975,None,1471.594975,None,,,bei,1,2022_Apr_05_1630,Semantic-hierachy,2021.1.2,59.80963765
Trial # 350,layer9-17_T12_to_T9.jpg,layer9-17/layer9-17_T12_to_T9.jpg,TT,layer9-17,,,,,,,,,0,49,49,49,1475.878927,None,2,4.398815449,1475.878927,None,1475.878927,None,1475.878927,None,,,bei,1,2022_Apr_05_1630,Semantic-hierachy,2021.1.2,59.80963765
Trial # 351,layer6-8_O11_to_O6.jpg,layer6-8/layer6-8_O11_to_O6.jpg,OO,layer6-8,,,,,,,,,0,50,50,50,1480.396735,None,2,2.895594126,1480.396735,None,1480.396735,None,1480.396735,None,,,bei,1,2022_Apr_05_1630,Semantic-hierachy,2021.1.2,59.80963765
Trial # 352,layer0-5_O10_to_O11.jpg,layer0-5/layer0-5_O10_to_O11.jpg,OO,layer0-5,,,,,,,,,0,51,51,51,1483.381785,None,1,2.628948899,1483.381785,None,1483.381785,None,1483.381785,None,,,bei,1,2022_Apr_05_1630,Semantic-hierachy,2021.1.2,59.80963765
Trial # 353,layer9-17_O4_to_T7.jpg,layer9-17/layer9-17_O4_to_T7.jpg,OT,layer9-17,,,,,,,,,0,52,52,52,1486.131446,None,2,5.293675977,1486.131446,None,1486.131446,None,1486.131446,None,,,bei,1,2022_Apr_05_1630,Semantic-hierachy,2021.1.2,59.80963765
Trial # 354,layer0-5_O2_to_T11.jpg,layer0-5/layer0-5_O2_to_T11.jpg,OT,layer0-5,,,,,,,,,0,53,53,53,1491.518592,None,1,1.930939109,1491.518592,None,1491.518592,None,1491.518592,None,,,bei,1,2022_Apr_05_1630,Semantic-hierachy,2021.1.2,59.80963765
Trial # 355,layer9-17_O5_to_O6.jpg,layer9-17/layer9-17_O5_to_O6.jpg,OO,layer9-17,,,,,,,,,0,54,54,54,1493.55138,None,2,3.916979137,1493.55138,None,1493.55138,None,1493.55138,None,,,bei,1,2022_Apr_05_1630,Semantic-hierachy,2021.1.2,59.80963765
Trial # 356,layer6-8_O5_to_T10.jpg,layer6-8/layer6-8_O5_to_T10.jpg,OT,layer6-8,,,,,,,,,0,55,55,55,1497.585648,None,3,5.56225679,1497.585648,None,1497.585648,None,1497.585648,None,,,bei,1,2022_Apr_05_1630,Semantic-hierachy,2021.1.2,59.80963765
Trial # 357,layer6-8_T3_to_T4.jpg,layer6-8/layer6-8_T3_to_T4.jpg,TT,layer6-8,,,,,,,,,0,56,56,56,1503.254456,None,3,1.67719905,1503.254456,None,1503.254456,None,1503.254456,None,,,bei,1,2022_Apr_05_1630,Semantic-hierachy,2021.1.2,59.80963765
Trial # 358,layer6-8_T4_to_T8.jpg,layer6-8/layer6-8_T4_to_T8.jpg,TT,layer6-8,,,,,,,,,0,57,57,57,1505.021124,None,3,2.350799091,1505.021124,None,1505.021124,None,1505.021124,None,,,bei,1,2022_Apr_05_1630,Semantic-hierachy,2021.1.2,59.80963765
Trial # 359,layer0-5_O2_to_T4.jpg,layer0-5/layer0-5_O2_to_T4.jpg,OT,layer0-5,,,,,,,,,0,58,58,58,1507.473354,None,1,1.499457459,1507.473354,None,1507.473354,None,1507.473354,None,,,bei,1,2022_Apr_05_1630,Semantic-hierachy,2021.1.2,59.80963765
Trial # 360,layer0-5_O4_to_O7.jpg,layer0-5/layer0-5_O4_to_O7.jpg,OO,layer0-5,,,,,,,,,0,59,59,59,1509.089195,None,1,1.204613333,1509.089195,None,1509.089195,None,1509.089195,None,,,bei,1,2022_Apr_05_1630,Semantic-hierachy,2021.1.2,59.80963765
Trial # 361,layer9-17_O12_to_T7.jpg,layer9-17/layer9-17_O12_to_T7.jpg,OT,layer9-17,,,,,,,,,0,60,60,60,1510.38935,None,2,2.016199319,1510.38935,None,1510.38935,None,1510.38935,None,,,bei,1,2022_Apr_05_1630,Semantic-hierachy,2021.1.2,59.80963765
Trial # 362,layer6-8_O11_to_T8.jpg,layer6-8/layer6-8_O11_to_T8.jpg,OT,layer6-8,,,,,,,,,0,61,61,61,1512.508591,None,3,2.628853343,1512.508591,None,1512.508591,None,1512.508591,None,,,bei,1,2022_Apr_05_1630,Semantic-hierachy,2021.1.2,59.80963765
Trial # 363,layer9-17_O10_to_T6.jpg,layer9-17/layer9-17_O10_to_T6.jpg,OT,layer9-17,,,,,,,,,0,62,62,62,1515.257796,None,3,2.966459317,1515.257796,None,1515.257796,None,1515.257796,None,,,bei,1,2022_Apr_05_1630,Semantic-hierachy,2021.1.2,59.80963765
Trial # 364,layer0-5_O5_to_T7.jpg,layer0-5/layer0-5_O5_to_T7.jpg,OT,layer0-5,,,,,,,,,0,63,63,63,1518.34331,None,1,5.744627215,1518.34331,None,1518.34331,None,1518.34331,None,,,bei,1,2022_Apr_05_1630,Semantic-hierachy,2021.1.2,59.80963765
Trial # 365,layer9-17_O11_to_O2.jpg,layer9-17/layer9-17_O11_to_O2.jpg,OO,layer9-17,,,,,,,,,0,64,64,64,1524.177512,None,3,2.383271431,1524.177512,None,1524.177512,None,1524.177512,None,,,bei,1,2022_Apr_05_1630,Semantic-hierachy,2021.1.2,59.80963765
Trial # 366,layer9-17_O4_to_T10.jpg,layer9-17/layer9-17_O4_to_T10.jpg,OT,layer9-17,,,,,,,,,0,65,65,65,1526.662868,None,2,2.449983641,1526.662868,None,1526.662868,None,1526.662868,None,,,bei,1,2022_Apr_05_1630,Semantic-hierachy,2021.1.2,59.80963765
Trial # 367,layer6-8_T11_to_T5.jpg,layer6-8/layer6-8_T11_to_T5.jpg,TT,layer6-8,,,,,,,,,0,66,66,66,1529.212136,None,2,2.682678864,1529.212136,None,1529.212136,None,1529.212136,None,,,bei,1,2022_Apr_05_1630,Semantic-hierachy,2021.1.2,59.80963765
Trial # 368,layer9-17_O4_to_T5.jpg,layer9-17/layer9-17_O4_to_T5.jpg,OT,layer9-17,,,,,,,,,0,67,67,67,1531.997292,None,2,3.04918901,1531.997292,None,1531.997292,None,1531.997292,None,,,bei,1,2022_Apr_05_1630,Semantic-hierachy,2021.1.2,59.80963765
Trial # 369,layer6-8_T2_to_T7.jpg,layer6-8/layer6-8_T2_to_T7.jpg,TT,layer6-8,,,,,,,,,0,68,68,68,1535.163901,None,3,3.295802926,1535.163901,None,1535.163901,None,1535.163901,None,,,bei,1,2022_Apr_05_1630,Semantic-hierachy,2021.1.2,59.80963765
Trial # 370,layer0-5_O1_to_T2.jpg,layer0-5/layer0-5_O1_to_T2.jpg,OT,layer0-5,,,,,,,,,0,69,69,69,1538.599621,None,1,1.492027225,1538.599621,None,1538.599621,None,1538.599621,None,,,bei,1,2022_Apr_05_1630,Semantic-hierachy,2021.1.2,59.80963765
Trial # 371,layer0-5_O12_to_T3.jpg,layer0-5/layer0-5_O12_to_T3.jpg,OT,layer0-5,,,,,,,,,0,70,70,70,1540.182353,None,1,1.215070012,1540.182353,None,1540.182353,None,1540.182353,None,,,bei,1,2022_Apr_05_1630,Semantic-hierachy,2021.1.2,59.80963765
Trial # 372,layer9-17_O2_to_O3.jpg,layer9-17/layer9-17_O2_to_O3.jpg,OO,layer9-17,,,,,,,,,0,71,71,71,1541.484188,None,3,2.195022989,1541.484188,None,1541.484188,None,1541.484188,None,,,bei,1,2022_Apr_05_1630,Semantic-hierachy,2021.1.2,59.80963765
Trial # 373,layer9-17_O12_to_T2.jpg,layer9-17/layer9-17_O12_to_T2.jpg,OT,layer9-17,,,,,,,,,0,72,72,72,1543.783764,None,3,2.411575277,1543.783764,None,1543.783764,None,1543.783764,None,,,bei,1,2022_Apr_05_1630,Semantic-hierachy,2021.1.2,59.80963765
Trial # 374,layer0-5_O1_to_O12.jpg,layer0-5/layer0-5_O1_to_O12.jpg,OO,layer0-5,,,,,,,,,0,73,73,73,1546.317962,None,3,2.010893753,1546.317962,None,1546.317962,None,1546.317962,None,,,bei,1,2022_Apr_05_1630,Semantic-hierachy,2021.1.2,59.80963765
Trial # 375,layer0-5_O12_to_O9.jpg,layer0-5/layer0-5_O12_to_O9.jpg,OO,layer0-5,,,,,,,,,0,74,74,74,1548.418132,None,1,2.012041203,1548.418132,None,1548.418132,None,1548.418132,None,,,bei,1,2022_Apr_05_1630,Semantic-hierachy,2021.1.2,59.80963765
Trial # 376,layer6-8_T12_to_T2.jpg,layer6-8/layer6-8_T12_to_T2.jpg,TT,layer6-8,,,,,,,,,0,75,75,75,1550.551853,None,3,2.21100409,1550.551853,None,1550.551853,None,1550.551853,None,,,bei,1,2022_Apr_05_1630,Semantic-hierachy,2021.1.2,59.80963765
Trial # 377,layer0-5_O2_to_T7.jpg,layer0-5/layer0-5_O2_to_T7.jpg,OT,layer0-5,,,,,,,,,0,76,76,76,1552.870792,None,1,1.62543357,1552.870792,None,1552.870792,None,1552.870792,None,,,bei,1,2022_Apr_05_1630,Semantic-hierachy,2021.1.2,59.80963765
Trial # 378,layer9-17_T8_to_T9.jpg,layer9-17/layer9-17_T8_to_T9.jpg,TT,layer9-17,,,,,,,,,0,77,77,77,1554.586437,None,3,2.582987003,1554.586437,None,1554.586437,None,1554.586437,None,,,bei,1,2022_Apr_05_1630,Semantic-hierachy,2021.1.2,59.80963765
Trial # 379,layer6-8_T1_to_T4.jpg,layer6-8/layer6-8_T1_to_T4.jpg,TT,layer6-8,,,,,,,,,0,78,78,78,1557.287848,None,3,1.910439645,1557.287848,None,1557.287848,None,1557.287848,None,,,bei,1,2022_Apr_05_1630,Semantic-hierachy,2021.1.2,59.80963765
Trial # 380,layer0-5_O2_to_T6.jpg,layer0-5/layer0-5_O2_to_T6.jpg,OT,layer0-5,,,,,,,,,0,79,79,79,1559.28887,None,1,1.765763652,1559.28887,None,1559.28887,None,1559.28887,None,,,bei,1,2022_Apr_05_1630,Semantic-hierachy,2021.1.2,59.80963765
Trial # 381,layer9-17_T10_to_T4.jpg,layer9-17/layer9-17_T10_to_T4.jpg,TT,layer9-17,,,,,,,,,0,80,80,80,1561.155353,None,3,2.315290596,1561.155353,None,1561.155353,None,1561.155353,None,,,bei,1,2022_Apr_05_1630,Semantic-hierachy,2021.1.2,59.80963765
Trial # 382,layer6-8_O5_to_O7.jpg,layer6-8/layer6-8_O5_to_O7.jpg,OO,layer6-8,,,,,,,,,0,81,81,81,1563.590559,None,2,3.927800836,1563.590559,None,1563.590559,None,1563.590559,None,,,bei,1,2022_Apr_05_1630,Semantic-hierachy,2021.1.2,59.80963765
Trial # 383,layer9-17_O10_to_T7.jpg,layer9-17/layer9-17_O10_to_T7.jpg,OT,layer9-17,,,,,,,,,0,82,82,82,1567.608724,None,2,1.580602513,1567.608724,None,1567.608724,None,1567.608724,None,,,bei,1,2022_Apr_05_1630,Semantic-hierachy,2021.1.2,59.80963765
Trial # 384,layer9-17_T12_to_T6.jpg,layer9-17/layer9-17_T12_to_T6.jpg,TT,layer9-17,,,,,,,,,0,83,83,83,1569.374751,None,2,1.643196285,1569.374751,None,1569.374751,None,1569.374751,None,,,bei,1,2022_Apr_05_1630,Semantic-hierachy,2021.1.2,59.80963765
Trial # 385,layer0-5_O7_to_T10.jpg,layer0-5/layer0-5_O7_to_T10.jpg,OT,layer0-5,,,,,,,,,0,84,84,84,1571.125456,None,1,2.279407359,1571.125456,None,1571.125456,None,1571.125456,None,,,bei,1,2022_Apr_05_1630,Semantic-hierachy,2021.1.2,59.80963765
Trial # 386,layer0-5_O3_to_O6.jpg,layer0-5/layer0-5_O3_to_O6.jpg,OO,layer0-5,,,,,,,,,0,85,85,85,1573.493429,None,1,1.69939831,1573.493429,None,1573.493429,None,1573.493429,None,,,bei,1,2022_Apr_05_1630,Semantic-hierachy,2021.1.2,59.80963765
Trial # 387,layer9-17_O11_to_T12.jpg,layer9-17/layer9-17_O11_to_T12.jpg,OT,layer9-17,,,,,,,,,0,86,86,86,1575.292725,None,3,9.434175775,1575.292725,None,1575.292725,None,1575.292725,None,,,bei,1,2022_Apr_05_1630,Semantic-hierachy,2021.1.2,59.80963765
Trial # 388,layer6-8_O1_to_O10.jpg,layer6-8/layer6-8_O1_to_O10.jpg,OO,layer6-8,,,,,,,,,0,87,87,87,1584.846215,None,3,1.771496025,1584.846215,None,1584.846215,None,1584.846215,None,,,bei,1,2022_Apr_05_1630,Semantic-hierachy,2021.1.2,59.80963765
Trial # 389,layer9-17_O6_to_O7.jpg,layer9-17/layer9-17_O6_to_O7.jpg,OO,layer9-17,,,,,,,,,0,88,88,88,1586.714661,None,2,1.68160147,1586.714661,None,1586.714661,None,1586.714661,None,,,bei,1,2022_Apr_05_1630,Semantic-hierachy,2021.1.2,59.80963765
Trial # 390,layer0-5_T5_to_T6.jpg,layer0-5/layer0-5_T5_to_T6.jpg,TT,layer0-5,,,,,,,,,0,89,89,89,1588.514044,None,1,5.526167995,1588.514044,None,1588.514044,None,1588.514044,None,,,bei,1,2022_Apr_05_1630,Semantic-hierachy,2021.1.2,59.80963765
Trial # 391,layer9-17_O2_to_T12.jpg,layer9-17/layer9-17_O2_to_T12.jpg,OT,layer9-17,,,,,,,,,0,90,90,90,1594.132829,None,3,6.388518221,1594.132829,None,1594.132829,None,1594.132829,None,,,bei,1,2022_Apr_05_1630,Semantic-hierachy,2021.1.2,59.80963765
Trial # 392,layer0-5_T10_to_T7.jpg,layer0-5/layer0-5_T10_to_T7.jpg,TT,layer0-5,,,,,,,,,0,91,91,91,1600.633919,None,1,1.624800517,1600.633919,None,1600.633919,None,1600.633919,None,,,bei,1,2022_Apr_05_1630,Semantic-hierachy,2021.1.2,59.80963765
Trial # 393,layer9-17_O11_to_O8.jpg,layer9-17/layer9-17_O11_to_O8.jpg,OO,layer9-17,,,,,,,,,0,92,92,92,1602.335105,None,2,3.220036236,1602.335105,None,1602.335105,None,1602.335105,None,,,bei,1,2022_Apr_05_1630,Semantic-hierachy,2021.1.2,59.80963765
Trial # 394,layer0-5_T11_to_T8.jpg,layer0-5/layer0-5_T11_to_T8.jpg,TT,layer0-5,,,,,,,,,0,93,93,93,1605.685698,None,1,1.559771267,1605.685698,None,1605.685698,None,1605.685698,None,,,bei,1,2022_Apr_05_1630,Semantic-hierachy,2021.1.2,59.80963765
Trial # 395,layer6-8_T3_to_T7.jpg,layer6-8/layer6-8_T3_to_T7.jpg,TT,layer6-8,,,,,,,,,0,94,94,94,1607.353247,None,3,3.807846519,1607.353247,None,1607.353247,None,1607.353247,None,,,bei,1,2022_Apr_05_1630,Semantic-hierachy,2021.1.2,59.80963765
Trial # 396,layer0-5_T11_to_T4.jpg,layer0-5/layer0-5_T11_to_T4.jpg,TT,layer0-5,,,,,,,,,0,95,95,95,1611.253871,None,1,1.88175101,1611.253871,None,1611.253871,None,1611.253871,None,,,bei,1,2022_Apr_05_1630,Semantic-hierachy,2021.1.2,59.80963765
Trial # 397,layer6-8_O4_to_T1.jpg,layer6-8/layer6-8_O4_to_T1.jpg,OT,layer6-8,,,,,,,,,0,96,96,96,1613.255674,None,3,2.093102255,1613.255674,None,1613.255674,None,1613.255674,None,,,bei,1,2022_Apr_05_1630,Semantic-hierachy,2021.1.2,59.80963765
Trial # 398,layer9-17_O3_to_T5.jpg,layer9-17/layer9-17_O3_to_T5.jpg,OT,layer9-17,,,,,,,,,0,97,97,97,1615.438434,None,2,1.43080911,1615.438434,None,1615.438434,None,1615.438434,None,,,bei,1,2022_Apr_05_1630,Semantic-hierachy,2021.1.2,59.80963765
Trial # 399,layer6-8_T1_to_T11.jpg,layer6-8/layer6-8_T1_to_T11.jpg,TT,layer6-8,,,,,,,,,0,98,98,98,1616.989593,None,3,3.578078808,1616.989593,None,1616.989593,None,1616.989593,None,,,bei,1,2022_Apr_05_1630,Semantic-hierachy,2021.1.2,59.80963765
Trial # 400,layer6-8_T7_to_T8.jpg,layer6-8/layer6-8_T7_to_T8.jpg,TT,layer6-8,,,,,,,,,0,99,99,99,1620.656888,None,3,1.265065924,1620.656888,None,1620.656888,None,1620.656888,None,,,bei,1,2022_Apr_05_1630,Semantic-hierachy,2021.1.2,59.80963765
Trial # 401,layer6-8_O5_to_T4.jpg,layer6-8/layer6-8_O5_to_T4.jpg,OT,layer6-8,,,,,,,,,0,100,100,100,1622.041294,None,3,1.243484811,1622.041294,None,1622.041294,None,1622.041294,None,,,bei,1,2022_Apr_05_1630,Semantic-hierachy,2021.1.2,59.80963765
Trial # 402,layer6-8_T2_to_T4.jpg,layer6-8/layer6-8_T2_to_T4.jpg,TT,layer6-8,,,,,,,,,0,101,101,101,1623.37563,None,3,1.865407758,1623.37563,None,1623.37563,None,1623.37563,None,,,bei,1,2022_Apr_05_1630,Semantic-hierachy,2021.1.2,59.80963765
Trial # 403,layer0-5_T10_to_T4.jpg,layer0-5/layer0-5_T10_to_T4.jpg,TT,layer0-5,,,,,,,,,0,102,102,102,1625.342028,None,1,2.896940414,1625.342028,None,1625.342028,None,1625.342028,None,,,bei,1,2022_Apr_05_1630,Semantic-hierachy,2021.1.2,59.80963765
Trial # 404,layer0-5_O11_to_O9.jpg,layer0-5/layer0-5_O11_to_O9.jpg,OO,layer0-5,,,,,,,,,0,103,103,103,1628.343392,None,1,1.032741135,1628.343392,None,1628.343392,None,1628.343392,None,,,bei,1,2022_Apr_05_1630,Semantic-hierachy,2021.1.2,59.80963765
Trial # 405,layer0-5_T10_to_T8.jpg,layer0-5/layer0-5_T10_to_T8.jpg,TT,layer0-5,,,,,,,,,0,104,104,104,1629.476406,None,1,1.313090227,1629.476406,None,1629.476406,None,1629.476406,None,,,bei,1,2022_Apr_05_1630,Semantic-hierachy,2021.1.2,59.80963765
