Trial_num,image_name,image_path,pair_type,layers,block1.thisRepN,block1.thisTrialN,block1.thisN,block1.thisIndex,block2.thisRepN,block2.thisTrialN,block2.thisN,block2.thisIndex,block3.thisRepN,block3.thisTrialN,block3.thisN,block3.thisIndex,image_8.started,image_8.stopped,selected_semantic.response,selected_semantic.rt,selected_semantic.started,selected_semantic.stopped,Instruction.started,Instruction.stopped,Trial_number.started,Trial_number.stopped,participant,session,date,expName,psychopyVersion,frameRate,
Trial # 1,layer0-5_O2_to_T1.jpg,layer0-5/layer0-5_O2_to_T1.jpg,OT,layer0-5,0,0,0,0,,,,,,,,,12.812804260989651,None,1.0,5.156755405943841,12.812804260989651,None,12.812804260989651,None,12.812804260989651,None,lcx,001,2022_Apr_07_1150,Semantic-hierachy,2021.1.2,59.8348842750952,
Trial # 2,layer0-5_O11_to_T7.jpg,layer0-5/layer0-5_O11_to_T7.jpg,OT,layer0-5,0,1,1,1,,,,,,,,,18.7962766001001,None,1.0,1.3312115229200572,18.7962766001001,None,18.7962766001001,None,18.7962766001001,None,lcx,001,2022_Apr_07_1150,Semantic-hierachy,2021.1.2,59.8348842750952,
Trial # 3,layer6-8_O3_to_O5.jpg,layer6-8/layer6-8_O3_to_O5.jpg,OO,layer6-8,0,2,2,2,,,,,,,,,20.51468263892457,None,3.0,5.467922976939008,20.51468263892457,None,20.51468263892457,None,20.51468263892457,None,lcx,001,2022_Apr_07_1150,Semantic-hierachy,2021.1.2,59.8348842750952,
Trial # 4,layer6-8_O11_to_O4.jpg,layer6-8/layer6-8_O11_to_O4.jpg,OO,layer6-8,0,3,3,3,,,,,,,,,28.332960409112275,None,3.0,3.594262098893523,28.332960409112275,None,28.332960409112275,None,28.332960409112275,None,lcx,001,2022_Apr_07_1150,Semantic-hierachy,2021.1.2,59.8348842750952,
Trial # 5,layer6-8_O8_to_T8.jpg,layer6-8/layer6-8_O8_to_T8.jpg,OT,layer6-8,0,4,4,4,,,,,,,,,32.20156520605087,None,3.0,1.64113783207722,32.20156520605087,None,32.20156520605087,None,32.20156520605087,None,lcx,001,2022_Apr_07_1150,Semantic-hierachy,2021.1.2,59.8348842750952,
Trial # 6,layer0-5_O11_to_O8.jpg,layer0-5/layer0-5_O11_to_O8.jpg,OO,layer0-5,0,5,5,5,,,,,,,,,34.53386109392159,None,1.0,1.788710376014933,34.53386109392159,None,34.53386109392159,None,34.53386109392159,None,lcx,001,2022_Apr_07_1150,Semantic-hierachy,2021.1.2,59.8348842750952,
Trial # 7,layer0-5_T10_to_T11.jpg,layer0-5/layer0-5_T10_to_T11.jpg,TT,layer0-5,0,6,6,6,,,,,,,,,36.63608034513891,None,1.0,1.908754691015929,36.63608034513891,None,36.63608034513891,None,36.63608034513891,None,lcx,001,2022_Apr_07_1150,Semantic-hierachy,2021.1.2,59.8348842750952,
Trial # 8,layer9-17_O6_to_O9.jpg,layer9-17/layer9-17_O6_to_O9.jpg,OO,layer9-17,0,7,7,7,,,,,,,,,38.85224251705222,None,2.0,1.6756340789142996,38.85224251705222,None,38.85224251705222,None,38.85224251705222,None,lcx,001,2022_Apr_07_1150,Semantic-hierachy,2021.1.2,59.8348842750952,
Trial # 9,layer6-8_O12_to_O9.jpg,layer6-8/layer6-8_O12_to_O9.jpg,OO,layer6-8,0,8,8,8,,,,,,,,,40.85428346507251,None,3.0,2.6798541080206633,40.85428346507251,None,40.85428346507251,None,40.85428346507251,None,lcx,001,2022_Apr_07_1150,Semantic-hierachy,2021.1.2,59.8348842750952,
Trial # 10,layer0-5_O10_to_T2.jpg,layer0-5/layer0-5_O10_to_T2.jpg,OT,layer0-5,0,9,9,9,,,,,,,,,43.92070070607588,None,1.0,3.1464738890063018,43.92070070607588,None,43.92070070607588,None,43.92070070607588,None,lcx,001,2022_Apr_07_1150,Semantic-hierachy,2021.1.2,59.8348842750952,
Trial # 11,layer9-17_T10_to_T2.jpg,layer9-17/layer9-17_T10_to_T2.jpg,TT,layer9-17,0,10,10,10,,,,,,,,,47.87198325805366,None,4.0,10.742760405875742,47.87198325805366,None,47.87198325805366,None,47.87198325805366,None,lcx,001,2022_Apr_07_1150,Semantic-hierachy,2021.1.2,59.8348842750952,
Trial # 12,layer6-8_T6_to_T7.jpg,layer6-8/layer6-8_T6_to_T7.jpg,TT,layer6-8,0,11,11,11,,,,,,,,,59.10853442410007,None,3.0,1.7449586500879377,59.10853442410007,None,59.10853442410007,None,59.10853442410007,None,lcx,001,2022_Apr_07_1150,Semantic-hierachy,2021.1.2,59.8348842750952,
Trial # 13,layer9-17_O10_to_T2.jpg,layer9-17/layer9-17_O10_to_T2.jpg,OT,layer9-17,0,12,12,12,,,,,,,,,62.094204742927104,None,2.0,1.4945238581858575,62.094204742927104,None,62.094204742927104,None,62.094204742927104,None,lcx,001,2022_Apr_07_1150,Semantic-hierachy,2021.1.2,59.8348842750952,
Trial # 14,layer6-8_T4_to_T7.jpg,layer6-8/layer6-8_T4_to_T7.jpg,TT,layer6-8,0,13,13,13,,,,,,,,,63.94352353713475,None,2.0,4.331963409204036,63.94352353713475,None,63.94352353713475,None,63.94352353713475,None,lcx,001,2022_Apr_07_1150,Semantic-hierachy,2021.1.2,59.8348842750952,
Trial # 15,layer9-17_O8_to_T2.jpg,layer9-17/layer9-17_O8_to_T2.jpg,OT,layer9-17,0,14,14,14,,,,,,,,,68.56158867198974,None,2.0,1.3428212848957628,68.56158867198974,None,68.56158867198974,None,68.56158867198974,None,lcx,001,2022_Apr_07_1150,Semantic-hierachy,2021.1.2,59.8348842750952,
Trial # 16,layer0-5_T6_to_T9.jpg,layer0-5/layer0-5_T6_to_T9.jpg,TT,layer0-5,0,15,15,15,,,,,,,,,70.2616409980692,None,1.0,1.732668878044933,70.2616409980692,None,70.2616409980692,None,70.2616409980692,None,lcx,001,2022_Apr_07_1150,Semantic-hierachy,2021.1.2,59.8348842750952,
Trial # 17,layer0-5_O11_to_O12.jpg,layer0-5/layer0-5_O11_to_O12.jpg,OO,layer0-5,0,16,16,16,,,,,,,,,72.46398175903596,None,1.0,1.3468317799270153,72.46398175903596,None,72.46398175903596,None,72.46398175903596,None,lcx,001,2022_Apr_07_1150,Semantic-hierachy,2021.1.2,59.8348842750952,
Trial # 18,layer0-5_T11_to_T5.jpg,layer0-5/layer0-5_T11_to_T5.jpg,TT,layer0-5,0,17,17,17,,,,,,,,,74.1633001039736,None,1.0,3.2419950319454074,74.1633001039736,None,74.1633001039736,None,74.1633001039736,None,lcx,001,2022_Apr_07_1150,Semantic-hierachy,2021.1.2,59.8348842750952,
Trial # 19,layer0-5_O6_to_T12.jpg,layer0-5/layer0-5_O6_to_T12.jpg,OT,layer0-5,0,18,18,18,,,,,,,,,77.69762257998809,None,1.0,1.6573793380521238,77.69762257998809,None,77.69762257998809,None,77.69762257998809,None,lcx,001,2022_Apr_07_1150,Semantic-hierachy,2021.1.2,59.8348842750952,
Trial # 20,layer6-8_T6_to_T8.jpg,layer6-8/layer6-8_T6_to_T8.jpg,TT,layer6-8,0,19,19,19,,,,,,,,,79.68147806706838,None,3.0,7.158608305035159,79.68147806706838,None,79.68147806706838,None,79.68147806706838,None,lcx,001,2022_Apr_07_1150,Semantic-hierachy,2021.1.2,59.8348842750952,
Trial # 21,layer9-17_T2_to_T5.jpg,layer9-17/layer9-17_T2_to_T5.jpg,TT,layer9-17,0,20,20,20,,,,,,,,,87.50073883100413,None,2.0,1.8417415511794388,87.50073883100413,None,87.50073883100413,None,87.50073883100413,None,lcx,001,2022_Apr_07_1150,Semantic-hierachy,2021.1.2,59.8348842750952,
Trial # 22,layer6-8_O2_to_O6.jpg,layer6-8/layer6-8_O2_to_O6.jpg,OO,layer6-8,0,21,21,21,,,,,,,,,89.66809942293912,None,2.0,3.823625813005492,89.66809942293912,None,89.66809942293912,None,89.66809942293912,None,lcx,001,2022_Apr_07_1150,Semantic-hierachy,2021.1.2,59.8348842750952,
Trial # 23,layer9-17_O3_to_T12.jpg,layer9-17/layer9-17_O3_to_T12.jpg,OT,layer9-17,0,22,22,22,,,,,,,,,95.45276479213499,None,2.0,1.5565623850561678,95.45276479213499,None,95.45276479213499,None,95.45276479213499,None,lcx,001,2022_Apr_07_1150,Semantic-hierachy,2021.1.2,59.8348842750952,
Trial # 24,layer0-5_O11_to_O3.jpg,layer0-5/layer0-5_O11_to_O3.jpg,OO,layer0-5,0,23,23,23,,,,,,,,,97.45426079607569,None,1.0,1.8428819121327251,97.45426079607569,None,97.45426079607569,None,97.45426079607569,None,lcx,001,2022_Apr_07_1150,Semantic-hierachy,2021.1.2,59.8348842750952,
Trial # 25,layer6-8_O2_to_O9.jpg,layer6-8/layer6-8_O2_to_O9.jpg,OO,layer6-8,0,24,24,24,,,,,,,,,100.20502722309902,None,3.0,4.622469902969897,100.20502722309902,None,100.20502722309902,None,100.20502722309902,None,lcx,001,2022_Apr_07_1150,Semantic-hierachy,2021.1.2,59.8348842750952,
Trial # 26,layer9-17_O10_to_O8.jpg,layer9-17/layer9-17_O10_to_O8.jpg,OO,layer9-17,0,25,25,25,,,,,,,,,105.27263368992135,None,2.0,3.0952688578981906,105.27263368992135,None,105.27263368992135,None,105.27263368992135,None,lcx,001,2022_Apr_07_1150,Semantic-hierachy,2021.1.2,59.8348842750952,
Trial # 27,layer9-17_T4_to_T6.jpg,layer9-17/layer9-17_T4_to_T6.jpg,TT,layer9-17,0,26,26,26,,,,,,,,,110.0911363789346,None,2.0,1.3080370938405395,110.0911363789346,None,110.0911363789346,None,110.0911363789346,None,lcx,001,2022_Apr_07_1150,Semantic-hierachy,2021.1.2,59.8348842750952,
Trial # 28,layer6-8_O7_to_T8.jpg,layer6-8/layer6-8_O7_to_T8.jpg,OT,layer6-8,0,27,27,27,,,,,,,,,111.8764225190971,None,3.0,4.272805591113865,111.8764225190971,None,111.8764225190971,None,111.8764225190971,None,lcx,001,2022_Apr_07_1150,Semantic-hierachy,2021.1.2,59.8348842750952,
Trial # 29,layer6-8_T4_to_T5.jpg,layer6-8/layer6-8_T4_to_T5.jpg,TT,layer6-8,0,28,28,28,,,,,,,,,116.41008261102252,None,2.0,2.495017304085195,116.41008261102252,None,116.41008261102252,None,116.41008261102252,None,lcx,001,2022_Apr_07_1150,Semantic-hierachy,2021.1.2,59.8348842750952,
Trial # 30,layer6-8_T10_to_T9.jpg,layer6-8/layer6-8_T10_to_T9.jpg,TT,layer6-8,0,29,29,29,,,,,,,,,123.54530069814064,None,2.0,18.530935565009713,123.54530069814064,None,123.54530069814064,None,123.54530069814064,None,lcx,001,2022_Apr_07_1150,Semantic-hierachy,2021.1.2,59.8348842750952,
Trial # 31,layer9-17_O1_to_O8.jpg,layer9-17/layer9-17_O1_to_O8.jpg,OO,layer9-17,0,30,30,30,,,,,,,,,144.58507457002997,None,2.0,2.6211508389096707,144.58507457002997,None,144.58507457002997,None,144.58507457002997,None,lcx,001,2022_Apr_07_1150,Semantic-hierachy,2021.1.2,59.8348842750952,
Trial # 32,layer9-17_O12_to_O7.jpg,layer9-17/layer9-17_O12_to_O7.jpg,OO,layer9-17,0,31,31,31,,,,,,,,,147.83631836506538,None,2.0,1.1892897142097354,147.83631836506538,None,147.83631836506538,None,147.83631836506538,None,lcx,001,2022_Apr_07_1150,Semantic-hierachy,2021.1.2,59.8348842750952,
Trial # 33,layer9-17_T10_to_T12.jpg,layer9-17/layer9-17_T10_to_T12.jpg,TT,layer9-17,0,32,32,32,,,,,,,,,149.50387890613638,None,2.0,4.314228427130729,149.50387890613638,None,149.50387890613638,None,149.50387890613638,None,lcx,001,2022_Apr_07_1150,Semantic-hierachy,2021.1.2,59.8348842750952,
Trial # 34,layer0-5_T2_to_T6.jpg,layer0-5/layer0-5_T2_to_T6.jpg,TT,layer0-5,0,33,33,33,,,,,,,,,154.2717652239371,None,1.0,2.141783898929134,154.2717652239371,None,154.2717652239371,None,154.2717652239371,None,lcx,001,2022_Apr_07_1150,Semantic-hierachy,2021.1.2,59.8348842750952,
Trial # 35,layer6-8_T11_to_T2.jpg,layer6-8/layer6-8_T11_to_T2.jpg,TT,layer6-8,0,34,34,34,,,,,,,,,156.73952676309273,None,4.0,4.922085164114833,156.73952676309273,None,156.73952676309273,None,156.73952676309273,None,lcx,001,2022_Apr_07_1150,Semantic-hierachy,2021.1.2,59.8348842750952,
Trial # 36,layer6-8_O4_to_T3.jpg,layer6-8/layer6-8_O4_to_T3.jpg,OT,layer6-8,0,35,35,35,,,,,,,,,161.9748575829435,None,3.0,2.497805556980893,161.9748575829435,None,161.9748575829435,None,161.9748575829435,None,lcx,001,2022_Apr_07_1150,Semantic-hierachy,2021.1.2,59.8348842750952,
Trial # 37,layer6-8_O3_to_T11.jpg,layer6-8/layer6-8_O3_to_T11.jpg,OT,layer6-8,0,36,36,36,,,,,,,,,165.02533612097614,None,3.0,1.9587983479723334,165.02533612097614,None,165.02533612097614,None,165.02533612097614,None,lcx,001,2022_Apr_07_1150,Semantic-hierachy,2021.1.2,59.8348842750952,
Trial # 38,layer6-8_T1_to_T2.jpg,layer6-8/layer6-8_T1_to_T2.jpg,TT,layer6-8,0,37,37,37,,,,,,,,,169.35929576400667,None,3.0,2.5253338559996337,169.35929576400667,None,169.35929576400667,None,169.35929576400667,None,lcx,001,2022_Apr_07_1150,Semantic-hierachy,2021.1.2,59.8348842750952,
Trial # 39,layer9-17_O2_to_O6.jpg,layer9-17/layer9-17_O2_to_O6.jpg,OO,layer9-17,0,38,38,38,,,,,,,,,172.99394349800423,None,4.0,5.991993668023497,172.99394349800423,None,172.99394349800423,None,172.99394349800423,None,lcx,001,2022_Apr_07_1150,Semantic-hierachy,2021.1.2,59.8348842750952,
Trial # 40,layer9-17_O4_to_T2.jpg,layer9-17/layer9-17_O4_to_T2.jpg,OT,layer9-17,0,39,39,39,,,,,,,,,179.67924621794373,None,2.0,4.806407557800412,179.67924621794373,None,179.67924621794373,None,179.67924621794373,None,lcx,001,2022_Apr_07_1150,Semantic-hierachy,2021.1.2,59.8348842750952,
Trial # 41,layer6-8_O5_to_T3.jpg,layer6-8/layer6-8_O5_to_T3.jpg,OT,layer6-8,0,40,40,40,,,,,,,,,184.814227885101,None,3.0,60.42732709180564,184.814227885101,None,184.814227885101,None,184.814227885101,None,lcx,001,2022_Apr_07_1150,Semantic-hierachy,2021.1.2,59.8348842750952,
Trial # 42,layer6-8_O2_to_O3.jpg,layer6-8/layer6-8_O2_to_O3.jpg,OO,layer6-8,0,41,41,41,,,,,,,,,245.7669825020712,None,4.0,7.674018200021237,245.7669825020712,None,245.7669825020712,None,245.7669825020712,None,lcx,001,2022_Apr_07_1150,Semantic-hierachy,2021.1.2,59.8348842750952,
Trial # 43,layer6-8_O1_to_T6.jpg,layer6-8/layer6-8_O1_to_T6.jpg,OT,layer6-8,0,42,42,42,,,,,,,,,254.03574490896426,None,2.0,8.75998955196701,254.03574490896426,None,254.03574490896426,None,254.03574490896426,None,lcx,001,2022_Apr_07_1150,Semantic-hierachy,2021.1.2,59.8348842750952,
Trial # 44,layer6-8_O2_to_T12.jpg,layer6-8/layer6-8_O2_to_T12.jpg,OT,layer6-8,0,43,43,43,,,,,,,,,265.2723857269157,None,3.0,5.316828045994043,265.2723857269157,None,265.2723857269157,None,265.2723857269157,None,lcx,001,2022_Apr_07_1150,Semantic-hierachy,2021.1.2,59.8348842750952,
Trial # 45,layer9-17_O2_to_O8.jpg,layer9-17/layer9-17_O2_to_O8.jpg,OO,layer9-17,0,44,44,44,,,,,,,,,271.72547711711377,None,4.0,5.474690405884758,271.72547711711377,None,271.72547711711377,None,271.72547711711377,None,lcx,001,2022_Apr_07_1150,Semantic-hierachy,2021.1.2,59.8348842750952,
Trial # 46,layer9-17_O10_to_O4.jpg,layer9-17/layer9-17_O10_to_O4.jpg,OO,layer9-17,0,45,45,45,,,,,,,,,278.527039132081,None,2.0,4.205923760076985,278.527039132081,None,278.527039132081,None,278.527039132081,None,lcx,001,2022_Apr_07_1150,Semantic-hierachy,2021.1.2,59.8348842750952,
Trial # 47,layer0-5_O1_to_O4.jpg,layer0-5/layer0-5_O1_to_O4.jpg,OO,layer0-5,0,46,46,46,,,,,,,,,283.0112754169386,None,1.0,2.244504507863894,283.0112754169386,None,283.0112754169386,None,283.0112754169386,None,lcx,001,2022_Apr_07_1150,Semantic-hierachy,2021.1.2,59.8348842750952,
Trial # 48,layer0-5_T4_to_T5.jpg,layer0-5/layer0-5_T4_to_T5.jpg,TT,layer0-5,0,47,47,47,,,,,,,,,285.64657967397943,None,1.0,2.4426697918679565,285.64657967397943,None,285.64657967397943,None,285.64657967397943,None,lcx,001,2022_Apr_07_1150,Semantic-hierachy,2021.1.2,59.8348842750952,
Trial # 49,layer9-17_T12_to_T8.jpg,layer9-17/layer9-17_T12_to_T8.jpg,TT,layer9-17,0,48,48,48,,,,,,,,,288.66304740007035,None,2.0,2.0049735200591385,288.66304740007035,None,288.66304740007035,None,288.66304740007035,None,lcx,001,2022_Apr_07_1150,Semantic-hierachy,2021.1.2,59.8348842750952,
Trial # 50,layer0-5_T10_to_T5.jpg,layer0-5/layer0-5_T10_to_T5.jpg,TT,layer0-5,0,49,49,49,,,,,,,,,290.99818604812026,None,1.0,1.9475807598792017,290.99818604812026,None,290.99818604812026,None,290.99818604812026,None,lcx,001,2022_Apr_07_1150,Semantic-hierachy,2021.1.2,59.8348842750952,
Trial # 51,layer6-8_O10_to_O8.jpg,layer6-8/layer6-8_O10_to_O8.jpg,OO,layer6-8,0,50,50,50,,,,,,,,,293.6648396740202,None,2.0,2.372089138953015,293.6648396740202,None,293.6648396740202,None,293.6648396740202,None,lcx,001,2022_Apr_07_1150,Semantic-hierachy,2021.1.2,59.8348842750952,
Trial # 52,layer9-17_O3_to_O5.jpg,layer9-17/layer9-17_O3_to_O5.jpg,OO,layer9-17,0,51,51,51,,,,,,,,,297.15035054506734,None,2.0,1.5470261150039732,297.15035054506734,None,297.15035054506734,None,297.15035054506734,None,lcx,001,2022_Apr_07_1150,Semantic-hierachy,2021.1.2,59.8348842750952,
Trial # 53,layer6-8_T1_to_T12.jpg,layer6-8/layer6-8_T1_to_T12.jpg,TT,layer6-8,0,52,52,52,,,,,,,,,299.0161204061005,None,3.0,3.9786679388489574,299.0161204061005,None,299.0161204061005,None,299.0161204061005,None,lcx,001,2022_Apr_07_1150,Semantic-hierachy,2021.1.2,59.8348842750952,
Trial # 54,layer0-5_O4_to_O9.jpg,layer0-5/layer0-5_O4_to_O9.jpg,OO,layer0-5,0,53,53,53,,,,,,,,,303.5180255139712,None,1.0,2.3446678039617836,303.5180255139712,None,303.5180255139712,None,303.5180255139712,None,lcx,001,2022_Apr_07_1150,Semantic-hierachy,2021.1.2,59.8348842750952,
Trial # 55,layer0-5_O5_to_O9.jpg,layer0-5/layer0-5_O5_to_O9.jpg,OO,layer0-5,0,54,54,54,,,,,,,,,306.61977728898637,None,1.0,1.375658225035295,306.61977728898637,None,306.61977728898637,None,306.61977728898637,None,lcx,001,2022_Apr_07_1150,Semantic-hierachy,2021.1.2,59.8348842750952,
Trial # 56,layer0-5_O1_to_O2.jpg,layer0-5/layer0-5_O1_to_O2.jpg,OO,layer0-5,0,55,55,55,,,,,,,,,308.43581450311467,None,1.0,1.0283573209308088,308.43581450311467,None,308.43581450311467,None,308.43581450311467,None,lcx,001,2022_Apr_07_1150,Semantic-hierachy,2021.1.2,59.8348842750952,
Trial # 57,layer9-17_T12_to_T3.jpg,layer9-17/layer9-17_T12_to_T3.jpg,TT,layer9-17,0,56,56,56,,,,,,,,,309.85296118003316,None,2.0,1.692720773164183,309.85296118003316,None,309.85296118003316,None,309.85296118003316,None,lcx,001,2022_Apr_07_1150,Semantic-hierachy,2021.1.2,59.8348842750952,
Trial # 58,layer0-5_O7_to_O9.jpg,layer0-5/layer0-5_O7_to_O9.jpg,OO,layer0-5,0,57,57,57,,,,,,,,,312.0883348030038,None,1.0,3.0518640629015863,312.0883348030038,None,312.0883348030038,None,312.0883348030038,None,lcx,001,2022_Apr_07_1150,Semantic-hierachy,2021.1.2,59.8348842750952,
Trial # 59,layer0-5_T5_to_T9.jpg,layer0-5/layer0-5_T5_to_T9.jpg,TT,layer0-5,0,58,58,58,,,,,,,,,315.50491336593404,None,1.0,1.1917941221036017,315.50491336593404,None,315.50491336593404,None,315.50491336593404,None,lcx,001,2022_Apr_07_1150,Semantic-hierachy,2021.1.2,59.8348842750952,
Trial # 60,layer9-17_O1_to_O9.jpg,layer9-17/layer9-17_O1_to_O9.jpg,OO,layer9-17,0,59,59,59,,,,,,,,,317.08966733608395,None,4.0,3.6932077219244093,317.08966733608395,None,317.08966733608395,None,317.08966733608395,None,lcx,001,2022_Apr_07_1150,Semantic-hierachy,2021.1.2,59.8348842750952,
Trial # 61,layer0-5_O6_to_O7.jpg,layer0-5/layer0-5_O6_to_O7.jpg,OO,layer0-5,0,60,60,60,,,,,,,,,321.14113222807646,None,1.0,2.7549438229762018,321.14113222807646,None,321.14113222807646,None,321.14113222807646,None,lcx,001,2022_Apr_07_1150,Semantic-hierachy,2021.1.2,59.8348842750952,
Trial # 62,layer9-17_T5_to_T6.jpg,layer9-17/layer9-17_T5_to_T6.jpg,TT,layer9-17,0,61,61,61,,,,,,,,,324.2742232559249,None,2.0,2.3921334019396454,324.2742232559249,None,324.2742232559249,None,324.2742232559249,None,lcx,001,2022_Apr_07_1150,Semantic-hierachy,2021.1.2,59.8348842750952,
Trial # 63,layer9-17_T4_to_T9.jpg,layer9-17/layer9-17_T4_to_T9.jpg,TT,layer9-17,0,62,62,62,,,,,,,,,327.4594904431142,None,2.0,1.2231297309044749,327.4594904431142,None,327.4594904431142,None,327.4594904431142,None,lcx,001,2022_Apr_07_1150,Semantic-hierachy,2021.1.2,59.8348842750952,
Trial # 64,layer0-5_O11_to_T1.jpg,layer0-5/layer0-5_O11_to_T1.jpg,OT,layer0-5,0,63,63,63,,,,,,,,,329.1422946329694,None,1.0,2.364933948032558,329.1422946329694,None,329.1422946329694,None,329.1422946329694,None,lcx,001,2022_Apr_07_1150,Semantic-hierachy,2021.1.2,59.8348842750952,
Trial # 65,layer6-8_T5_to_T9.jpg,layer6-8/layer6-8_T5_to_T9.jpg,TT,layer6-8,0,64,64,64,,,,,,,,,332.17654888913967,None,4.0,4.381206064950675,332.17654888913967,None,332.17654888913967,None,332.17654888913967,None,lcx,001,2022_Apr_07_1150,Semantic-hierachy,2021.1.2,59.8348842750952,
Trial # 66,layer0-5_T4_to_T7.jpg,layer0-5/layer0-5_T4_to_T7.jpg,TT,layer0-5,0,65,65,65,,,,,,,,,336.9623884661123,None,1.0,2.47573369089514,336.9623884661123,None,336.9623884661123,None,336.9623884661123,None,lcx,001,2022_Apr_07_1150,Semantic-hierachy,2021.1.2,59.8348842750952,
Trial # 67,layer0-5_O2_to_O6.jpg,layer0-5/layer0-5_O2_to_O6.jpg,OO,layer0-5,0,66,66,66,,,,,,,,,339.74565929407254,None,1.0,0.9595575639978051,339.74565929407254,None,339.74565929407254,None,339.74565929407254,None,lcx,001,2022_Apr_07_1150,Semantic-hierachy,2021.1.2,59.8348842750952,
Trial # 68,layer9-17_O12_to_T3.jpg,layer9-17/layer9-17_O12_to_T3.jpg,OT,layer9-17,0,67,67,67,,,,,,,,,341.0630009791348,None,2.0,1.5760528040118515,341.0630009791348,None,341.0630009791348,None,341.0630009791348,None,lcx,001,2022_Apr_07_1150,Semantic-hierachy,2021.1.2,59.8348842750952,
Trial # 69,layer9-17_O7_to_O9.jpg,layer9-17/layer9-17_O7_to_O9.jpg,OO,layer9-17,0,68,68,68,,,,,,,,,342.8966069179587,None,4.0,4.3126731449738145,342.8966069179587,None,342.8966069179587,None,342.8966069179587,None,lcx,001,2022_Apr_07_1150,Semantic-hierachy,2021.1.2,59.8348842750952,
Trial # 70,layer9-17_T1_to_T8.jpg,layer9-17/layer9-17_T1_to_T8.jpg,TT,layer9-17,0,69,69,69,,,,,,,,,348.4818471840117,None,4.0,6.812914178008214,348.4818471840117,None,348.4818471840117,None,348.4818471840117,None,lcx,001,2022_Apr_07_1150,Semantic-hierachy,2021.1.2,59.8348842750952,
Trial # 71,layer0-5_O3_to_T8.jpg,layer0-5/layer0-5_O3_to_T8.jpg,OT,layer0-5,0,70,70,70,,,,,,,,,355.8007750019897,None,1.0,3.763968952000141,355.8007750019897,None,355.8007750019897,None,355.8007750019897,None,lcx,001,2022_Apr_07_1150,Semantic-hierachy,2021.1.2,59.8348842750952,
Trial # 72,layer9-17_O9_to_T2.jpg,layer9-17/layer9-17_O9_to_T2.jpg,OT,layer9-17,0,71,71,71,,,,,,,,,360.95348989008926,None,2.0,2.1002850451041013,360.95348989008926,None,360.95348989008926,None,360.95348989008926,None,lcx,001,2022_Apr_07_1150,Semantic-hierachy,2021.1.2,59.8348842750952,
Trial # 73,layer9-17_O5_to_O7.jpg,layer9-17/layer9-17_O5_to_O7.jpg,OO,layer9-17,0,72,72,72,,,,,,,,,363.4861452970654,None,2.0,2.0445809939410537,363.4861452970654,None,363.4861452970654,None,363.4861452970654,None,lcx,001,2022_Apr_07_1150,Semantic-hierachy,2021.1.2,59.8348842750952,
Trial # 74,layer0-5_T11_to_T9.jpg,layer0-5/layer0-5_T11_to_T9.jpg,TT,layer0-5,0,73,73,73,,,,,,,,,365.9547182689421,None,1.0,1.6117831969168037,365.9547182689421,None,365.9547182689421,None,365.9547182689421,None,lcx,001,2022_Apr_07_1150,Semantic-hierachy,2021.1.2,59.8348842750952,
Trial # 75,layer0-5_O11_to_T12.jpg,layer0-5/layer0-5_O11_to_T12.jpg,OT,layer0-5,0,74,74,74,,,,,,,,,367.87154522095807,None,1.0,1.3940816030371934,367.87154522095807,None,367.87154522095807,None,367.87154522095807,None,lcx,001,2022_Apr_07_1150,Semantic-hierachy,2021.1.2,59.8348842750952,
Trial # 76,layer9-17_T7_to_T9.jpg,layer9-17/layer9-17_T7_to_T9.jpg,TT,layer9-17,0,75,75,75,,,,,,,,,369.58873026794754,None,4.0,5.055423631099984,369.58873026794754,None,369.58873026794754,None,369.58873026794754,None,lcx,001,2022_Apr_07_1150,Semantic-hierachy,2021.1.2,59.8348842750952,
Trial # 77,layer6-8_O6_to_T2.jpg,layer6-8/layer6-8_O6_to_T2.jpg,OT,layer6-8,0,76,76,76,,,,,,,,,375.0900184630882,None,3.0,4.394047531066462,375.0900184630882,None,375.0900184630882,None,375.0900184630882,None,lcx,001,2022_Apr_07_1150,Semantic-hierachy,2021.1.2,59.8348842750952,
Trial # 78,layer9-17_T4_to_T5.jpg,layer9-17/layer9-17_T4_to_T5.jpg,TT,layer9-17,0,77,77,77,,,,,,,,,381.10943961911835,None,2.0,2.0824442610610276,381.10943961911835,None,381.10943961911835,None,381.10943961911835,None,lcx,001,2022_Apr_07_1150,Semantic-hierachy,2021.1.2,59.8348842750952,
Trial # 79,layer0-5_T2_to_T4.jpg,layer0-5/layer0-5_T2_to_T4.jpg,TT,layer0-5,0,78,78,78,,,,,,,,,383.5255650051404,None,1.0,2.064949120860547,383.5255650051404,None,383.5255650051404,None,383.5255650051404,None,lcx,001,2022_Apr_07_1150,Semantic-hierachy,2021.1.2,59.8348842750952,
Trial # 80,layer0-5_T2_to_T8.jpg,layer0-5/layer0-5_T2_to_T8.jpg,TT,layer0-5,0,79,79,79,,,,,,,,,385.97759919497184,None,1.0,1.945180255919695,385.97759919497184,None,385.97759919497184,None,385.97759919497184,None,lcx,001,2022_Apr_07_1150,Semantic-hierachy,2021.1.2,59.8348842750952,
Trial # 81,layer9-17_T3_to_T9.jpg,layer9-17/layer9-17_T3_to_T9.jpg,TT,layer9-17,0,80,80,80,,,,,,,,,388.9771544660907,None,2.0,2.172962683951482,388.9771544660907,None,388.9771544660907,None,388.9771544660907,None,lcx,001,2022_Apr_07_1150,Semantic-hierachy,2021.1.2,59.8348842750952,
Trial # 82,layer9-17_O2_to_O5.jpg,layer9-17/layer9-17_O2_to_O5.jpg,OO,layer9-17,0,81,81,81,,,,,,,,,391.47918483801186,None,2.0,5.749595070956275,391.47918483801186,None,391.47918483801186,None,391.47918483801186,None,lcx,001,2022_Apr_07_1150,Semantic-hierachy,2021.1.2,59.8348842750952,
Trial # 83,layer6-8_O6_to_O7.jpg,layer6-8/layer6-8_O6_to_O7.jpg,OO,layer6-8,0,82,82,82,,,,,,,,,397.52998450002633,None,3.0,3.7474599410779774,397.52998450002633,None,397.52998450002633,None,397.52998450002633,None,lcx,001,2022_Apr_07_1150,Semantic-hierachy,2021.1.2,59.8348842750952,
Trial # 84,layer9-17_O11_to_T1.jpg,layer9-17/layer9-17_O11_to_T1.jpg,OT,layer9-17,0,83,83,83,,,,,,,,,401.849037759006,None,2.0,1.9990001281257719,401.849037759006,None,401.849037759006,None,401.849037759006,None,lcx,001,2022_Apr_07_1150,Semantic-hierachy,2021.1.2,59.8348842750952,
Trial # 85,layer6-8_O5_to_T12.jpg,layer6-8/layer6-8_O5_to_T12.jpg,OT,layer6-8,0,84,84,84,,,,,,,,,404.2652316240128,None,3.0,1.828196455957368,404.2652316240128,None,404.2652316240128,None,404.2652316240128,None,lcx,001,2022_Apr_07_1150,Semantic-hierachy,2021.1.2,59.8348842750952,
Trial # 86,layer6-8_O4_to_O7.jpg,layer6-8/layer6-8_O4_to_O7.jpg,OO,layer6-8,0,85,85,85,,,,,,,,,406.400749880122,None,4.0,4.732972397934645,406.400749880122,None,406.400749880122,None,406.400749880122,None,lcx,001,2022_Apr_07_1150,Semantic-hierachy,2021.1.2,59.8348842750952,
Trial # 87,layer6-8_T10_to_T8.jpg,layer6-8/layer6-8_T10_to_T8.jpg,TT,layer6-8,0,86,86,86,,,,,,,,,411.4353563240729,None,2.0,1.7435401459224522,411.4353563240729,None,411.4353563240729,None,411.4353563240729,None,lcx,001,2022_Apr_07_1150,Semantic-hierachy,2021.1.2,59.8348842750952,
Trial # 88,layer6-8_O10_to_T3.jpg,layer6-8/layer6-8_O10_to_T3.jpg,OT,layer6-8,0,87,87,87,,,,,,,,,413.51928488793783,None,3.0,4.00039617693983,413.51928488793783,None,413.51928488793783,None,413.51928488793783,None,lcx,001,2022_Apr_07_1150,Semantic-hierachy,2021.1.2,59.8348842750952,
Trial # 89,layer6-8_O5_to_O9.jpg,layer6-8/layer6-8_O5_to_O9.jpg,OO,layer6-8,0,88,88,88,,,,,,,,,418.61978152696975,None,3.0,5.778345550876111,418.61978152696975,None,418.61978152696975,None,418.61978152696975,None,lcx,001,2022_Apr_07_1150,Semantic-hierachy,2021.1.2,59.8348842750952,
Trial # 90,layer6-8_O10_to_O11.jpg,layer6-8/layer6-8_O10_to_O11.jpg,OO,layer6-8,0,89,89,89,,,,,,,,,425.7567032780498,None,2.0,2.0815756479278207,425.7567032780498,None,425.7567032780498,None,425.7567032780498,None,lcx,001,2022_Apr_07_1150,Semantic-hierachy,2021.1.2,59.8348842750952,
Trial # 91,layer0-5_O4_to_T5.jpg,layer0-5/layer0-5_O4_to_T5.jpg,OT,layer0-5,0,90,90,90,,,,,,,,,428.25626496598125,None,1.0,1.960190563928336,428.25626496598125,None,428.25626496598125,None,428.25626496598125,None,lcx,001,2022_Apr_07_1150,Semantic-hierachy,2021.1.2,59.8348842750952,
Trial # 92,layer0-5_T11_to_T12.jpg,layer0-5/layer0-5_T11_to_T12.jpg,TT,layer0-5,0,91,91,91,,,,,,,,,430.6248952089809,None,1.0,1.1444073929451406,430.6248952089809,None,430.6248952089809,None,430.6248952089809,None,lcx,001,2022_Apr_07_1150,Semantic-hierachy,2021.1.2,59.8348842750952,
Trial # 93,layer0-5_T10_to_T3.jpg,layer0-5/layer0-5_T10_to_T3.jpg,TT,layer0-5,0,92,92,92,,,,,,,,,432.19188379799016,None,1.0,1.113131487974897,432.19188379799016,None,432.19188379799016,None,432.19188379799016,None,lcx,001,2022_Apr_07_1150,Semantic-hierachy,2021.1.2,59.8348842750952,
Trial # 94,layer0-5_O2_to_O8.jpg,layer0-5/layer0-5_O2_to_O8.jpg,OO,layer0-5,0,93,93,93,,,,,,,,,433.6580367749557,None,1.0,1.1457931941840798,433.6580367749557,None,433.6580367749557,None,433.6580367749557,None,lcx,001,2022_Apr_07_1150,Semantic-hierachy,2021.1.2,59.8348842750952,
Trial # 95,layer0-5_T3_to_T8.jpg,layer0-5/layer0-5_T3_to_T8.jpg,TT,layer0-5,0,94,94,94,,,,,,,,,435.1083023000974,None,1.0,0.9955129609443247,435.1083023000974,None,435.1083023000974,None,435.1083023000974,None,lcx,001,2022_Apr_07_1150,Semantic-hierachy,2021.1.2,59.8348842750952,
Trial # 96,layer0-5_O7_to_O8.jpg,layer0-5/layer0-5_O7_to_O8.jpg,OO,layer0-5,0,95,95,95,,,,,,,,,437.010100933956,None,1.0,1.3955379500985146,437.010100933956,None,437.010100933956,None,437.010100933956,None,lcx,001,2022_Apr_07_1150,Semantic-hierachy,2021.1.2,59.8348842750952,
Trial # 97,layer6-8_T10_to_T6.jpg,layer6-8/layer6-8_T10_to_T6.jpg,TT,layer6-8,0,96,96,96,,,,,,,,,438.80935617908835,None,2.0,1.7147649680264294,438.80935617908835,None,438.80935617908835,None,438.80935617908835,None,lcx,001,2022_Apr_07_1150,Semantic-hierachy,2021.1.2,59.8348842750952,
Trial # 98,layer0-5_O1_to_O5.jpg,layer0-5/layer0-5_O1_to_O5.jpg,OO,layer0-5,0,97,97,97,,,,,,,,,441.1106691570021,None,1.0,1.5151074649766088,441.1106691570021,None,441.1106691570021,None,441.1106691570021,None,lcx,001,2022_Apr_07_1150,Semantic-hierachy,2021.1.2,59.8348842750952,
Trial # 99,layer6-8_O1_to_O6.jpg,layer6-8/layer6-8_O1_to_O6.jpg,OO,layer6-8,0,98,98,98,,,,,,,,,443.077641294105,None,2.0,1.861340296920389,443.077641294105,None,443.077641294105,None,443.077641294105,None,lcx,001,2022_Apr_07_1150,Semantic-hierachy,2021.1.2,59.8348842750952,
Trial # 100,layer6-8_O3_to_T1.jpg,layer6-8/layer6-8_O3_to_T1.jpg,OT,layer6-8,0,99,99,99,,,,,,,,,447.4620833909139,None,3.0,1.998070993926376,447.4620833909139,None,447.4620833909139,None,447.4620833909139,None,lcx,001,2022_Apr_07_1150,Semantic-hierachy,2021.1.2,59.8348842750952,
Trial # 101,layer6-8_T1_to_T9.jpg,layer6-8/layer6-8_T1_to_T9.jpg,TT,layer6-8,0,100,100,100,,,,,,,,,450.32926919707097,None,4.0,6.775878658983856,450.32926919707097,None,450.32926919707097,None,450.32926919707097,None,lcx,001,2022_Apr_07_1150,Semantic-hierachy,2021.1.2,59.8348842750952,
Trial # 102,layer9-17_O12_to_O6.jpg,layer9-17/layer9-17_O12_to_O6.jpg,OO,layer9-17,0,101,101,101,,,,,,,,,457.8994751931168,None,2.0,1.9418146698735654,457.8994751931168,None,457.8994751931168,None,457.8994751931168,None,lcx,001,2022_Apr_07_1150,Semantic-hierachy,2021.1.2,59.8348842750952,
Trial # 103,layer0-5_T4_to_T9.jpg,layer0-5/layer0-5_T4_to_T9.jpg,TT,layer0-5,0,102,102,102,,,,,,,,,460.13286649412476,None,1.0,1.4835572249721736,460.13286649412476,None,460.13286649412476,None,460.13286649412476,None,lcx,001,2022_Apr_07_1150,Semantic-hierachy,2021.1.2,59.8348842750952,
Trial # 104,layer6-8_O10_to_T1.jpg,layer6-8/layer6-8_O10_to_T1.jpg,OT,layer6-8,0,103,103,103,,,,,,,,,462.0014512790367,None,3.0,2.9955339510925114,462.0014512790367,None,462.0014512790367,None,462.0014512790367,None,lcx,001,2022_Apr_07_1150,Semantic-hierachy,2021.1.2,59.8348842750952,
Trial # 105,layer0-5_O6_to_T2.jpg,layer0-5/layer0-5_O6_to_T2.jpg,OT,layer0-5,0,104,104,104,,,,,,,,,465.70194320497103,None,1.0,2.9106083679944277,465.70194320497103,None,465.70194320497103,None,465.70194320497103,None,lcx,001,2022_Apr_07_1150,Semantic-hierachy,2021.1.2,59.8348842750952,
Trial # 106,layer9-17_T11_to_T2.jpg,layer9-17/layer9-17_T11_to_T2.jpg,TT,layer9-17,0,105,105,105,,,,,,,,,468.95214712503366,None,2.0,1.459971684962511,468.95214712503366,None,468.95214712503366,None,468.95214712503366,None,lcx,001,2022_Apr_07_1150,Semantic-hierachy,2021.1.2,59.8348842750952,
Trial # 107,layer9-17_O12_to_O8.jpg,layer9-17/layer9-17_O12_to_O8.jpg,OO,layer9-17,0,106,106,106,,,,,,,,,470.73709578998387,None,2.0,1.1247173890005797,470.73709578998387,None,470.73709578998387,None,470.73709578998387,None,lcx,001,2022_Apr_07_1150,Semantic-hierachy,2021.1.2,59.8348842750952,
Trial # 108,layer0-5_T12_to_T3.jpg,layer0-5/layer0-5_T12_to_T3.jpg,TT,layer0-5,0,107,107,107,,,,,,,,,472.2709632399492,None,1.0,1.7798156689386815,472.2709632399492,None,472.2709632399492,None,472.2709632399492,None,lcx,001,2022_Apr_07_1150,Semantic-hierachy,2021.1.2,59.8348842750952,
Trial # 109,layer0-5_T1_to_T10.jpg,layer0-5/layer0-5_T1_to_T10.jpg,TT,layer0-5,0,108,108,108,,,,,,,,,474.48770606098697,None,1.0,0.9664382159244269,474.48770606098697,None,474.48770606098697,None,474.48770606098697,None,lcx,001,2022_Apr_07_1150,Semantic-hierachy,2021.1.2,59.8348842750952,
Trial # 110,layer6-8_O4_to_T5.jpg,layer6-8/layer6-8_O4_to_T5.jpg,OT,layer6-8,0,109,109,109,,,,,,,,,475.88888623495586,None,3.0,3.261611001798883,475.88888623495586,None,475.88888623495586,None,475.88888623495586,None,lcx,001,2022_Apr_07_1150,Semantic-hierachy,2021.1.2,59.8348842750952,
Trial # 111,layer9-17_O11_to_O7.jpg,layer9-17/layer9-17_O11_to_O7.jpg,OO,layer9-17,0,110,110,110,,,,,,,,,479.404906675918,None,2.0,1.682716490002349,479.404906675918,None,479.404906675918,None,479.404906675918,None,lcx,001,2022_Apr_07_1150,Semantic-hierachy,2021.1.2,59.8348842750952,
Trial # 112,layer0-5_O5_to_O8.jpg,layer0-5/layer0-5_O5_to_O8.jpg,OO,layer0-5,0,111,111,111,,,,,,,,,481.44034420512617,None,1.0,1.3447184909600765,481.44034420512617,None,481.44034420512617,None,481.44034420512617,None,lcx,001,2022_Apr_07_1150,Semantic-hierachy,2021.1.2,59.8348842750952,
Trial # 113,layer0-5_O10_to_O4.jpg,layer0-5/layer0-5_O10_to_O4.jpg,OO,layer0-5,0,112,112,112,,,,,,,,,483.1232604600955,None,1.0,1.14258349314332,483.1232604600955,None,483.1232604600955,None,483.1232604600955,None,lcx,001,2022_Apr_07_1150,Semantic-hierachy,2021.1.2,59.8348842750952,
Trial # 114,layer9-17_O4_to_O8.jpg,layer9-17/layer9-17_O4_to_O8.jpg,OO,layer9-17,0,113,113,113,,,,,,,,,484.5568083950784,None,3.0,4.530060112010688,484.5568083950784,None,484.5568083950784,None,484.5568083950784,None,lcx,001,2022_Apr_07_1150,Semantic-hierachy,2021.1.2,59.8348842750952,
Trial # 115,layer0-5_O2_to_T8.jpg,layer0-5/layer0-5_O2_to_T8.jpg,OT,layer0-5,0,114,114,114,,,,,,,,,489.54176853294484,None,1.0,1.3091906919144094,489.54176853294484,None,489.54176853294484,None,489.54176853294484,None,lcx,001,2022_Apr_07_1150,Semantic-hierachy,2021.1.2,59.8348842750952,
Trial # 116,layer9-17_T2_to_T3.jpg,layer9-17/layer9-17_T2_to_T3.jpg,TT,layer9-17,0,115,115,115,,,,,,,,,491.1603665619623,None,2.0,1.5152464169077575,491.1603665619623,None,491.1603665619623,None,491.1603665619623,None,lcx,001,2022_Apr_07_1150,Semantic-hierachy,2021.1.2,59.8348842750952,
Trial # 117,layer6-8_O1_to_T10.jpg,layer6-8/layer6-8_O1_to_T10.jpg,OT,layer6-8,0,116,116,116,,,,,,,,,493.4598859860562,None,3.0,4.045075888046995,493.4598859860562,None,493.4598859860562,None,493.4598859860562,None,lcx,001,2022_Apr_07_1150,Semantic-hierachy,2021.1.2,59.8348842750952,
Trial # 118,layer0-5_T3_to_T7.jpg,layer0-5/layer0-5_T3_to_T7.jpg,TT,layer0-5,0,117,117,117,,,,,,,,,498.02830601204187,None,1.0,2.0166402750182897,498.02830601204187,None,498.02830601204187,None,498.02830601204187,None,lcx,001,2022_Apr_07_1150,Semantic-hierachy,2021.1.2,59.8348842750952,
Trial # 119,layer9-17_O1_to_O12.jpg,layer9-17/layer9-17_O1_to_O12.jpg,OO,layer9-17,0,118,118,118,,,,,,,,,500.3785953570623,None,2.0,1.5343435630202293,500.3785953570623,None,500.3785953570623,None,500.3785953570623,None,lcx,001,2022_Apr_07_1150,Semantic-hierachy,2021.1.2,59.8348842750952,
Trial # 120,layer6-8_O12_to_O2.jpg,layer6-8/layer6-8_O12_to_O2.jpg,OO,layer6-8,0,119,119,119,,,,,,,,,502.2134078689851,None,3.0,2.8490130309946835,502.2134078689851,None,502.2134078689851,None,502.2134078689851,None,lcx,001,2022_Apr_07_1150,Semantic-hierachy,2021.1.2,59.8348842750952,
Trial # 121,layer9-17_O10_to_O9.jpg,layer9-17/layer9-17_O10_to_O9.jpg,OO,layer9-17,0,120,120,120,,,,,,,,,505.6315547369886,None,2.0,1.6173399270046502,505.6315547369886,None,505.6315547369886,None,505.6315547369886,None,lcx,001,2022_Apr_07_1150,Semantic-hierachy,2021.1.2,59.8348842750952,
Trial # 122,layer6-8_O4_to_T10.jpg,layer6-8/layer6-8_O4_to_T10.jpg,OT,layer6-8,0,121,121,121,,,,,,,,,507.6308235770557,None,3.0,2.2420266659464687,507.6308235770557,None,507.6308235770557,None,507.6308235770557,None,lcx,001,2022_Apr_07_1150,Semantic-hierachy,2021.1.2,59.8348842750952,
Trial # 123,layer6-8_O2_to_T3.jpg,layer6-8/layer6-8_O2_to_T3.jpg,OT,layer6-8,0,122,122,122,,,,,,,,,511.98306240094826,None,3.0,4.464024004992098,511.98306240094826,None,511.98306240094826,None,511.98306240094826,None,lcx,001,2022_Apr_07_1150,Semantic-hierachy,2021.1.2,59.8348842750952,
Trial # 124,layer0-5_O1_to_O7.jpg,layer0-5/layer0-5_O1_to_O7.jpg,OO,layer0-5,0,123,123,123,,,,,,,,,516.8846809170209,None,1.0,2.749465120024979,516.8846809170209,None,516.8846809170209,None,516.8846809170209,None,lcx,001,2022_Apr_07_1150,Semantic-hierachy,2021.1.2,59.8348842750952,
Trial # 125,layer0-5_T8_to_T9.jpg,layer0-5/layer0-5_T8_to_T9.jpg,TT,layer0-5,0,124,124,124,,,,,,,,,520.3347573110368,None,1.0,1.4497360941022635,520.3347573110368,None,520.3347573110368,None,520.3347573110368,None,lcx,001,2022_Apr_07_1150,Semantic-hierachy,2021.1.2,59.8348842750952,
Trial # 126,layer0-5_O12_to_T8.jpg,layer0-5/layer0-5_O12_to_T8.jpg,OT,layer0-5,0,125,125,125,,,,,,,,,523.9191365351435,None,1.0,1.6284396548289806,523.9191365351435,None,523.9191365351435,None,523.9191365351435,None,lcx,001,2022_Apr_07_1150,Semantic-hierachy,2021.1.2,59.8348842750952,
Trial # 127,layer9-17_O4_to_O6.jpg,layer9-17/layer9-17_O4_to_O6.jpg,OO,layer9-17,0,126,126,126,,,,,,,,,526.1877509979531,None,2.0,3.0120009388774633,526.1877509979531,None,526.1877509979531,None,526.1877509979531,None,lcx,001,2022_Apr_07_1150,Semantic-hierachy,2021.1.2,59.8348842750952,
Trial # 128,layer6-8_O12_to_O6.jpg,layer6-8/layer6-8_O12_to_O6.jpg,OO,layer6-8,0,127,127,127,,,,,,,,,529.537372936029,None,3.0,2.19998261006549,529.537372936029,None,529.537372936029,None,529.537372936029,None,lcx,001,2022_Apr_07_1150,Semantic-hierachy,2021.1.2,59.8348842750952,
Trial # 129,layer0-5_T4_to_T6.jpg,layer0-5/layer0-5_T4_to_T6.jpg,TT,layer0-5,0,128,128,128,,,,,,,,,532.2720741380472,None,1.0,3.859599000075832,532.2720741380472,None,532.2720741380472,None,532.2720741380472,None,lcx,001,2022_Apr_07_1150,Semantic-hierachy,2021.1.2,59.8348842750952,
Trial # 130,layer9-17_O1_to_O3.jpg,layer9-17/layer9-17_O1_to_O3.jpg,OO,layer9-17,0,129,129,129,,,,,,,,,537.7748739109375,None,2.0,1.5782789448276162,537.7748739109375,None,537.7748739109375,None,537.7748739109375,None,lcx,001,2022_Apr_07_1150,Semantic-hierachy,2021.1.2,59.8348842750952,
Trial # 131,layer9-17_O10_to_O3.jpg,layer9-17/layer9-17_O10_to_O3.jpg,OO,layer9-17,0,130,130,130,,,,,,,,,539.6404592511244,None,2.0,1.1179851868655533,539.6404592511244,None,539.6404592511244,None,539.6404592511244,None,lcx,001,2022_Apr_07_1150,Semantic-hierachy,2021.1.2,59.8348842750952,
Trial # 132,layer9-17_O12_to_O3.jpg,layer9-17/layer9-17_O12_to_O3.jpg,OO,layer9-17,0,131,131,131,,,,,,,,,541.1422285339795,None,2.0,1.3517288831062615,541.1422285339795,None,541.1422285339795,None,541.1422285339795,None,lcx,001,2022_Apr_07_1150,Semantic-hierachy,2021.1.2,59.8348842750952,
Trial # 133,layer9-17_O11_to_O4.jpg,layer9-17/layer9-17_O11_to_O4.jpg,OO,layer9-17,0,132,132,132,,,,,,,,,542.7755668140016,None,2.0,3.3824826208874583,542.7755668140016,None,542.7755668140016,None,542.7755668140016,None,lcx,001,2022_Apr_07_1150,Semantic-hierachy,2021.1.2,59.8348842750952,
Trial # 134,layer9-17_T4_to_T7.jpg,layer9-17/layer9-17_T4_to_T7.jpg,TT,layer9-17,0,133,133,133,,,,,,,,,546.4107628059573,None,2.0,2.2487810000311583,546.4107628059573,None,546.4107628059573,None,546.4107628059573,None,lcx,001,2022_Apr_07_1150,Semantic-hierachy,2021.1.2,59.8348842750952,
Trial # 135,layer9-17_O1_to_T1.jpg,layer9-17/layer9-17_O1_to_T1.jpg,OT,layer9-17,0,134,134,134,,,,,,,,,548.9602963970974,None,2.0,1.5089303629938513,548.9602963970974,None,548.9602963970974,None,548.9602963970974,None,lcx,001,2022_Apr_07_1150,Semantic-hierachy,2021.1.2,59.8348842750952,
Trial # 136,layer6-8_T2_to_T5.jpg,layer6-8/layer6-8_T2_to_T5.jpg,TT,layer6-8,0,135,135,135,,,,,,,,,550.9287269569468,None,3.0,2.8292656019330025,550.9287269569468,None,550.9287269569468,None,550.9287269569468,None,lcx,001,2022_Apr_07_1150,Semantic-hierachy,2021.1.2,59.8348842750952,
Trial # 137,layer9-17_T11_to_T7.jpg,layer9-17/layer9-17_T11_to_T7.jpg,TT,layer9-17,0,136,136,136,,,,,,,,,554.4786290589254,None,2.0,3.6134914089925587,554.4786290589254,None,554.4786290589254,None,554.4786290589254,None,lcx,001,2022_Apr_07_1150,Semantic-hierachy,2021.1.2,59.8348842750952,
Trial # 138,layer6-8_O3_to_O8.jpg,layer6-8/layer6-8_O3_to_O8.jpg,OO,layer6-8,0,137,137,137,,,,,,,,,558.4630458210595,None,3.0,2.714973500929773,558.4630458210595,None,558.4630458210595,None,558.4630458210595,None,lcx,001,2022_Apr_07_1150,Semantic-hierachy,2021.1.2,59.8348842750952,
Trial # 139,layer6-8_O1_to_T7.jpg,layer6-8/layer6-8_O1_to_T7.jpg,OT,layer6-8,0,138,138,138,,,,,,,,,561.5152774329763,None,3.0,1.2443688360508531,561.5152774329763,None,561.5152774329763,None,561.5152774329763,None,lcx,001,2022_Apr_07_1150,Semantic-hierachy,2021.1.2,59.8348842750952,
Trial # 140,layer9-17_T1_to_T3.jpg,layer9-17/layer9-17_T1_to_T3.jpg,TT,layer9-17,0,139,139,139,,,,,,,,,563.3647398101166,None,2.0,2.763517083134502,563.3647398101166,None,563.3647398101166,None,563.3647398101166,None,lcx,001,2022_Apr_07_1150,Semantic-hierachy,2021.1.2,59.8348842750952,
Trial # 141,layer6-8_O10_to_O12.jpg,layer6-8/layer6-8_O10_to_O12.jpg,OO,layer6-8,0,140,140,140,,,,,,,,,566.9503909449559,None,2.0,2.7927025770768523,566.9503909449559,None,566.9503909449559,None,566.9503909449559,None,lcx,001,2022_Apr_07_1150,Semantic-hierachy,2021.1.2,59.8348842750952,
Trial # 142,layer6-8_O12_to_T11.jpg,layer6-8/layer6-8_O12_to_T11.jpg,OT,layer6-8,0,141,141,141,,,,,,,,,570.2330180739518,None,2.0,4.313855892978609,570.2330180739518,None,570.2330180739518,None,570.2330180739518,None,lcx,001,2022_Apr_07_1150,Semantic-hierachy,2021.1.2,59.8348842750952,
Trial # 143,layer0-5_O11_to_O5.jpg,layer0-5/layer0-5_O11_to_O5.jpg,OO,layer0-5,0,142,142,142,,,,,,,,,576.0864441921003,None,1.0,1.5764142000116408,576.0864441921003,None,576.0864441921003,None,576.0864441921003,None,lcx,001,2022_Apr_07_1150,Semantic-hierachy,2021.1.2,59.8348842750952,
Trial # 144,layer6-8_O1_to_O8.jpg,layer6-8/layer6-8_O1_to_O8.jpg,OO,layer6-8,0,143,143,143,,,,,,,,,578.0525812851265,None,3.0,1.998361722100526,578.0525812851265,None,578.0525812851265,None,578.0525812851265,None,lcx,001,2022_Apr_07_1150,Semantic-hierachy,2021.1.2,59.8348842750952,
Trial # 145,layer0-5_T2_to_T5.jpg,layer0-5/layer0-5_T2_to_T5.jpg,TT,layer0-5,0,144,144,144,,,,,,,,,581.9719276810065,None,1.0,1.6899989938829094,581.9719276810065,None,581.9719276810065,None,581.9719276810065,None,lcx,001,2022_Apr_07_1150,Semantic-hierachy,2021.1.2,59.8348842750952,
Trial # 146,layer9-17_O8_to_T3.jpg,layer9-17/layer9-17_O8_to_T3.jpg,OT,layer9-17,0,145,145,145,,,,,,,,,583.9544180000667,None,2.0,1.6136142818722874,583.9544180000667,None,583.9544180000667,None,583.9544180000667,None,lcx,001,2022_Apr_07_1150,Semantic-hierachy,2021.1.2,59.8348842750952,
Trial # 147,layer9-17_O8_to_T4.jpg,layer9-17/layer9-17_O8_to_T4.jpg,OT,layer9-17,0,146,146,146,,,,,,,,,586.0064760700334,None,4.0,3.31651130807586,586.0064760700334,None,586.0064760700334,None,586.0064760700334,None,lcx,001,2022_Apr_07_1150,Semantic-hierachy,2021.1.2,59.8348842750952,
Trial # 148,layer9-17_O4_to_T9.jpg,layer9-17/layer9-17_O4_to_T9.jpg,OT,layer9-17,0,147,147,147,,,,,,,,,589.6393493700307,None,2.0,2.1829018669668585,589.6393493700307,None,589.6393493700307,None,589.6393493700307,None,lcx,001,2022_Apr_07_1150,Semantic-hierachy,2021.1.2,59.8348842750952,
Trial # 149,layer6-8_O4_to_O8.jpg,layer6-8/layer6-8_O4_to_O8.jpg,OO,layer6-8,0,148,148,148,,,,,,,,,592.1581889919471,None,3.0,2.3488924279809,592.1581889919471,None,592.1581889919471,None,592.1581889919471,None,lcx,001,2022_Apr_07_1150,Semantic-hierachy,2021.1.2,59.8348842750952,
Trial # 150,layer0-5_O12_to_T7.jpg,layer0-5/layer0-5_O12_to_T7.jpg,OT,layer0-5,0,149,149,149,,,,,,,,,595.3249501080718,None,1.0,1.6751361258793622,595.3249501080718,None,595.3249501080718,None,595.3249501080718,None,lcx,001,2022_Apr_07_1150,Semantic-hierachy,2021.1.2,59.8348842750952,
Trial # 151,layer6-8_T1_to_T3.jpg,layer6-8/layer6-8_T1_to_T3.jpg,TT,layer6-8,,,,,0,0,0,0,,,,,600.8766642459668,None,3.0,4.398997446056455,600.8766642459668,None,600.8766642459668,None,600.8766642459668,None,lcx,001,2022_Apr_07_1150,Semantic-hierachy,2021.1.2,59.8348842750952,
Trial # 152,layer0-5_O8_to_O9.jpg,layer0-5/layer0-5_O8_to_O9.jpg,OO,layer0-5,,,,,0,1,1,1,,,,,606.0616521590855,None,1.0,5.303941324120387,606.0616521590855,None,606.0616521590855,None,606.0616521590855,None,lcx,001,2022_Apr_07_1150,Semantic-hierachy,2021.1.2,59.8348842750952,
Trial # 153,layer9-17_T1_to_T5.jpg,layer9-17/layer9-17_T1_to_T5.jpg,TT,layer9-17,,,,,0,2,2,2,,,,,611.6809338000603,None,2.0,1.5818989230319858,611.6809338000603,None,611.6809338000603,None,611.6809338000603,None,lcx,001,2022_Apr_07_1150,Semantic-hierachy,2021.1.2,59.8348842750952,
Trial # 154,layer6-8_T7_to_T9.jpg,layer6-8/layer6-8_T7_to_T9.jpg,TT,layer6-8,,,,,0,3,3,3,,,,,613.8470683139749,None,3.0,2.47736384999007,613.8470683139749,None,613.8470683139749,None,613.8470683139749,None,lcx,001,2022_Apr_07_1150,Semantic-hierachy,2021.1.2,59.8348842750952,
Trial # 155,layer9-17_T12_to_T7.jpg,layer9-17/layer9-17_T12_to_T7.jpg,TT,layer9-17,,,,,0,4,4,4,,,,,616.6488037609961,None,2.0,1.5453975389245898,616.6488037609961,None,616.6488037609961,None,616.6488037609961,None,lcx,001,2022_Apr_07_1150,Semantic-hierachy,2021.1.2,59.8348842750952,
Trial # 156,layer0-5_O8_to_T11.jpg,layer0-5/layer0-5_O8_to_T11.jpg,OT,layer0-5,,,,,0,5,5,5,,,,,618.6149843151215,None,1.0,2.061496222158894,618.6149843151215,None,618.6149843151215,None,618.6149843151215,None,lcx,001,2022_Apr_07_1150,Semantic-hierachy,2021.1.2,59.8348842750952,
Trial # 157,layer0-5_O1_to_O9.jpg,layer0-5/layer0-5_O1_to_O9.jpg,OO,layer0-5,,,,,0,6,6,6,,,,,623.9834482150618,None,1.0,1.7475155191496015,623.9834482150618,None,623.9834482150618,None,623.9834482150618,None,lcx,001,2022_Apr_07_1150,Semantic-hierachy,2021.1.2,59.8348842750952,
Trial # 158,layer0-5_O10_to_O12.jpg,layer0-5/layer0-5_O10_to_O12.jpg,OO,layer0-5,,,,,0,7,7,7,,,,,626.0678832819685,None,1.0,1.0987953848671168,626.0678832819685,None,626.0678832819685,None,626.0678832819685,None,lcx,001,2022_Apr_07_1150,Semantic-hierachy,2021.1.2,59.8348842750952,
Trial # 159,layer6-8_O10_to_T5.jpg,layer6-8/layer6-8_O10_to_T5.jpg,OT,layer6-8,,,,,0,8,8,8,,,,,627.5024082609452,None,3.0,2.179065130883828,627.5024082609452,None,627.5024082609452,None,627.5024082609452,None,lcx,001,2022_Apr_07_1150,Semantic-hierachy,2021.1.2,59.8348842750952,
Trial # 160,layer6-8_O5_to_O6.jpg,layer6-8/layer6-8_O5_to_O6.jpg,OO,layer6-8,,,,,0,9,9,9,,,,,630.0185881440993,None,2.0,1.5171939239371568,630.0185881440993,None,630.0185881440993,None,630.0185881440993,None,lcx,001,2022_Apr_07_1150,Semantic-hierachy,2021.1.2,59.8348842750952,
Trial # 161,layer6-8_O6_to_T11.jpg,layer6-8/layer6-8_O6_to_T11.jpg,OT,layer6-8,,,,,0,10,10,10,,,,,631.8537097671069,None,3.0,3.162758548045531,631.8537097671069,None,631.8537097671069,None,631.8537097671069,None,lcx,001,2022_Apr_07_1150,Semantic-hierachy,2021.1.2,59.8348842750952,
Trial # 162,layer9-17_O12_to_O9.jpg,layer9-17/layer9-17_O12_to_O9.jpg,OO,layer9-17,,,,,0,11,11,11,,,,,637.4219545191154,None,2.0,2.3324603110086173,637.4219545191154,None,637.4219545191154,None,637.4219545191154,None,lcx,001,2022_Apr_07_1150,Semantic-hierachy,2021.1.2,59.8348842750952,
Trial # 163,layer6-8_O12_to_T6.jpg,layer6-8/layer6-8_O12_to_T6.jpg,OT,layer6-8,,,,,0,12,12,12,,,,,640.0881297430024,None,4.0,3.006545745069161,640.0881297430024,None,640.0881297430024,None,640.0881297430024,None,lcx,001,2022_Apr_07_1150,Semantic-hierachy,2021.1.2,59.8348842750952,
Trial # 164,layer0-5_T11_to_T7.jpg,layer0-5/layer0-5_T11_to_T7.jpg,TT,layer0-5,,,,,0,13,13,13,,,,,643.4734085730743,None,1.0,3.1295122371520847,643.4734085730743,None,643.4734085730743,None,643.4734085730743,None,lcx,001,2022_Apr_07_1150,Semantic-hierachy,2021.1.2,59.8348842750952,
Trial # 165,layer9-17_O10_to_T5.jpg,layer9-17/layer9-17_O10_to_T5.jpg,OT,layer9-17,,,,,0,14,14,14,,,,,646.9415710880421,None,4.0,5.252788417041302,646.9415710880421,None,646.9415710880421,None,646.9415710880421,None,lcx,001,2022_Apr_07_1150,Semantic-hierachy,2021.1.2,59.8348842750952,
Trial # 166,layer9-17_T1_to_T6.jpg,layer9-17/layer9-17_T1_to_T6.jpg,TT,layer9-17,,,,,0,15,15,15,,,,,652.5265855221078,None,2.0,2.147624518023804,652.5265855221078,None,652.5265855221078,None,652.5265855221078,None,lcx,001,2022_Apr_07_1150,Semantic-hierachy,2021.1.2,59.8348842750952,
Trial # 167,layer0-5_T1_to_T3.jpg,layer0-5/layer0-5_T1_to_T3.jpg,TT,layer0-5,,,,,0,16,16,16,,,,,654.9594226940535,None,1.0,1.6581242009997368,654.9594226940535,None,654.9594226940535,None,654.9594226940535,None,lcx,001,2022_Apr_07_1150,Semantic-hierachy,2021.1.2,59.8348842750952,
Trial # 168,layer0-5_O2_to_O9.jpg,layer0-5/layer0-5_O2_to_O9.jpg,OO,layer0-5,,,,,0,17,17,17,,,,,656.9107434889302,None,1.0,2.981409011874348,656.9107434889302,None,656.9107434889302,None,656.9107434889302,None,lcx,001,2022_Apr_07_1150,Semantic-hierachy,2021.1.2,59.8348842750952,
Trial # 169,layer9-17_O3_to_T4.jpg,layer9-17/layer9-17_O3_to_T4.jpg,OT,layer9-17,,,,,0,18,18,18,,,,,660.1281338660046,None,2.0,1.6677126721478999,660.1281338660046,None,660.1281338660046,None,660.1281338660046,None,lcx,001,2022_Apr_07_1150,Semantic-hierachy,2021.1.2,59.8348842750952,
Trial # 170,layer6-8_O11_to_O9.jpg,layer6-8/layer6-8_O11_to_O9.jpg,OO,layer6-8,,,,,0,19,19,19,,,,,662.1795443571173,None,3.0,5.045808528084308,662.1795443571173,None,662.1795443571173,None,662.1795443571173,None,lcx,001,2022_Apr_07_1150,Semantic-hierachy,2021.1.2,59.8348842750952,
Trial # 171,layer9-17_O1_to_O7.jpg,layer9-17/layer9-17_O1_to_O7.jpg,OO,layer9-17,,,,,0,20,20,20,,,,,667.8817956359126,None,4.0,8.236101939808577,667.8817956359126,None,667.8817956359126,None,667.8817956359126,None,lcx,001,2022_Apr_07_1150,Semantic-hierachy,2021.1.2,59.8348842750952,
Trial # 172,layer0-5_T12_to_T4.jpg,layer0-5/layer0-5_T12_to_T4.jpg,TT,layer0-5,,,,,0,21,21,21,,,,,676.516952786129,None,1.0,2.426163835916668,676.516952786129,None,676.516952786129,None,676.516952786129,None,lcx,001,2022_Apr_07_1150,Semantic-hierachy,2021.1.2,59.8348842750952,
Trial # 173,layer0-5_O4_to_T4.jpg,layer0-5/layer0-5_O4_to_T4.jpg,OT,layer0-5,,,,,0,22,22,22,,,,,680.4849806530401,None,1.0,2.198330577928573,680.4849806530401,None,680.4849806530401,None,680.4849806530401,None,lcx,001,2022_Apr_07_1150,Semantic-hierachy,2021.1.2,59.8348842750952,
Trial # 174,layer6-8_T12_to_T5.jpg,layer6-8/layer6-8_T12_to_T5.jpg,TT,layer6-8,,,,,0,23,23,23,,,,,683.2517760680057,None,4.0,9.234785416163504,683.2517760680057,None,683.2517760680057,None,683.2517760680057,None,lcx,001,2022_Apr_07_1150,Semantic-hierachy,2021.1.2,59.8348842750952,
Trial # 175,layer6-8_O11_to_T1.jpg,layer6-8/layer6-8_O11_to_T1.jpg,OT,layer6-8,,,,,0,24,24,24,,,,,693.038850069046,None,3.0,2.9830219249706715,693.038850069046,None,693.038850069046,None,693.038850069046,None,lcx,001,2022_Apr_07_1150,Semantic-hierachy,2021.1.2,59.8348842750952,
Trial # 176,layer0-5_O7_to_T8.jpg,layer0-5/layer0-5_O7_to_T8.jpg,OT,layer0-5,,,,,0,25,25,25,,,,,696.6894681700505,None,1.0,1.742626013001427,696.6894681700505,None,696.6894681700505,None,696.6894681700505,None,lcx,001,2022_Apr_07_1150,Semantic-hierachy,2021.1.2,59.8348842750952,
Trial # 177,layer0-5_O11_to_T5.jpg,layer0-5/layer0-5_O11_to_T5.jpg,OT,layer0-5,,,,,0,26,26,26,,,,,698.7570419090334,None,1.0,1.0959562549833208,698.7570419090334,None,698.7570419090334,None,698.7570419090334,None,lcx,001,2022_Apr_07_1150,Semantic-hierachy,2021.1.2,59.8348842750952,
Trial # 178,layer9-17_O2_to_T2.jpg,layer9-17/layer9-17_O2_to_T2.jpg,OT,layer9-17,,,,,0,27,27,27,,,,,700.4899809660856,None,2.0,5.44127063988708,700.4899809660856,None,700.4899809660856,None,700.4899809660856,None,lcx,001,2022_Apr_07_1150,Semantic-hierachy,2021.1.2,59.8348842750952,
Trial # 179,layer0-5_O4_to_T9.jpg,layer0-5/layer0-5_O4_to_T9.jpg,OT,layer0-5,,,,,0,28,28,28,,,,,706.5761089639273,None,1.0,1.492646923987195,706.5761089639273,None,706.5761089639273,None,706.5761089639273,None,lcx,001,2022_Apr_07_1150,Semantic-hierachy,2021.1.2,59.8348842750952,
Trial # 180,layer9-17_T6_to_T8.jpg,layer9-17/layer9-17_T6_to_T8.jpg,TT,layer9-17,,,,,0,29,29,29,,,,,708.3928996899631,None,2.0,2.0740505310241133,708.3928996899631,None,708.3928996899631,None,708.3928996899631,None,lcx,001,2022_Apr_07_1150,Semantic-hierachy,2021.1.2,59.8348842750952,
Trial # 181,layer9-17_O12_to_O5.jpg,layer9-17/layer9-17_O12_to_O5.jpg,OO,layer9-17,,,,,0,30,30,30,,,,,710.9780715319794,None,2.0,1.0636593780945987,710.9780715319794,None,710.9780715319794,None,710.9780715319794,None,lcx,001,2022_Apr_07_1150,Semantic-hierachy,2021.1.2,59.8348842750952,
Trial # 182,layer6-8_O1_to_O7.jpg,layer6-8/layer6-8_O1_to_O7.jpg,OO,layer6-8,,,,,0,31,31,31,,,,,712.4273100120481,None,3.0,2.3817809019237757,712.4273100120481,None,712.4273100120481,None,712.4273100120481,None,lcx,001,2022_Apr_07_1150,Semantic-hierachy,2021.1.2,59.8348842750952,
Trial # 183,layer6-8_O3_to_T10.jpg,layer6-8/layer6-8_O3_to_T10.jpg,OT,layer6-8,,,,,0,32,32,32,,,,,716.8634497120511,None,3.0,1.7797832291107625,716.8634497120511,None,716.8634497120511,None,716.8634497120511,None,lcx,001,2022_Apr_07_1150,Semantic-hierachy,2021.1.2,59.8348842750952,
Trial # 184,layer0-5_O1_to_T11.jpg,layer0-5/layer0-5_O1_to_T11.jpg,OT,layer0-5,,,,,0,33,33,33,,,,,719.4293264730368,None,1.0,3.3136616651900113,719.4293264730368,None,719.4293264730368,None,719.4293264730368,None,lcx,001,2022_Apr_07_1150,Semantic-hierachy,2021.1.2,59.8348842750952,
Trial # 185,layer6-8_O8_to_O9.jpg,layer6-8/layer6-8_O8_to_O9.jpg,OO,layer6-8,,,,,0,34,34,34,,,,,723.0977520279121,None,3.0,2.8302225649822503,723.0977520279121,None,723.0977520279121,None,723.0977520279121,None,lcx,001,2022_Apr_07_1150,Semantic-hierachy,2021.1.2,59.8348842750952,
Trial # 186,layer9-17_O4_to_O9.jpg,layer9-17/layer9-17_O4_to_O9.jpg,OO,layer9-17,,,,,0,35,35,35,,,,,726.2662761600222,None,2.0,3.9919487580191344,726.2662761600222,None,726.2662761600222,None,726.2662761600222,None,lcx,001,2022_Apr_07_1150,Semantic-hierachy,2021.1.2,59.8348842750952,
Trial # 187,layer0-5_O12_to_O5.jpg,layer0-5/layer0-5_O12_to_O5.jpg,OO,layer0-5,,,,,0,36,36,36,,,,,731.6678619349841,None,1.0,3.331901303026825,731.6678619349841,None,731.6678619349841,None,731.6678619349841,None,lcx,001,2022_Apr_07_1150,Semantic-hierachy,2021.1.2,59.8348842750952,
Trial # 188,layer6-8_T12_to_T4.jpg,layer6-8/layer6-8_T12_to_T4.jpg,TT,layer6-8,,,,,0,37,37,37,,,,,735.2677666009404,None,4.0,6.417115140007809,735.2677666009404,None,735.2677666009404,None,735.2677666009404,None,lcx,001,2022_Apr_07_1150,Semantic-hierachy,2021.1.2,59.8348842750952,
Trial # 189,layer0-5_T6_to_T8.jpg,layer0-5/layer0-5_T6_to_T8.jpg,TT,layer0-5,,,,,0,38,38,38,,,,,742.6039873450063,None,1.0,1.6948095571715385,742.6039873450063,None,742.6039873450063,None,742.6039873450063,None,lcx,001,2022_Apr_07_1150,Semantic-hierachy,2021.1.2,59.8348842750952,
Trial # 190,layer6-8_O11_to_T2.jpg,layer6-8/layer6-8_O11_to_T2.jpg,OT,layer6-8,,,,,0,39,39,39,,,,,744.6039629420266,None,3.0,16.101754311006516,744.6039629420266,None,744.6039629420266,None,744.6039629420266,None,lcx,001,2022_Apr_07_1150,Semantic-hierachy,2021.1.2,59.8348842750952,
Trial # 191,layer6-8_O1_to_O3.jpg,layer6-8/layer6-8_O1_to_O3.jpg,OO,layer6-8,,,,,0,40,40,40,,,,,761.1429110029712,None,4.0,2.4787172409705818,761.1429110029712,None,761.1429110029712,None,761.1429110029712,None,lcx,001,2022_Apr_07_1150,Semantic-hierachy,2021.1.2,59.8348842750952,
Trial # 192,layer0-5_O7_to_T1.jpg,layer0-5/layer0-5_O7_to_T1.jpg,OT,layer0-5,,,,,0,41,41,41,,,,,764.1602617369499,None,1.0,1.5136846581008285,764.1602617369499,None,764.1602617369499,None,764.1602617369499,None,lcx,001,2022_Apr_07_1150,Semantic-hierachy,2021.1.2,59.8348842750952,
Trial # 193,layer6-8_O3_to_T7.jpg,layer6-8/layer6-8_O3_to_T7.jpg,OT,layer6-8,,,,,0,42,42,42,,,,,766.145032945089,None,3.0,1.8612787469755858,766.145032945089,None,766.145032945089,None,766.145032945089,None,lcx,001,2022_Apr_07_1150,Semantic-hierachy,2021.1.2,59.8348842750952,
Trial # 194,layer9-17_T10_to_T6.jpg,layer9-17/layer9-17_T10_to_T6.jpg,TT,layer9-17,,,,,0,43,43,43,,,,,772.7300299389753,None,2.0,1.3976456951349974,772.7300299389753,None,772.7300299389753,None,772.7300299389753,None,lcx,001,2022_Apr_07_1150,Semantic-hierachy,2021.1.2,59.8348842750952,
Trial # 195,layer6-8_T2_to_T9.jpg,layer6-8/layer6-8_T2_to_T9.jpg,TT,layer6-8,,,,,0,44,44,44,,,,,774.4801961129997,None,3.0,5.561478598974645,774.4801961129997,None,774.4801961129997,None,774.4801961129997,None,lcx,001,2022_Apr_07_1150,Semantic-hierachy,2021.1.2,59.8348842750952,
Trial # 196,layer0-5_O3_to_T3.jpg,layer0-5/layer0-5_O3_to_T3.jpg,OT,layer0-5,,,,,0,45,45,45,,,,,780.515050793998,None,1.0,3.961417648009956,780.515050793998,None,780.515050793998,None,780.515050793998,None,lcx,001,2022_Apr_07_1150,Semantic-hierachy,2021.1.2,59.8348842750952,
Trial # 197,layer9-17_O1_to_O2.jpg,layer9-17/layer9-17_O1_to_O2.jpg,OO,layer9-17,,,,,0,46,46,46,,,,,785.1832744621206,None,3.0,7.456075870897621,785.1832744621206,None,785.1832744621206,None,785.1832744621206,None,lcx,001,2022_Apr_07_1150,Semantic-hierachy,2021.1.2,59.8348842750952,
Trial # 198,layer9-17_T2_to_T9.jpg,layer9-17/layer9-17_T2_to_T9.jpg,TT,layer9-17,,,,,0,47,47,47,,,,,793.0856664609164,None,2.0,1.530086037935689,793.0856664609164,None,793.0856664609164,None,793.0856664609164,None,lcx,001,2022_Apr_07_1150,Semantic-hierachy,2021.1.2,59.8348842750952,
Trial # 199,layer9-17_O6_to_T10.jpg,layer9-17/layer9-17_O6_to_T10.jpg,OT,layer9-17,,,,,0,48,48,48,,,,,794.9361476979684,None,2.0,2.0290753478184342,794.9361476979684,None,794.9361476979684,None,794.9361476979684,None,lcx,001,2022_Apr_07_1150,Semantic-hierachy,2021.1.2,59.8348842750952,
Trial # 200,layer0-5_T12_to_T5.jpg,layer0-5/layer0-5_T12_to_T5.jpg,TT,layer0-5,,,,,0,49,49,49,,,,,797.2383968520444,None,1.0,1.3816709991078824,797.2383968520444,None,797.2383968520444,None,797.2383968520444,None,lcx,001,2022_Apr_07_1150,Semantic-hierachy,2021.1.2,59.8348842750952,
Trial # 201,layer0-5_O10_to_T10.jpg,layer0-5/layer0-5_O10_to_T10.jpg,OT,layer0-5,,,,,0,50,50,50,,,,,798.9040357889608,None,1.0,1.1430099359713495,798.9040357889608,None,798.9040357889608,None,798.9040357889608,None,lcx,001,2022_Apr_07_1150,Semantic-hierachy,2021.1.2,59.8348842750952,
Trial # 202,layer9-17_T11_to_T12.jpg,layer9-17/layer9-17_T11_to_T12.jpg,TT,layer9-17,,,,,0,51,51,51,,,,,800.8393989689648,None,2.0,1.584541509859264,800.8393989689648,None,800.8393989689648,None,800.8393989689648,None,lcx,001,2022_Apr_07_1150,Semantic-hierachy,2021.1.2,59.8348842750952,
Trial # 203,layer6-8_T3_to_T5.jpg,layer6-8/layer6-8_T3_to_T5.jpg,TT,layer6-8,,,,,0,52,52,52,,,,,802.855536001036,None,3.0,3.597067635972053,802.855536001036,None,802.855536001036,None,802.855536001036,None,lcx,001,2022_Apr_07_1150,Semantic-hierachy,2021.1.2,59.8348842750952,
Trial # 204,layer0-5_O5_to_T10.jpg,layer0-5/layer0-5_O5_to_T10.jpg,OT,layer0-5,,,,,0,53,53,53,,,,,807.1078418649267,None,1.0,2.559990207897499,807.1078418649267,None,807.1078418649267,None,807.1078418649267,None,lcx,001,2022_Apr_07_1150,Semantic-hierachy,2021.1.2,59.8348842750952,
Trial # 205,layer0-5_O10_to_O5.jpg,layer0-5/layer0-5_O10_to_O5.jpg,OO,layer0-5,,,,,0,54,54,54,,,,,810.3737774719484,None,1.0,2.2163994039874524,810.3737774719484,None,810.3737774719484,None,810.3737774719484,None,lcx,001,2022_Apr_07_1150,Semantic-hierachy,2021.1.2,59.8348842750952,
Trial # 206,layer0-5_O5_to_O7.jpg,layer0-5/layer0-5_O5_to_O7.jpg,OO,layer0-5,,,,,0,55,55,55,,,,,813.9920493511017,None,1.0,1.4776938741561025,813.9920493511017,None,813.9920493511017,None,813.9920493511017,None,lcx,001,2022_Apr_07_1150,Semantic-hierachy,2021.1.2,59.8348842750952,
Trial # 207,layer0-5_O3_to_T10.jpg,layer0-5/layer0-5_O3_to_T10.jpg,OT,layer0-5,,,,,0,56,56,56,,,,,815.8770206030458,None,1.0,1.3707856219261885,815.8770206030458,None,815.8770206030458,None,815.8770206030458,None,lcx,001,2022_Apr_07_1150,Semantic-hierachy,2021.1.2,59.8348842750952,
Trial # 208,layer0-5_O4_to_O5.jpg,layer0-5/layer0-5_O4_to_O5.jpg,OO,layer0-5,,,,,0,57,57,57,,,,,817.8602030950133,None,1.0,1.341404230101034,817.8602030950133,None,817.8602030950133,None,817.8602030950133,None,lcx,001,2022_Apr_07_1150,Semantic-hierachy,2021.1.2,59.8348842750952,
Trial # 209,layer6-8_T12_to_T3.jpg,layer6-8/layer6-8_T12_to_T3.jpg,TT,layer6-8,,,,,0,58,58,58,,,,,819.6774456619751,None,2.0,3.382637014845386,819.6774456619751,None,819.6774456619751,None,819.6774456619751,None,lcx,001,2022_Apr_07_1150,Semantic-hierachy,2021.1.2,59.8348842750952,
Trial # 210,layer6-8_O7_to_T9.jpg,layer6-8/layer6-8_O7_to_T9.jpg,OT,layer6-8,,,,,0,59,59,59,,,,,823.7619529159274,None,3.0,2.0450517581775784,823.7619529159274,None,823.7619529159274,None,823.7619529159274,None,lcx,001,2022_Apr_07_1150,Semantic-hierachy,2021.1.2,59.8348842750952,
Trial # 211,layer6-8_O1_to_O11.jpg,layer6-8/layer6-8_O1_to_O11.jpg,OO,layer6-8,,,,,0,60,60,60,,,,,826.3975359729957,None,3.0,1.3628416149877012,826.3975359729957,None,826.3975359729957,None,826.3975359729957,None,lcx,001,2022_Apr_07_1150,Semantic-hierachy,2021.1.2,59.8348842750952,
Trial # 212,layer6-8_T2_to_T6.jpg,layer6-8/layer6-8_T2_to_T6.jpg,TT,layer6-8,,,,,0,61,61,61,,,,,828.996827933006,None,3.0,1.2482655579224229,828.996827933006,None,828.996827933006,None,828.996827933006,None,lcx,001,2022_Apr_07_1150,Semantic-hierachy,2021.1.2,59.8348842750952,
Trial # 213,layer6-8_O10_to_O6.jpg,layer6-8/layer6-8_O10_to_O6.jpg,OO,layer6-8,,,,,0,62,62,62,,,,,831.8815153809264,None,3.0,2.0441267450805753,831.8815153809264,None,831.8815153809264,None,831.8815153809264,None,lcx,001,2022_Apr_07_1150,Semantic-hierachy,2021.1.2,59.8348842750952,
Trial # 214,layer9-17_T5_to_T8.jpg,layer9-17/layer9-17_T5_to_T8.jpg,TT,layer9-17,,,,,0,63,63,63,,,,,835.966138815973,None,2.0,2.5304403519257903,835.966138815973,None,835.966138815973,None,835.966138815973,None,lcx,001,2022_Apr_07_1150,Semantic-hierachy,2021.1.2,59.8348842750952,
Trial # 215,layer9-17_O3_to_T10.jpg,layer9-17/layer9-17_O3_to_T10.jpg,OT,layer9-17,,,,,0,64,64,64,,,,,840.7174596479163,None,2.0,1.8103177489247173,840.7174596479163,None,840.7174596479163,None,840.7174596479163,None,lcx,001,2022_Apr_07_1150,Semantic-hierachy,2021.1.2,59.8348842750952,
Trial # 216,layer6-8_O12_to_O3.jpg,layer6-8/layer6-8_O12_to_O3.jpg,OO,layer6-8,,,,,0,65,65,65,,,,,843.1844641070347,None,4.0,2.4578183558769524,843.1844641070347,None,843.1844641070347,None,843.1844641070347,None,lcx,001,2022_Apr_07_1150,Semantic-hierachy,2021.1.2,59.8348842750952,
Trial # 217,layer0-5_T10_to_T2.jpg,layer0-5/layer0-5_T10_to_T2.jpg,TT,layer0-5,,,,,0,66,66,66,,,,,846.369471463142,None,1.0,1.9050371879711747,846.369471463142,None,846.369471463142,None,846.369471463142,None,lcx,001,2022_Apr_07_1150,Semantic-hierachy,2021.1.2,59.8348842750952,
Trial # 218,layer9-17_O10_to_O6.jpg,layer9-17/layer9-17_O10_to_O6.jpg,OO,layer9-17,,,,,0,67,67,67,,,,,848.6028114520013,None,3.0,3.5402673999778926,848.6028114520013,None,848.6028114520013,None,848.6028114520013,None,lcx,001,2022_Apr_07_1150,Semantic-hierachy,2021.1.2,59.8348842750952,
Trial # 219,layer6-8_O6_to_O9.jpg,layer6-8/layer6-8_O6_to_O9.jpg,OO,layer6-8,,,,,0,68,68,68,,,,,852.5045469580218,None,3.0,4.663828647928312,852.5045469580218,None,852.5045469580218,None,852.5045469580218,None,lcx,001,2022_Apr_07_1150,Semantic-hierachy,2021.1.2,59.8348842750952,
Trial # 220,layer0-5_O7_to_T2.jpg,layer0-5/layer0-5_O7_to_T2.jpg,OT,layer0-5,,,,,0,69,69,69,,,,,857.8403587040957,None,1.0,2.6634881768841296,857.8403587040957,None,857.8403587040957,None,857.8403587040957,None,lcx,001,2022_Apr_07_1150,Semantic-hierachy,2021.1.2,59.8348842750952,
Trial # 221,layer9-17_T12_to_T2.jpg,layer9-17/layer9-17_T12_to_T2.jpg,TT,layer9-17,,,,,0,70,70,70,,,,,861.0237027099356,None,2.0,1.9083622680045664,861.0237027099356,None,861.0237027099356,None,861.0237027099356,None,lcx,001,2022_Apr_07_1150,Semantic-hierachy,2021.1.2,59.8348842750952,
Trial # 222,layer9-17_O8_to_T11.jpg,layer9-17/layer9-17_O8_to_T11.jpg,OT,layer9-17,,,,,0,71,71,71,,,,,864.8242411969695,None,4.0,8.3303133379668,864.8242411969695,None,864.8242411969695,None,864.8242411969695,None,lcx,001,2022_Apr_07_1150,Semantic-hierachy,2021.1.2,59.8348842750952,
Trial # 223,layer6-8_O3_to_T9.jpg,layer6-8/layer6-8_O3_to_T9.jpg,OT,layer6-8,,,,,0,72,72,72,,,,,875.277893695049,None,3.0,2.0346524780616164,875.277893695049,None,875.277893695049,None,875.277893695049,None,lcx,001,2022_Apr_07_1150,Semantic-hierachy,2021.1.2,59.8348842750952,
Trial # 224,layer0-5_O6_to_O9.jpg,layer0-5/layer0-5_O6_to_O9.jpg,OO,layer0-5,,,,,0,73,73,73,,,,,877.8961692231242,None,1.0,1.588995393132791,877.8961692231242,None,877.8961692231242,None,877.8961692231242,None,lcx,001,2022_Apr_07_1150,Semantic-hierachy,2021.1.2,59.8348842750952,
Trial # 225,layer0-5_O12_to_T1.jpg,layer0-5/layer0-5_O12_to_T1.jpg,OT,layer0-5,,,,,0,74,74,74,,,,,879.7792652731296,None,1.0,4.0318072128575295,879.7792652731296,None,879.7792652731296,None,879.7792652731296,None,lcx,001,2022_Apr_07_1150,Semantic-hierachy,2021.1.2,59.8348842750952,
Trial # 226,layer9-17_O2_to_T8.jpg,layer9-17/layer9-17_O2_to_T8.jpg,OT,layer9-17,,,,,0,75,75,75,,,,,891.6175819120836,None,2.0,1.447201149072498,891.6175819120836,None,891.6175819120836,None,891.6175819120836,None,lcx,001,2022_Apr_07_1150,Semantic-hierachy,2021.1.2,59.8348842750952,
Trial # 227,layer0-5_T4_to_T8.jpg,layer0-5/layer0-5_T4_to_T8.jpg,TT,layer0-5,,,,,0,76,76,76,,,,,893.5169056809973,None,1.0,2.543905976926908,893.5169056809973,None,893.5169056809973,None,893.5169056809973,None,lcx,001,2022_Apr_07_1150,Semantic-hierachy,2021.1.2,59.8348842750952,
Trial # 228,layer9-17_O2_to_T1.jpg,layer9-17/layer9-17_O2_to_T1.jpg,OT,layer9-17,,,,,0,77,77,77,,,,,897.4679431510158,None,2.0,1.7803909070789814,897.4679431510158,None,897.4679431510158,None,897.4679431510158,None,lcx,001,2022_Apr_07_1150,Semantic-hierachy,2021.1.2,59.8348842750952,
Trial # 229,layer0-5_O11_to_O7.jpg,layer0-5/layer0-5_O11_to_O7.jpg,OO,layer0-5,,,,,0,78,78,78,,,,,899.8856087310705,None,1.0,1.327512183925137,899.8856087310705,None,899.8856087310705,None,899.8856087310705,None,lcx,001,2022_Apr_07_1150,Semantic-hierachy,2021.1.2,59.8348842750952,
Trial # 230,layer6-8_T2_to_T8.jpg,layer6-8/layer6-8_T2_to_T8.jpg,TT,layer6-8,,,,,0,79,79,79,,,,,901.5871993009932,None,3.0,3.8290742109529674,901.5871993009932,None,901.5871993009932,None,901.5871993009932,None,lcx,001,2022_Apr_07_1150,Semantic-hierachy,2021.1.2,59.8348842750952,
Trial # 231,layer9-17_T4_to_T8.jpg,layer9-17/layer9-17_T4_to_T8.jpg,TT,layer9-17,,,,,0,80,80,80,,,,,905.9211247439962,None,2.0,2.0967889179009944,905.9211247439962,None,905.9211247439962,None,905.9211247439962,None,lcx,001,2022_Apr_07_1150,Semantic-hierachy,2021.1.2,59.8348842750952,
Trial # 232,layer9-17_T11_to_T3.jpg,layer9-17/layer9-17_T11_to_T3.jpg,TT,layer9-17,,,,,0,81,81,81,,,,,910.3886403751094,None,2.0,1.3627785730641335,910.3886403751094,None,910.3886403751094,None,910.3886403751094,None,lcx,001,2022_Apr_07_1150,Semantic-hierachy,2021.1.2,59.8348842750952,
Trial # 233,layer0-5_O3_to_T9.jpg,layer0-5/layer0-5_O3_to_T9.jpg,OT,layer0-5,,,,,0,82,82,82,,,,,912.0571704041213,None,1.0,1.481674131937325,912.0571704041213,None,912.0571704041213,None,912.0571704041213,None,lcx,001,2022_Apr_07_1150,Semantic-hierachy,2021.1.2,59.8348842750952,
Trial # 234,layer9-17_T7_to_T8.jpg,layer9-17/layer9-17_T7_to_T8.jpg,TT,layer9-17,,,,,0,83,83,83,,,,,914.0065906080417,None,3.0,4.045373447937891,914.0065906080417,None,914.0065906080417,None,914.0065906080417,None,lcx,001,2022_Apr_07_1150,Semantic-hierachy,2021.1.2,59.8348842750952,
Trial # 235,layer9-17_O3_to_O4.jpg,layer9-17/layer9-17_O3_to_O4.jpg,OO,layer9-17,,,,,0,84,84,84,,,,,918.4910100291017,None,2.0,2.7145771589130163,918.4910100291017,None,918.4910100291017,None,918.4910100291017,None,lcx,001,2022_Apr_07_1150,Semantic-hierachy,2021.1.2,59.8348842750952,
Trial # 236,layer6-8_O8_to_T6.jpg,layer6-8/layer6-8_O8_to_T6.jpg,OT,layer6-8,,,,,0,85,85,85,,,,,921.6769170460757,None,3.0,4.93351048999466,921.6769170460757,None,921.6769170460757,None,921.6769170460757,None,lcx,001,2022_Apr_07_1150,Semantic-hierachy,2021.1.2,59.8348842750952,
Trial # 237,layer9-17_T6_to_T7.jpg,layer9-17/layer9-17_T6_to_T7.jpg,TT,layer9-17,,,,,0,86,86,86,,,,,927.4952331250533,None,2.0,1.5777768699917942,927.4952331250533,None,927.4952331250533,None,927.4952331250533,None,lcx,001,2022_Apr_07_1150,Semantic-hierachy,2021.1.2,59.8348842750952,
Trial # 238,layer0-5_T2_to_T9.jpg,layer0-5/layer0-5_T2_to_T9.jpg,TT,layer0-5,,,,,0,87,87,87,,,,,929.3278987850063,None,1.0,1.6788851651363075,929.3278987850063,None,929.3278987850063,None,929.3278987850063,None,lcx,001,2022_Apr_07_1150,Semantic-hierachy,2021.1.2,59.8348842750952,
Trial # 239,layer0-5_O2_to_O5.jpg,layer0-5/layer0-5_O2_to_O5.jpg,OO,layer0-5,,,,,0,88,88,88,,,,,931.3622475329321,None,1.0,1.498024330008775,931.3622475329321,None,931.3622475329321,None,931.3622475329321,None,lcx,001,2022_Apr_07_1150,Semantic-hierachy,2021.1.2,59.8348842750952,
Trial # 240,layer6-8_O1_to_O5.jpg,layer6-8/layer6-8_O1_to_O5.jpg,OO,layer6-8,,,,,0,89,89,89,,,,,933.6956684079487,None,4.0,2.9604360489174724,933.6956684079487,None,933.6956684079487,None,933.6956684079487,None,lcx,001,2022_Apr_07_1150,Semantic-hierachy,2021.1.2,59.8348842750952,
Trial # 241,layer9-17_O3_to_O7.jpg,layer9-17/layer9-17_O3_to_O7.jpg,OO,layer9-17,,,,,0,90,90,90,,,,,937.164855435025,None,2.0,5.045070374151692,937.164855435025,None,937.164855435025,None,937.164855435025,None,lcx,001,2022_Apr_07_1150,Semantic-hierachy,2021.1.2,59.8348842750952,
Trial # 242,layer6-8_O11_to_O8.jpg,layer6-8/layer6-8_O11_to_O8.jpg,OO,layer6-8,,,,,0,91,91,91,,,,,942.5319832810201,None,3.0,3.5608534361235797,942.5319832810201,None,942.5319832810201,None,942.5319832810201,None,lcx,001,2022_Apr_07_1150,Semantic-hierachy,2021.1.2,59.8348842750952,
Trial # 243,layer9-17_T1_to_T12.jpg,layer9-17/layer9-17_T1_to_T12.jpg,TT,layer9-17,,,,,0,92,92,92,,,,,946.4669596229214,None,2.0,1.5094469180330634,946.4669596229214,None,946.4669596229214,None,946.4669596229214,None,lcx,001,2022_Apr_07_1150,Semantic-hierachy,2021.1.2,59.8348842750952,
Trial # 244,layer9-17_O6_to_O8.jpg,layer9-17/layer9-17_O6_to_O8.jpg,OO,layer9-17,,,,,0,93,93,93,,,,,948.2669926399831,None,3.0,5.153583499137312,948.2669926399831,None,948.2669926399831,None,948.2669926399831,None,lcx,001,2022_Apr_07_1150,Semantic-hierachy,2021.1.2,59.8348842750952,
Trial # 245,layer6-8_O4_to_T11.jpg,layer6-8/layer6-8_O4_to_T11.jpg,OT,layer6-8,,,,,0,94,94,94,,,,,953.7520368080586,None,3.0,1.8729580328799784,953.7520368080586,None,953.7520368080586,None,953.7520368080586,None,lcx,001,2022_Apr_07_1150,Semantic-hierachy,2021.1.2,59.8348842750952,
Trial # 246,layer9-17_T10_to_T3.jpg,layer9-17/layer9-17_T10_to_T3.jpg,TT,layer9-17,,,,,0,95,95,95,,,,,955.9369887430221,None,2.0,1.8806408389937133,955.9369887430221,None,955.9369887430221,None,955.9369887430221,None,lcx,001,2022_Apr_07_1150,Semantic-hierachy,2021.1.2,59.8348842750952,
Trial # 247,layer0-5_O10_to_O8.jpg,layer0-5/layer0-5_O10_to_O8.jpg,OO,layer0-5,,,,,0,96,96,96,,,,,958.1701805191115,None,1.0,1.662517671007663,958.1701805191115,None,958.1701805191115,None,958.1701805191115,None,lcx,001,2022_Apr_07_1150,Semantic-hierachy,2021.1.2,59.8348842750952,
Trial # 248,layer6-8_O3_to_T12.jpg,layer6-8/layer6-8_O3_to_T12.jpg,OT,layer6-8,,,,,0,97,97,97,,,,,960.3043661781121,None,3.0,2.4260158729739487,960.3043661781121,None,960.3043661781121,None,960.3043661781121,None,lcx,001,2022_Apr_07_1150,Semantic-hierachy,2021.1.2,59.8348842750952,
Trial # 249,layer0-5_O12_to_T9.jpg,layer0-5/layer0-5_O12_to_T9.jpg,OT,layer0-5,,,,,0,98,98,98,,,,,963.2383197080344,None,1.0,1.5014887491706759,963.2383197080344,None,963.2383197080344,None,963.2383197080344,None,lcx,001,2022_Apr_07_1150,Semantic-hierachy,2021.1.2,59.8348842750952,
Trial # 250,layer9-17_T1_to_T9.jpg,layer9-17/layer9-17_T1_to_T9.jpg,TT,layer9-17,,,,,0,99,99,99,,,,,965.0723363631405,None,3.0,6.772992153186351,965.0723363631405,None,965.0723363631405,None,965.0723363631405,None,lcx,001,2022_Apr_07_1150,Semantic-hierachy,2021.1.2,59.8348842750952,
Trial # 251,layer9-17_T11_to_T8.jpg,layer9-17/layer9-17_T11_to_T8.jpg,TT,layer9-17,,,,,0,100,100,100,,,,,972.5758726410568,None,2.0,1.742961433948949,972.5758726410568,None,972.5758726410568,None,972.5758726410568,None,lcx,001,2022_Apr_07_1150,Semantic-hierachy,2021.1.2,59.8348842750952,
Trial # 252,layer9-17_T11_to_T5.jpg,layer9-17/layer9-17_T11_to_T5.jpg,TT,layer9-17,,,,,0,101,101,101,,,,,975.3422948410735,None,3.0,8.981015712022781,975.3422948410735,None,975.3422948410735,None,975.3422948410735,None,lcx,001,2022_Apr_07_1150,Semantic-hierachy,2021.1.2,59.8348842750952,
Trial # 253,layer6-8_T10_to_T12.jpg,layer6-8/layer6-8_T10_to_T12.jpg,TT,layer6-8,,,,,0,102,102,102,,,,,985.5454622709658,None,4.0,12.95043686684221,985.5454622709658,None,985.5454622709658,None,985.5454622709658,None,lcx,001,2022_Apr_07_1150,Semantic-hierachy,2021.1.2,59.8348842750952,
Trial # 254,layer9-17_O5_to_T1.jpg,layer9-17/layer9-17_O5_to_T1.jpg,OT,layer9-17,,,,,0,103,103,103,,,,,999.3500996669754,None,2.0,2.8661941459868103,999.3500996669754,None,999.3500996669754,None,999.3500996669754,None,lcx,001,2022_Apr_07_1150,Semantic-hierachy,2021.1.2,59.8348842750952,
Trial # 255,layer6-8_T2_to_T3.jpg,layer6-8/layer6-8_T2_to_T3.jpg,TT,layer6-8,,,,,0,104,104,104,,,,,1002.6353249710519,None,3.0,3.407019584905356,1002.6353249710519,None,1002.6353249710519,None,1002.6353249710519,None,lcx,001,2022_Apr_07_1150,Semantic-hierachy,2021.1.2,59.8348842750952,
Trial # 256,layer6-8_O2_to_T6.jpg,layer6-8/layer6-8_O2_to_T6.jpg,OT,layer6-8,,,,,0,105,105,105,,,,,1006.5198428900912,None,3.0,1.3830198210198432,1006.5198428900912,None,1006.5198428900912,None,1006.5198428900912,None,lcx,001,2022_Apr_07_1150,Semantic-hierachy,2021.1.2,59.8348842750952,
Trial # 257,layer6-8_T11_to_T9.jpg,layer6-8/layer6-8_T11_to_T9.jpg,TT,layer6-8,,,,,0,106,106,106,,,,,1008.2861511521041,None,3.0,1.7609659091103822,1008.2861511521041,None,1008.2861511521041,None,1008.2861511521041,None,lcx,001,2022_Apr_07_1150,Semantic-hierachy,2021.1.2,59.8348842750952,
Trial # 258,layer6-8_O5_to_T9.jpg,layer6-8/layer6-8_O5_to_T9.jpg,OT,layer6-8,,,,,0,107,107,107,,,,,1010.7703853740823,None,3.0,1.0291561831254512,1010.7703853740823,None,1010.7703853740823,None,1010.7703853740823,None,lcx,001,2022_Apr_07_1150,Semantic-hierachy,2021.1.2,59.8348842750952,
Trial # 259,layer6-8_O9_to_T8.jpg,layer6-8/layer6-8_O9_to_T8.jpg,OT,layer6-8,,,,,0,108,108,108,,,,,1012.3868968631141,None,3.0,4.102535282028839,1012.3868968631141,None,1012.3868968631141,None,1012.3868968631141,None,lcx,001,2022_Apr_07_1150,Semantic-hierachy,2021.1.2,59.8348842750952,
Trial # 260,layer6-8_T1_to_T5.jpg,layer6-8/layer6-8_T1_to_T5.jpg,TT,layer6-8,,,,,0,109,109,109,,,,,1016.9560295380652,None,4.0,3.1216846930328757,1016.9560295380652,None,1016.9560295380652,None,1016.9560295380652,None,lcx,001,2022_Apr_07_1150,Semantic-hierachy,2021.1.2,59.8348842750952,
Trial # 261,layer0-5_O11_to_T2.jpg,layer0-5/layer0-5_O11_to_T2.jpg,OT,layer0-5,,,,,0,110,110,110,,,,,1020.4057659909595,None,1.0,2.6421271529980004,1020.4057659909595,None,1020.4057659909595,None,1020.4057659909595,None,lcx,001,2022_Apr_07_1150,Semantic-hierachy,2021.1.2,59.8348842750952,
Trial # 262,layer0-5_O7_to_T4.jpg,layer0-5/layer0-5_O7_to_T4.jpg,OT,layer0-5,,,,,0,111,111,111,,,,,1023.3237145610619,None,1.0,1.2638071209657937,1023.3237145610619,None,1023.3237145610619,None,1023.3237145610619,None,lcx,001,2022_Apr_07_1150,Semantic-hierachy,2021.1.2,59.8348842750952,
Trial # 263,layer6-8_T12_to_T8.jpg,layer6-8/layer6-8_T12_to_T8.jpg,TT,layer6-8,,,,,0,112,112,112,,,,,1024.9072040170431,None,2.0,1.9375336079392582,1024.9072040170431,None,1024.9072040170431,None,1024.9072040170431,None,lcx,001,2022_Apr_07_1150,Semantic-hierachy,2021.1.2,59.8348842750952,
Trial # 264,layer6-8_O4_to_O9.jpg,layer6-8/layer6-8_O4_to_O9.jpg,OO,layer6-8,,,,,0,113,113,113,,,,,1028.2417134169955,None,3.0,2.762609704164788,1028.2417134169955,None,1028.2417134169955,None,1028.2417134169955,None,lcx,001,2022_Apr_07_1150,Semantic-hierachy,2021.1.2,59.8348842750952,
Trial # 265,layer0-5_T1_to_T5.jpg,layer0-5/layer0-5_T1_to_T5.jpg,TT,layer0-5,,,,,0,114,114,114,,,,,1031.4936605070252,None,1.0,4.849042827030644,1031.4936605070252,None,1031.4936605070252,None,1031.4936605070252,None,lcx,001,2022_Apr_07_1150,Semantic-hierachy,2021.1.2,59.8348842750952,
Trial # 266,layer0-5_O12_to_O7.jpg,layer0-5/layer0-5_O12_to_O7.jpg,OO,layer0-5,,,,,0,115,115,115,,,,,1036.578487030929,None,1.0,1.0618001359980553,1036.578487030929,None,1036.578487030929,None,1036.578487030929,None,lcx,001,2022_Apr_07_1150,Semantic-hierachy,2021.1.2,59.8348842750952,
Trial # 267,layer6-8_T8_to_T9.jpg,layer6-8/layer6-8_T8_to_T9.jpg,TT,layer6-8,,,,,0,116,116,116,,,,,1038.6280339930672,None,2.0,10.070655248127878,1038.6280339930672,None,1038.6280339930672,None,1038.6280339930672,None,lcx,001,2022_Apr_07_1150,Semantic-hierachy,2021.1.2,59.8348842750952,
Trial # 268,layer9-17_O11_to_T10.jpg,layer9-17/layer9-17_O11_to_T10.jpg,OT,layer9-17,,,,,0,117,117,117,,,,,1048.9983053009491,None,2.0,1.284020533086732,1048.9983053009491,None,1048.9983053009491,None,1048.9983053009491,None,lcx,001,2022_Apr_07_1150,Semantic-hierachy,2021.1.2,59.8348842750952,
Trial # 269,layer0-5_O8_to_T9.jpg,layer0-5/layer0-5_O8_to_T9.jpg,OT,layer0-5,,,,,0,118,118,118,,,,,1050.5987414459232,None,1.0,1.385023431153968,1050.5987414459232,None,1050.5987414459232,None,1050.5987414459232,None,lcx,001,2022_Apr_07_1150,Semantic-hierachy,2021.1.2,59.8348842750952,
Trial # 270,layer9-17_O10_to_O11.jpg,layer9-17/layer9-17_O10_to_O11.jpg,OO,layer9-17,,,,,0,119,119,119,,,,,1052.2829273110256,None,2.0,2.631056423066184,1052.2829273110256,None,1052.2829273110256,None,1052.2829273110256,None,lcx,001,2022_Apr_07_1150,Semantic-hierachy,2021.1.2,59.8348842750952,
Trial # 271,layer0-5_T1_to_T9.jpg,layer0-5/layer0-5_T1_to_T9.jpg,TT,layer0-5,,,,,0,120,120,120,,,,,1055.9181399359368,None,1.0,3.6307725531514734,1055.9181399359368,None,1055.9181399359368,None,1055.9181399359368,None,lcx,001,2022_Apr_07_1150,Semantic-hierachy,2021.1.2,59.8348842750952,
Trial # 272,layer6-8_T11_to_T8.jpg,layer6-8/layer6-8_T11_to_T8.jpg,TT,layer6-8,,,,,0,121,121,121,,,,,1059.8184167600702,None,4.0,4.185500886989757,1059.8184167600702,None,1059.8184167600702,None,1059.8184167600702,None,lcx,001,2022_Apr_07_1150,Semantic-hierachy,2021.1.2,59.8348842750952,
Trial # 273,layer9-17_O10_to_O12.jpg,layer9-17/layer9-17_O10_to_O12.jpg,OO,layer9-17,,,,,0,122,122,122,,,,,1065.3203011860605,None,2.0,2.4792611699085683,1065.3203011860605,None,1065.3203011860605,None,1065.3203011860605,None,lcx,001,2022_Apr_07_1150,Semantic-hierachy,2021.1.2,59.8348842750952,
Trial # 274,layer0-5_T12_to_T6.jpg,layer0-5/layer0-5_T12_to_T6.jpg,TT,layer0-5,,,,,0,123,123,123,,,,,1068.1040251611266,None,1.0,1.427511946996674,1068.1040251611266,None,1068.1040251611266,None,1068.1040251611266,None,lcx,001,2022_Apr_07_1150,Semantic-hierachy,2021.1.2,59.8348842750952,
Trial # 275,layer9-17_O11_to_O5.jpg,layer9-17/layer9-17_O11_to_O5.jpg,OO,layer9-17,,,,,0,124,124,124,,,,,1069.871250672033,None,2.0,1.9785820560064167,1069.871250672033,None,1069.871250672033,None,1069.871250672033,None,lcx,001,2022_Apr_07_1150,Semantic-hierachy,2021.1.2,59.8348842750952,
Trial # 276,layer9-17_O1_to_O4.jpg,layer9-17/layer9-17_O1_to_O4.jpg,OO,layer9-17,,,,,0,125,125,125,,,,,1073.7558083171025,None,2.0,2.1401989879086614,1073.7558083171025,None,1073.7558083171025,None,1073.7558083171025,None,lcx,001,2022_Apr_07_1150,Semantic-hierachy,2021.1.2,59.8348842750952,
Trial # 277,layer6-8_O11_to_O3.jpg,layer6-8/layer6-8_O11_to_O3.jpg,OO,layer6-8,,,,,0,126,126,126,,,,,1076.1910943060648,None,4.0,2.4778534760698676,1076.1910943060648,None,1076.1910943060648,None,1076.1910943060648,None,lcx,001,2022_Apr_07_1150,Semantic-hierachy,2021.1.2,59.8348842750952,
Trial # 278,layer6-8_T10_to_T11.jpg,layer6-8/layer6-8_T10_to_T11.jpg,TT,layer6-8,,,,,0,127,127,127,,,,,1079.5243821539916,None,4.0,10.146181070944294,1079.5243821539916,None,1079.5243821539916,None,1079.5243821539916,None,lcx,001,2022_Apr_07_1150,Semantic-hierachy,2021.1.2,59.8348842750952,
Trial # 279,layer0-5_O7_to_T3.jpg,layer0-5/layer0-5_O7_to_T3.jpg,OT,layer0-5,,,,,0,128,128,128,,,,,1090.6937620691024,None,1.0,3.060529619920999,1090.6937620691024,None,1090.6937620691024,None,1090.6937620691024,None,lcx,001,2022_Apr_07_1150,Semantic-hierachy,2021.1.2,59.8348842750952,
Trial # 280,layer9-17_T1_to_T10.jpg,layer9-17/layer9-17_T1_to_T10.jpg,TT,layer9-17,,,,,0,129,129,129,,,,,1094.0621735630557,None,2.0,1.7430112359579653,1094.0621735630557,None,1094.0621735630557,None,1094.0621735630557,None,lcx,001,2022_Apr_07_1150,Semantic-hierachy,2021.1.2,59.8348842750952,
Trial # 281,layer9-17_O6_to_T7.jpg,layer9-17/layer9-17_O6_to_T7.jpg,OT,layer9-17,,,,,0,130,130,130,,,,,1103.2482039721217,None,2.0,1.3596058289986104,1103.2482039721217,None,1103.2482039721217,None,1103.2482039721217,None,lcx,001,2022_Apr_07_1150,Semantic-hierachy,2021.1.2,59.8348842750952,
Trial # 282,layer0-5_O10_to_O7.jpg,layer0-5/layer0-5_O10_to_O7.jpg,OO,layer0-5,,,,,0,131,131,131,,,,,1104.865531140007,None,1.0,1.579272773116827,1104.865531140007,None,1104.865531140007,None,1104.865531140007,None,lcx,001,2022_Apr_07_1150,Semantic-hierachy,2021.1.2,59.8348842750952,
Trial # 283,layer0-5_O1_to_O11.jpg,layer0-5/layer0-5_O1_to_O11.jpg,OO,layer0-5,,,,,0,132,132,132,,,,,1106.733763624914,None,1.0,1.2659739109221846,1106.733763624914,None,1106.733763624914,None,1106.733763624914,None,lcx,001,2022_Apr_07_1150,Semantic-hierachy,2021.1.2,59.8348842750952,
Trial # 284,layer6-8_O7_to_O8.jpg,layer6-8/layer6-8_O7_to_O8.jpg,OO,layer6-8,,,,,0,133,133,133,,,,,1108.4497800951358,None,2.0,1.927132295910269,1108.4497800951358,None,1108.4497800951358,None,1108.4497800951358,None,lcx,001,2022_Apr_07_1150,Semantic-hierachy,2021.1.2,59.8348842750952,
Trial # 285,layer0-5_T7_to_T8.jpg,layer0-5/layer0-5_T7_to_T8.jpg,TT,layer0-5,,,,,0,134,134,134,,,,,1110.6671763961203,None,1.0,1.4280492728576064,1110.6671763961203,None,1110.6671763961203,None,1110.6671763961203,None,lcx,001,2022_Apr_07_1150,Semantic-hierachy,2021.1.2,59.8348842750952,
Trial # 286,layer9-17_T11_to_T6.jpg,layer9-17/layer9-17_T11_to_T6.jpg,TT,layer9-17,,,,,0,135,135,135,,,,,1112.45240482199,None,2.0,2.4665337449405342,1112.45240482199,None,1112.45240482199,None,1112.45240482199,None,lcx,001,2022_Apr_07_1150,Semantic-hierachy,2021.1.2,59.8348842750952,
Trial # 287,layer0-5_T2_to_T7.jpg,layer0-5/layer0-5_T2_to_T7.jpg,TT,layer0-5,,,,,0,136,136,136,,,,,1115.3353528049774,None,1.0,1.2943236189894378,1115.3353528049774,None,1115.3353528049774,None,1115.3353528049774,None,lcx,001,2022_Apr_07_1150,Semantic-hierachy,2021.1.2,59.8348842750952,
Trial # 288,layer9-17_O10_to_O2.jpg,layer9-17/layer9-17_O10_to_O2.jpg,OO,layer9-17,,,,,0,137,137,137,,,,,1116.953967286041,None,2.0,1.515881306026131,1116.953967286041,None,1116.953967286041,None,1116.953967286041,None,lcx,001,2022_Apr_07_1150,Semantic-hierachy,2021.1.2,59.8348842750952,
Trial # 289,layer0-5_T10_to_T9.jpg,layer0-5/layer0-5_T10_to_T9.jpg,TT,layer0-5,,,,,0,138,138,138,,,,,1118.7361700730398,None,1.0,1.5966108050197363,1118.7361700730398,None,1118.7361700730398,None,1118.7361700730398,None,lcx,001,2022_Apr_07_1150,Semantic-hierachy,2021.1.2,59.8348842750952,
Trial # 290,layer6-8_O11_to_O5.jpg,layer6-8/layer6-8_O11_to_O5.jpg,OO,layer6-8,,,,,0,139,139,139,,,,,1120.6531575550325,None,3.0,3.3601580301765352,1120.6531575550325,None,1120.6531575550325,None,1120.6531575550325,None,lcx,001,2022_Apr_07_1150,Semantic-hierachy,2021.1.2,59.8348842750952,
Trial # 291,layer6-8_O3_to_O7.jpg,layer6-8/layer6-8_O3_to_O7.jpg,OO,layer6-8,,,,,0,140,140,140,,,,,1124.304683766095,None,3.0,5.999442977132276,1124.304683766095,None,1124.304683766095,None,1124.304683766095,None,lcx,001,2022_Apr_07_1150,Semantic-hierachy,2021.1.2,59.8348842750952,
Trial # 292,layer9-17_O12_to_T11.jpg,layer9-17/layer9-17_O12_to_T11.jpg,OT,layer9-17,,,,,0,141,141,141,,,,,1131.7746801041067,None,2.0,14.866865711053833,1131.7746801041067,None,1131.7746801041067,None,1131.7746801041067,None,lcx,001,2022_Apr_07_1150,Semantic-hierachy,2021.1.2,59.8348842750952,
Trial # 293,layer9-17_O2_to_O4.jpg,layer9-17/layer9-17_O2_to_O4.jpg,OO,layer9-17,,,,,0,142,142,142,,,,,1146.9289629580453,None,4.0,4.462049003923312,1146.9289629580453,None,1146.9289629580453,None,1146.9289629580453,None,lcx,001,2022_Apr_07_1150,Semantic-hierachy,2021.1.2,59.8348842750952,
Trial # 294,layer6-8_O1_to_T12.jpg,layer6-8/layer6-8_O1_to_T12.jpg,OT,layer6-8,,,,,0,143,143,143,,,,,1151.9807434719987,None,3.0,1.7269033738411963,1151.9807434719987,None,1151.9807434719987,None,1151.9807434719987,None,lcx,001,2022_Apr_07_1150,Semantic-hierachy,2021.1.2,59.8348842750952,
Trial # 295,layer9-17_O11_to_T5.jpg,layer9-17/layer9-17_O11_to_T5.jpg,OT,layer9-17,,,,,0,144,144,144,,,,,1153.997420449974,None,3.0,1.598078504903242,1153.997420449974,None,1153.997420449974,None,1153.997420449974,None,lcx,001,2022_Apr_07_1150,Semantic-hierachy,2021.1.2,59.8348842750952,
Trial # 296,layer0-5_O10_to_O9.jpg,layer0-5/layer0-5_O10_to_O9.jpg,OO,layer0-5,,,,,0,145,145,145,,,,,1157.8650353241246,None,1.0,1.511283088941127,1157.8650353241246,None,1157.8650353241246,None,1157.8650353241246,None,lcx,001,2022_Apr_07_1150,Semantic-hierachy,2021.1.2,59.8348842750952,
Trial # 297,layer6-8_O12_to_T10.jpg,layer6-8/layer6-8_O12_to_T10.jpg,OT,layer6-8,,,,,0,146,146,146,,,,,1159.6487909550779,None,3.0,1.7795467099640518,1159.6487909550779,None,1159.6487909550779,None,1159.6487909550779,None,lcx,001,2022_Apr_07_1150,Semantic-hierachy,2021.1.2,59.8348842750952,
Trial # 298,layer6-8_O3_to_T2.jpg,layer6-8/layer6-8_O3_to_T2.jpg,OT,layer6-8,,,,,0,147,147,147,,,,,1162.5010980961379,None,3.0,1.5121984309516847,1162.5010980961379,None,1162.5010980961379,None,1162.5010980961379,None,lcx,001,2022_Apr_07_1150,Semantic-hierachy,2021.1.2,59.8348842750952,
Trial # 299,layer9-17_O2_to_T5.jpg,layer9-17/layer9-17_O2_to_T5.jpg,OT,layer9-17,,,,,0,148,148,148,,,,,1164.500532793114,None,3.0,2.1344142518937588,1164.500532793114,None,1164.500532793114,None,1164.500532793114,None,lcx,001,2022_Apr_07_1150,Semantic-hierachy,2021.1.2,59.8348842750952,
Trial # 300,layer0-5_O3_to_T7.jpg,layer0-5/layer0-5_O3_to_T7.jpg,OT,layer0-5,,,,,0,149,149,149,,,,,1167.0354030490853,None,1.0,1.5480319550260901,1167.0354030490853,None,1167.0354030490853,None,1167.0354030490853,None,lcx,001,2022_Apr_07_1150,Semantic-hierachy,2021.1.2,59.8348842750952,
Trial # 301,layer9-17_O11_to_O6.jpg,layer9-17/layer9-17_O11_to_O6.jpg,OO,layer9-17,,,,,,,,,0,0,0,0,1171.1037407431286,None,3.0,3.464811849873513,1171.1037407431286,None,1171.1037407431286,None,1171.1037407431286,None,lcx,001,2022_Apr_07_1150,Semantic-hierachy,2021.1.2,59.8348842750952,
Trial # 302,layer0-5_O3_to_O7.jpg,layer0-5/layer0-5_O3_to_O7.jpg,OO,layer0-5,,,,,,,,,0,1,1,1,1175.7865674139466,None,1.0,1.3997841640375555,1175.7865674139466,None,1175.7865674139466,None,1175.7865674139466,None,lcx,001,2022_Apr_07_1150,Semantic-hierachy,2021.1.2,59.8348842750952,
Trial # 303,layer6-8_O11_to_T3.jpg,layer6-8/layer6-8_O11_to_T3.jpg,OT,layer6-8,,,,,,,,,0,2,2,2,1177.5544509580359,None,3.0,1.6420060058590025,1177.5544509580359,None,1177.5544509580359,None,1177.5544509580359,None,lcx,001,2022_Apr_07_1150,Semantic-hierachy,2021.1.2,59.8348842750952,
Trial # 304,layer6-8_O2_to_T7.jpg,layer6-8/layer6-8_O2_to_T7.jpg,OT,layer6-8,,,,,,,,,0,3,3,3,1179.7051053829491,None,3.0,1.1778914749156684,1179.7051053829491,None,1179.7051053829491,None,1179.7051053829491,None,lcx,001,2022_Apr_07_1150,Semantic-hierachy,2021.1.2,59.8348842750952,
Trial # 305,layer0-5_T1_to_T7.jpg,layer0-5/layer0-5_T1_to_T7.jpg,TT,layer0-5,,,,,,,,,0,4,4,4,1181.6229834221303,None,1.0,3.248119744937867,1181.6229834221303,None,1181.6229834221303,None,1181.6229834221303,None,lcx,001,2022_Apr_07_1150,Semantic-hierachy,2021.1.2,59.8348842750952,
Trial # 306,layer6-8_O7_to_T11.jpg,layer6-8/layer6-8_O7_to_T11.jpg,OT,layer6-8,,,,,,,,,0,5,5,5,1185.6405652270187,None,3.0,16.74424535082653,1185.6405652270187,None,1185.6405652270187,None,1185.6405652270187,None,lcx,001,2022_Apr_07_1150,Semantic-hierachy,2021.1.2,59.8348842750952,
Trial # 307,layer9-17_O5_to_T5.jpg,layer9-17/layer9-17_O5_to_T5.jpg,OT,layer9-17,,,,,,,,,0,6,6,6,1202.9457345150877,None,2.0,1.9633686509914696,1202.9457345150877,None,1202.9457345150877,None,1202.9457345150877,None,lcx,001,2022_Apr_07_1150,Semantic-hierachy,2021.1.2,59.8348842750952,
Trial # 308,layer9-17_T12_to_T5.jpg,layer9-17/layer9-17_T12_to_T5.jpg,TT,layer9-17,,,,,,,,,0,7,7,7,1205.2795779020526,None,2.0,1.7914624901022762,1205.2795779020526,None,1205.2795779020526,None,1205.2795779020526,None,lcx,001,2022_Apr_07_1150,Semantic-hierachy,2021.1.2,59.8348842750952,
Trial # 309,layer6-8_O11_to_O2.jpg,layer6-8/layer6-8_O11_to_O2.jpg,OO,layer6-8,,,,,,,,,0,8,8,8,1210.5980265799444,None,3.0,3.5266974510159343,1210.5980265799444,None,1210.5980265799444,None,1210.5980265799444,None,lcx,001,2022_Apr_07_1150,Semantic-hierachy,2021.1.2,59.8348842750952,
Trial # 310,layer6-8_O10_to_O7.jpg,layer6-8/layer6-8_O10_to_O7.jpg,OO,layer6-8,,,,,,,,,0,9,9,9,1214.532464060001,None,3.0,6.359649428864941,1214.532464060001,None,1214.532464060001,None,1214.532464060001,None,lcx,001,2022_Apr_07_1150,Semantic-hierachy,2021.1.2,59.8348842750952,
Trial # 311,layer9-17_O10_to_T11.jpg,layer9-17/layer9-17_O10_to_T11.jpg,OT,layer9-17,,,,,,,,,0,10,10,10,1221.6193278739229,None,3.0,2.776689833961427,1221.6193278739229,None,1221.6193278739229,None,1221.6193278739229,None,lcx,001,2022_Apr_07_1150,Semantic-hierachy,2021.1.2,59.8348842750952,
Trial # 312,layer6-8_O11_to_O12.jpg,layer6-8/layer6-8_O11_to_O12.jpg,OO,layer6-8,,,,,,,,,0,11,11,11,1224.9357197289355,None,3.0,1.2658384910319,1224.9357197289355,None,1224.9357197289355,None,1224.9357197289355,None,lcx,001,2022_Apr_07_1150,Semantic-hierachy,2021.1.2,59.8348842750952,
Trial # 313,layer9-17_O9_to_T8.jpg,layer9-17/layer9-17_O9_to_T8.jpg,OT,layer9-17,,,,,,,,,0,12,12,12,1226.5708528780378,None,4.0,7.9665326529648155,1226.5708528780378,None,1226.5708528780378,None,1226.5708528780378,None,lcx,001,2022_Apr_07_1150,Semantic-hierachy,2021.1.2,59.8348842750952,
Trial # 314,layer0-5_O3_to_T2.jpg,layer0-5/layer0-5_O3_to_T2.jpg,OT,layer0-5,,,,,,,,,0,13,13,13,1234.855905815959,None,1.0,1.545512811979279,1234.855905815959,None,1234.855905815959,None,1234.855905815959,None,lcx,001,2022_Apr_07_1150,Semantic-hierachy,2021.1.2,59.8348842750952,
Trial # 315,layer9-17_T1_to_T11.jpg,layer9-17/layer9-17_T1_to_T11.jpg,TT,layer9-17,,,,,,,,,0,14,14,14,1236.7739962420892,None,2.0,1.3822880981024355,1236.7739962420892,None,1236.7739962420892,None,1236.7739962420892,None,lcx,001,2022_Apr_07_1150,Semantic-hierachy,2021.1.2,59.8348842750952,
Trial # 316,layer6-8_T10_to_T7.jpg,layer6-8/layer6-8_T10_to_T7.jpg,TT,layer6-8,,,,,,,,,0,15,15,15,1238.7234469240066,None,3.0,2.7647464950568974,1238.7234469240066,None,1238.7234469240066,None,1238.7234469240066,None,lcx,001,2022_Apr_07_1150,Semantic-hierachy,2021.1.2,59.8348842750952,
Trial # 317,layer0-5_T6_to_T7.jpg,layer0-5/layer0-5_T6_to_T7.jpg,TT,layer0-5,,,,,,,,,0,16,16,16,1241.8590583819896,None,1.0,1.4804036440327764,1241.8590583819896,None,1241.8590583819896,None,1241.8590583819896,None,lcx,001,2022_Apr_07_1150,Semantic-hierachy,2021.1.2,59.8348842750952,
Trial # 318,layer9-17_O1_to_T3.jpg,layer9-17/layer9-17_O1_to_T3.jpg,OT,layer9-17,,,,,,,,,0,17,17,17,1243.6249129150528,None,2.0,1.7293134189676493,1243.6249129150528,None,1243.6249129150528,None,1243.6249129150528,None,lcx,001,2022_Apr_07_1150,Semantic-hierachy,2021.1.2,59.8348842750952,
Trial # 319,layer0-5_O2_to_T5.jpg,layer0-5/layer0-5_O2_to_T5.jpg,OT,layer0-5,,,,,,,,,0,18,18,18,1245.6255818491336,None,1.0,1.6319038879591972,1245.6255818491336,None,1245.6255818491336,None,1245.6255818491336,None,lcx,001,2022_Apr_07_1150,Semantic-hierachy,2021.1.2,59.8348842750952,
Trial # 320,layer6-8_O7_to_T10.jpg,layer6-8/layer6-8_O7_to_T10.jpg,OT,layer6-8,,,,,,,,,0,19,19,19,1247.6271306700073,None,3.0,1.7283892589621246,1247.6271306700073,None,1247.6271306700073,None,1247.6271306700073,None,lcx,001,2022_Apr_07_1150,Semantic-hierachy,2021.1.2,59.8348842750952,
Trial # 321,layer0-5_O5_to_O6.jpg,layer0-5/layer0-5_O5_to_O6.jpg,OO,layer0-5,,,,,,,,,0,20,20,20,1250.543334811926,None,1.0,1.4623045260086656,1250.543334811926,None,1250.543334811926,None,1250.543334811926,None,lcx,001,2022_Apr_07_1150,Semantic-hierachy,2021.1.2,59.8348842750952,
Trial # 322,layer9-17_O5_to_T4.jpg,layer9-17/layer9-17_O5_to_T4.jpg,OT,layer9-17,,,,,,,,,0,21,21,21,1252.4622948390897,None,2.0,2.46593734389171,1252.4622948390897,None,1252.4622948390897,None,1252.4622948390897,None,lcx,001,2022_Apr_07_1150,Semantic-hierachy,2021.1.2,59.8348842750952,
Trial # 323,layer0-5_T12_to_T2.jpg,layer0-5/layer0-5_T12_to_T2.jpg,TT,layer0-5,,,,,,,,,0,22,22,22,1255.2784264311194,None,1.0,2.0824603280052543,1255.2784264311194,None,1255.2784264311194,None,1255.2784264311194,None,lcx,001,2022_Apr_07_1150,Semantic-hierachy,2021.1.2,59.8348842750952,
Trial # 324,layer0-5_O2_to_O4.jpg,layer0-5/layer0-5_O2_to_O4.jpg,OO,layer0-5,,,,,,,,,0,23,23,23,1257.7472447031178,None,1.0,1.1556304369587451,1257.7472447031178,None,1257.7472447031178,None,1257.7472447031178,None,lcx,001,2022_Apr_07_1150,Semantic-hierachy,2021.1.2,59.8348842750952,
Trial # 325,layer6-8_O1_to_O9.jpg,layer6-8/layer6-8_O1_to_O9.jpg,OO,layer6-8,,,,,,,,,0,24,24,24,1259.246324029984,None,3.0,1.8807855350896716,1259.246324029984,None,1259.246324029984,None,1259.246324029984,None,lcx,001,2022_Apr_07_1150,Semantic-hierachy,2021.1.2,59.8348842750952,
Trial # 326,layer0-5_T3_to_T5.jpg,layer0-5/layer0-5_T3_to_T5.jpg,TT,layer0-5,,,,,,,,,0,25,25,25,1263.5977630789857,None,1.0,2.2877789561171085,1263.5977630789857,None,1263.5977630789857,None,1263.5977630789857,None,lcx,001,2022_Apr_07_1150,Semantic-hierachy,2021.1.2,59.8348842750952,
Trial # 327,layer6-8_O8_to_T12.jpg,layer6-8/layer6-8_O8_to_T12.jpg,OT,layer6-8,,,,,,,,,0,26,26,26,1266.2165088779293,None,3.0,1.9115708640310913,1266.2165088779293,None,1266.2165088779293,None,1266.2165088779293,None,lcx,001,2022_Apr_07_1150,Semantic-hierachy,2021.1.2,59.8348842750952,
Trial # 328,layer9-17_T11_to_T4.jpg,layer9-17/layer9-17_T11_to_T4.jpg,TT,layer9-17,,,,,,,,,0,27,27,27,1270.250011122087,None,2.0,1.9172546579502523,1270.250011122087,None,1270.250011122087,None,1270.250011122087,None,lcx,001,2022_Apr_07_1150,Semantic-hierachy,2021.1.2,59.8348842750952,
Trial # 329,layer9-17_O6_to_T2.jpg,layer9-17/layer9-17_O6_to_T2.jpg,OT,layer9-17,,,,,,,,,0,28,28,28,1272.4519998161122,None,2.0,1.050364197930321,1272.4519998161122,None,1272.4519998161122,None,1272.4519998161122,None,lcx,001,2022_Apr_07_1150,Semantic-hierachy,2021.1.2,59.8348842750952,
Trial # 330,layer9-17_T10_to_T9.jpg,layer9-17/layer9-17_T10_to_T9.jpg,TT,layer9-17,,,,,,,,,0,29,29,29,1274.384433774976,None,2.0,1.2591463909484446,1274.384433774976,None,1274.384433774976,None,1274.384433774976,None,lcx,001,2022_Apr_07_1150,Semantic-hierachy,2021.1.2,59.8348842750952,
Trial # 331,layer0-5_O2_to_O3.jpg,layer0-5/layer0-5_O2_to_O3.jpg,OO,layer0-5,,,,,,,,,0,30,30,30,1276.536534733139,None,1.0,2.6424014470539987,1276.536534733139,None,1276.536534733139,None,1276.536534733139,None,lcx,001,2022_Apr_07_1150,Semantic-hierachy,2021.1.2,59.8348842750952,
Trial # 332,layer6-8_O1_to_O12.jpg,layer6-8/layer6-8_O1_to_O12.jpg,OO,layer6-8,,,,,,,,,0,31,31,31,1279.7862367311027,None,3.0,3.4817897288594395,1279.7862367311027,None,1279.7862367311027,None,1279.7862367311027,None,lcx,001,2022_Apr_07_1150,Semantic-hierachy,2021.1.2,59.8348842750952,
Trial # 333,layer0-5_O5_to_T12.jpg,layer0-5/layer0-5_O5_to_T12.jpg,OT,layer0-5,,,,,,,,,0,32,32,32,1284.271075200988,None,1.0,1.5932528669945896,1284.271075200988,None,1284.271075200988,None,1284.271075200988,None,lcx,001,2022_Apr_07_1150,Semantic-hierachy,2021.1.2,59.8348842750952,
Trial # 334,layer9-17_O11_to_T6.jpg,layer9-17/layer9-17_O11_to_T6.jpg,OT,layer9-17,,,,,,,,,0,33,33,33,1286.439536435064,None,2.0,8.799150688108057,1286.439536435064,None,1286.439536435064,None,1286.439536435064,None,lcx,001,2022_Apr_07_1150,Semantic-hierachy,2021.1.2,59.8348842750952,
Trial # 335,layer0-5_O4_to_T1.jpg,layer0-5/layer0-5_O4_to_T1.jpg,OT,layer0-5,,,,,,,,,0,34,34,34,1295.5578743289225,None,1.0,2.343159595038742,1295.5578743289225,None,1295.5578743289225,None,1295.5578743289225,None,lcx,001,2022_Apr_07_1150,Semantic-hierachy,2021.1.2,59.8348842750952,
Trial # 336,layer6-8_T1_to_T6.jpg,layer6-8/layer6-8_T1_to_T6.jpg,TT,layer6-8,,,,,,,,,0,35,35,35,1298.2252984009683,None,3.0,6.65984788001515,1298.2252984009683,None,1298.2252984009683,None,1298.2252984009683,None,lcx,001,2022_Apr_07_1150,Semantic-hierachy,2021.1.2,59.8348842750952,
Trial # 337,layer0-5_O12_to_O6.jpg,layer0-5/layer0-5_O12_to_O6.jpg,OO,layer0-5,,,,,,,,,0,36,36,36,1308.3785062860698,None,1.0,1.4150788309052587,1308.3785062860698,None,1308.3785062860698,None,1308.3785062860698,None,lcx,001,2022_Apr_07_1150,Semantic-hierachy,2021.1.2,59.8348842750952,
Trial # 338,layer0-5_O1_to_O10.jpg,layer0-5/layer0-5_O1_to_O10.jpg,OO,layer0-5,,,,,,,,,0,37,37,37,1310.0786287679803,None,1.0,1.2184949358925223,1310.0786287679803,None,1310.0786287679803,None,1310.0786287679803,None,lcx,001,2022_Apr_07_1150,Semantic-hierachy,2021.1.2,59.8348842750952,
Trial # 339,layer0-5_O9_to_T9.jpg,layer0-5/layer0-5_O9_to_T9.jpg,OT,layer0-5,,,,,,,,,0,38,38,38,1311.8306382989977,None,1.0,1.11005220701918,1311.8306382989977,None,1311.8306382989977,None,1311.8306382989977,None,lcx,001,2022_Apr_07_1150,Semantic-hierachy,2021.1.2,59.8348842750952,
Trial # 340,layer6-8_O6_to_T10.jpg,layer6-8/layer6-8_O6_to_T10.jpg,OT,layer6-8,,,,,,,,,0,39,39,39,1313.2631234489381,None,3.0,2.0137511868961155,1313.2631234489381,None,1313.2631234489381,None,1313.2631234489381,None,lcx,001,2022_Apr_07_1150,Semantic-hierachy,2021.1.2,59.8348842750952,
Trial # 341,layer9-17_O3_to_T3.jpg,layer9-17/layer9-17_O3_to_T3.jpg,OT,layer9-17,,,,,,,,,0,40,40,40,1315.8483938029967,None,2.0,1.5143912269268185,1315.8483938029967,None,1315.8483938029967,None,1315.8483938029967,None,lcx,001,2022_Apr_07_1150,Semantic-hierachy,2021.1.2,59.8348842750952,
Trial # 342,layer0-5_O8_to_T8.jpg,layer0-5/layer0-5_O8_to_T8.jpg,OT,layer0-5,,,,,,,,,0,41,41,41,1317.6310834749602,None,1.0,3.0129058589227498,1317.6310834749602,None,1317.6310834749602,None,1317.6310834749602,None,lcx,001,2022_Apr_07_1150,Semantic-hierachy,2021.1.2,59.8348842750952,
Trial # 343,layer9-17_O11_to_O3.jpg,layer9-17/layer9-17_O11_to_O3.jpg,OO,layer9-17,,,,,,,,,0,42,42,42,1322.2499686949886,None,2.0,1.9611055650748312,1322.2499686949886,None,1322.2499686949886,None,1322.2499686949886,None,lcx,001,2022_Apr_07_1150,Semantic-hierachy,2021.1.2,59.8348842750952,
Trial # 344,layer9-17_O10_to_T12.jpg,layer9-17/layer9-17_O10_to_T12.jpg,OT,layer9-17,,,,,,,,,0,43,43,43,1324.499816274969,None,2.0,1.0298493150621653,1324.499816274969,None,1324.499816274969,None,1324.499816274969,None,lcx,001,2022_Apr_07_1150,Semantic-hierachy,2021.1.2,59.8348842750952,
Trial # 345,layer6-8_T3_to_T6.jpg,layer6-8/layer6-8_T3_to_T6.jpg,TT,layer6-8,,,,,,,,,0,44,44,44,1325.8676363311242,None,3.0,2.0454308059997857,1325.8676363311242,None,1325.8676363311242,None,1325.8676363311242,None,lcx,001,2022_Apr_07_1150,Semantic-hierachy,2021.1.2,59.8348842750952,
Trial # 346,layer6-8_O1_to_O4.jpg,layer6-8/layer6-8_O1_to_O4.jpg,OO,layer6-8,,,,,,,,,0,45,45,45,1328.9349002770614,None,3.0,1.6464614521246403,1328.9349002770614,None,1328.9349002770614,None,1328.9349002770614,None,lcx,001,2022_Apr_07_1150,Semantic-hierachy,2021.1.2,59.8348842750952,
Trial # 347,layer0-5_O8_to_T3.jpg,layer0-5/layer0-5_O8_to_T3.jpg,OT,layer0-5,,,,,,,,,0,46,46,46,1331.1688975880388,None,1.0,1.678165193181485,1331.1688975880388,None,1331.1688975880388,None,1331.1688975880388,None,lcx,001,2022_Apr_07_1150,Semantic-hierachy,2021.1.2,59.8348842750952,
Trial # 348,layer9-17_T2_to_T7.jpg,layer9-17/layer9-17_T2_to_T7.jpg,TT,layer9-17,,,,,,,,,0,47,47,47,1333.2862299929839,None,2.0,1.430562105961144,1333.2862299929839,None,1333.2862299929839,None,1333.2862299929839,None,lcx,001,2022_Apr_07_1150,Semantic-hierachy,2021.1.2,59.8348842750952,
Trial # 349,layer0-5_O9_to_T4.jpg,layer0-5/layer0-5_O9_to_T4.jpg,OT,layer0-5,,,,,,,,,0,48,48,48,1335.070023050066,None,1.0,1.5716866569127887,1335.070023050066,None,1335.070023050066,None,1335.070023050066,None,lcx,001,2022_Apr_07_1150,Semantic-hierachy,2021.1.2,59.8348842750952,
