Trial_num,image_name,image_path,pair_type,layers,block1.thisRepN,block1.thisTrialN,block1.thisN,block1.thisIndex,block2.thisRepN,block2.thisTrialN,block2.thisN,block2.thisIndex,block3.thisRepN,block3.thisTrialN,block3.thisN,block3.thisIndex,image_8.started,image_8.stopped,selected_semantic.response,selected_semantic.rt,selected_semantic.started,selected_semantic.stopped,Instruction.started,Instruction.stopped,Trial_number.started,Trial_number.stopped,participant,session,date,expName,psychopyVersion,frameRate,
Trial # 1,layer0-5_O2_to_T1.jpg,layer0-5/layer0-5_O2_to_T1.jpg,OT,layer0-5,0,0,0,0,,,,,,,,,62.341634398995666,None,1.0,35.99979302800057,62.341634398995666,None,62.341634398995666,None,62.341634398995666,None,noahdeetz,001,2022_Jun_23_1319,Semantic-hierachy,2021.1.2,60.176234527180846,
Trial # 2,layer0-5_O11_to_T7.jpg,layer0-5/layer0-5_O11_to_T7.jpg,OT,layer0-5,0,1,1,1,,,,,,,,,102.9048452059942,None,1.0,10.364158304997545,102.9048452059942,None,102.9048452059942,None,102.9048452059942,None,noahdeetz,001,2022_Jun_23_1319,Semantic-hierachy,2021.1.2,60.176234527180846,
Trial # 3,layer6-8_O3_to_O5.jpg,layer6-8/layer6-8_O3_to_O5.jpg,OO,layer6-8,0,2,2,2,,,,,,,,,115.72459496399824,None,4.0,9.933816173004743,115.72459496399824,None,115.72459496399824,None,115.72459496399824,None,noahdeetz,001,2022_Jun_23_1319,Semantic-hierachy,2021.1.2,60.176234527180846,
Trial # 4,layer6-8_O11_to_O4.jpg,layer6-8/layer6-8_O11_to_O4.jpg,OO,layer6-8,0,3,3,3,,,,,,,,,127.99592638199829,None,4.0,18.51396590100194,127.99592638199829,None,127.99592638199829,None,127.99592638199829,None,noahdeetz,001,2022_Jun_23_1319,Semantic-hierachy,2021.1.2,60.176234527180846,
Trial # 5,layer6-8_O8_to_T8.jpg,layer6-8/layer6-8_O8_to_T8.jpg,OT,layer6-8,0,4,4,4,,,,,,,,,148.13589360100013,None,4.0,26.449220130001777,148.13589360100013,None,148.13589360100013,None,148.13589360100013,None,noahdeetz,001,2022_Jun_23_1319,Semantic-hierachy,2021.1.2,60.176234527180846,
Trial # 6,layer0-5_O11_to_O8.jpg,layer0-5/layer0-5_O11_to_O8.jpg,OO,layer0-5,0,5,5,5,,,,,,,,,175.07656033899548,None,1.0,19.44399961399904,175.07656033899548,None,175.07656033899548,None,175.07656033899548,None,noahdeetz,001,2022_Jun_23_1319,Semantic-hierachy,2021.1.2,60.176234527180846,
Trial # 7,layer0-5_T10_to_T11.jpg,layer0-5/layer0-5_T10_to_T11.jpg,TT,layer0-5,0,6,6,6,,,,,,,,,201.8679449689953,None,1.0,4.892517508997116,201.8679449689953,None,201.8679449689953,None,201.8679449689953,None,noahdeetz,001,2022_Jun_23_1319,Semantic-hierachy,2021.1.2,60.176234527180846,
Trial # 8,layer9-17_O6_to_O9.jpg,layer9-17/layer9-17_O6_to_O9.jpg,OO,layer9-17,0,7,7,7,,,,,,,,,207.90418636899994,None,2.0,2.423617597996781,207.90418636899994,None,207.90418636899994,None,207.90418636899994,None,noahdeetz,001,2022_Jun_23_1319,Semantic-hierachy,2021.1.2,60.176234527180846,
Trial # 9,layer6-8_O12_to_O9.jpg,layer6-8/layer6-8_O12_to_O9.jpg,OO,layer6-8,0,8,8,8,,,,,,,,,211.47094238299906,None,3.0,2.360339901999396,211.47094238299906,None,211.47094238299906,None,211.47094238299906,None,noahdeetz,001,2022_Jun_23_1319,Semantic-hierachy,2021.1.2,60.176234527180846,
Trial # 10,layer0-5_O10_to_T2.jpg,layer0-5/layer0-5_O10_to_T2.jpg,OT,layer0-5,0,9,9,9,,,,,,,,,214.35531666099996,None,4.0,8.810341265998431,214.35531666099996,None,214.35531666099996,None,214.35531666099996,None,noahdeetz,001,2022_Jun_23_1319,Semantic-hierachy,2021.1.2,60.176234527180846,
Trial # 11,layer9-17_T10_to_T2.jpg,layer9-17/layer9-17_T10_to_T2.jpg,TT,layer9-17,0,10,10,10,,,,,,,,,224.75839320199884,None,2.0,10.62746821899782,224.75839320199884,None,224.75839320199884,None,224.75839320199884,None,noahdeetz,001,2022_Jun_23_1319,Semantic-hierachy,2021.1.2,60.176234527180846,
Trial # 12,layer6-8_T6_to_T7.jpg,layer6-8/layer6-8_T6_to_T7.jpg,TT,layer6-8,0,11,11,11,,,,,,,,,244.81422569799906,None,3.0,7.961899353998888,244.81422569799906,None,244.81422569799906,None,244.81422569799906,None,noahdeetz,001,2022_Jun_23_1319,Semantic-hierachy,2021.1.2,60.176234527180846,
Trial # 13,layer9-17_O10_to_T2.jpg,layer9-17/layer9-17_O10_to_T2.jpg,OT,layer9-17,0,12,12,12,,,,,,,,,256.1841280239969,None,2.0,4.24225871499948,256.1841280239969,None,256.1841280239969,None,256.1841280239969,None,noahdeetz,001,2022_Jun_23_1319,Semantic-hierachy,2021.1.2,60.176234527180846,
Trial # 14,layer6-8_T4_to_T7.jpg,layer6-8/layer6-8_T4_to_T7.jpg,TT,layer6-8,0,13,13,13,,,,,,,,,260.68619259399566,None,3.0,2.542572852995363,260.68619259399566,None,260.68619259399566,None,260.68619259399566,None,noahdeetz,001,2022_Jun_23_1319,Semantic-hierachy,2021.1.2,60.176234527180846,
Trial # 15,layer9-17_O8_to_T2.jpg,layer9-17/layer9-17_O8_to_T2.jpg,OT,layer9-17,0,14,14,14,,,,,,,,,264.9873272499972,None,2.0,2.4974132489951444,264.9873272499972,None,264.9873272499972,None,264.9873272499972,None,noahdeetz,001,2022_Jun_23_1319,Semantic-hierachy,2021.1.2,60.176234527180846,
Trial # 16,layer0-5_T6_to_T9.jpg,layer0-5/layer0-5_T6_to_T9.jpg,TT,layer0-5,0,15,15,15,,,,,,,,,267.85656615899643,None,1.0,3.3004010090007796,267.85656615899643,None,267.85656615899643,None,267.85656615899643,None,noahdeetz,001,2022_Jun_23_1319,Semantic-hierachy,2021.1.2,60.176234527180846,
Trial # 17,layer0-5_O11_to_O12.jpg,layer0-5/layer0-5_O11_to_O12.jpg,OO,layer0-5,0,16,16,16,,,,,,,,,271.5728759079939,None,1.0,3.9579978590045357,271.5728759079939,None,271.5728759079939,None,271.5728759079939,None,noahdeetz,001,2022_Jun_23_1319,Semantic-hierachy,2021.1.2,60.176234527180846,
Trial # 18,layer0-5_T11_to_T5.jpg,layer0-5/layer0-5_T11_to_T5.jpg,TT,layer0-5,0,17,17,17,,,,,,,,,275.8575009529959,None,1.0,5.029335307997826,275.8575009529959,None,275.8575009529959,None,275.8575009529959,None,noahdeetz,001,2022_Jun_23_1319,Semantic-hierachy,2021.1.2,60.176234527180846,
Trial # 19,layer0-5_O6_to_T12.jpg,layer0-5/layer0-5_O6_to_T12.jpg,OT,layer0-5,0,18,18,18,,,,,,,,,284.54356725199614,None,1.0,4.611778300997685,284.54356725199614,None,284.54356725199614,None,284.54356725199614,None,noahdeetz,001,2022_Jun_23_1319,Semantic-hierachy,2021.1.2,60.176234527180846,
Trial # 20,layer6-8_T6_to_T8.jpg,layer6-8/layer6-8_T6_to_T8.jpg,TT,layer6-8,0,19,19,19,,,,,,,,,289.46186597299675,None,4.0,3.7187295210023876,289.46186597299675,None,289.46186597299675,None,289.46186597299675,None,noahdeetz,001,2022_Jun_23_1319,Semantic-hierachy,2021.1.2,60.176234527180846,
Trial # 21,layer9-17_T2_to_T5.jpg,layer9-17/layer9-17_T2_to_T5.jpg,TT,layer9-17,0,20,20,20,,,,,,,,,293.6466364939988,None,2.0,2.4529844089993276,293.6466364939988,None,293.6466364939988,None,293.6466364939988,None,noahdeetz,001,2022_Jun_23_1319,Semantic-hierachy,2021.1.2,60.176234527180846,
Trial # 22,layer6-8_O2_to_O6.jpg,layer6-8/layer6-8_O2_to_O6.jpg,OO,layer6-8,0,21,21,21,,,,,,,,,296.3978126029979,None,2.0,3.3096424510004,296.3978126029979,None,296.3978126029979,None,296.3978126029979,None,noahdeetz,001,2022_Jun_23_1319,Semantic-hierachy,2021.1.2,60.176234527180846,
Trial # 23,layer9-17_O3_to_T12.jpg,layer9-17/layer9-17_O3_to_T12.jpg,OT,layer9-17,0,22,22,22,,,,,,,,,303.31725126999663,None,2.0,5.327886004000902,303.31725126999663,None,303.31725126999663,None,303.31725126999663,None,noahdeetz,001,2022_Jun_23_1319,Semantic-hierachy,2021.1.2,60.176234527180846,
Trial # 24,layer0-5_O11_to_O3.jpg,layer0-5/layer0-5_O11_to_O3.jpg,OO,layer0-5,0,23,23,23,,,,,,,,,308.9349019489964,None,1.0,3.337246739996772,308.9349019489964,None,308.9349019489964,None,308.9349019489964,None,noahdeetz,001,2022_Jun_23_1319,Semantic-hierachy,2021.1.2,60.176234527180846,
Trial # 25,layer6-8_O2_to_O9.jpg,layer6-8/layer6-8_O2_to_O9.jpg,OO,layer6-8,0,24,24,24,,,,,,,,,312.886864135995,None,4.0,6.911056958997506,312.886864135995,None,312.886864135995,None,312.886864135995,None,noahdeetz,001,2022_Jun_23_1319,Semantic-hierachy,2021.1.2,60.176234527180846,
Trial # 26,layer9-17_O10_to_O8.jpg,layer9-17/layer9-17_O10_to_O8.jpg,OO,layer9-17,0,25,25,25,,,,,,,,,320.28772175099584,None,4.0,6.891818308002257,320.28772175099584,None,320.28772175099584,None,320.28772175099584,None,noahdeetz,001,2022_Jun_23_1319,Semantic-hierachy,2021.1.2,60.176234527180846,
Trial # 27,layer9-17_T4_to_T6.jpg,layer9-17/layer9-17_T4_to_T6.jpg,TT,layer9-17,0,26,26,26,,,,,,,,,327.4077080529969,None,2.0,2.0779926350005553,327.4077080529969,None,327.4077080529969,None,327.4077080529969,None,noahdeetz,001,2022_Jun_23_1319,Semantic-hierachy,2021.1.2,60.176234527180846,
Trial # 28,layer6-8_O7_to_T8.jpg,layer6-8/layer6-8_O7_to_T8.jpg,OT,layer6-8,0,27,27,27,,,,,,,,,329.69157362999977,None,2.0,1.9227202449983452,329.69157362999977,None,329.69157362999977,None,329.69157362999977,None,noahdeetz,001,2022_Jun_23_1319,Semantic-hierachy,2021.1.2,60.176234527180846,
Trial # 29,layer6-8_T4_to_T5.jpg,layer6-8/layer6-8_T4_to_T5.jpg,TT,layer6-8,0,28,28,28,,,,,,,,,332.22543288099405,None,4.0,3.8839294979989063,332.22543288099405,None,332.22543288099405,None,332.22543288099405,None,noahdeetz,001,2022_Jun_23_1319,Semantic-hierachy,2021.1.2,60.176234527180846,
Trial # 30,layer6-8_T10_to_T9.jpg,layer6-8/layer6-8_T10_to_T9.jpg,TT,layer6-8,0,29,29,29,,,,,,,,,336.942781234,None,4.0,6.811320559994783,336.942781234,None,336.942781234,None,336.942781234,None,noahdeetz,001,2022_Jun_23_1319,Semantic-hierachy,2021.1.2,60.176234527180846,
Trial # 31,layer9-17_O1_to_O8.jpg,layer9-17/layer9-17_O1_to_O8.jpg,OO,layer9-17,0,30,30,30,,,,,,,,,344.6287991539939,None,2.0,3.976957224003854,344.6287991539939,None,344.6287991539939,None,344.6287991539939,None,noahdeetz,001,2022_Jun_23_1319,Semantic-hierachy,2021.1.2,60.176234527180846,
Trial # 32,layer9-17_O12_to_O7.jpg,layer9-17/layer9-17_O12_to_O7.jpg,OO,layer9-17,0,31,31,31,,,,,,,,,349.0480785489999,None,2.0,6.4440777609997895,349.0480785489999,None,349.0480785489999,None,349.0480785489999,None,noahdeetz,001,2022_Jun_23_1319,Semantic-hierachy,2021.1.2,60.176234527180846,
Trial # 33,layer9-17_T10_to_T12.jpg,layer9-17/layer9-17_T10_to_T12.jpg,TT,layer9-17,0,32,32,32,,,,,,,,,355.94887115500023,None,4.0,1.956032416994276,355.94887115500023,None,355.94887115500023,None,355.94887115500023,None,noahdeetz,001,2022_Jun_23_1319,Semantic-hierachy,2021.1.2,60.176234527180846,
Trial # 34,layer0-5_T2_to_T6.jpg,layer0-5/layer0-5_T2_to_T6.jpg,TT,layer0-5,0,33,33,33,,,,,,,,,358.2010278749949,None,1.0,4.245008404002874,358.2010278749949,None,358.2010278749949,None,358.2010278749949,None,noahdeetz,001,2022_Jun_23_1319,Semantic-hierachy,2021.1.2,60.176234527180846,
Trial # 35,layer6-8_T11_to_T2.jpg,layer6-8/layer6-8_T11_to_T2.jpg,TT,layer6-8,0,34,34,34,,,,,,,,,362.75217105799675,None,4.0,4.694843104000029,362.75217105799675,None,362.75217105799675,None,362.75217105799675,None,noahdeetz,001,2022_Jun_23_1319,Semantic-hierachy,2021.1.2,60.176234527180846,
Trial # 36,layer6-8_O4_to_T3.jpg,layer6-8/layer6-8_O4_to_T3.jpg,OT,layer6-8,0,35,35,35,,,,,,,,,367.7859369180005,None,3.0,5.472683215004508,367.7859369180005,None,367.7859369180005,None,367.7859369180005,None,noahdeetz,001,2022_Jun_23_1319,Semantic-hierachy,2021.1.2,60.176234527180846,
Trial # 37,layer6-8_O3_to_T11.jpg,layer6-8/layer6-8_O3_to_T11.jpg,OT,layer6-8,0,36,36,36,,,,,,,,,373.52238438799395,None,3.0,9.481158192000294,373.52238438799395,None,373.52238438799395,None,373.52238438799395,None,noahdeetz,001,2022_Jun_23_1319,Semantic-hierachy,2021.1.2,60.176234527180846,
Trial # 38,layer6-8_T1_to_T2.jpg,layer6-8/layer6-8_T1_to_T2.jpg,TT,layer6-8,0,37,37,37,,,,,,,,,385.5247345389944,None,2.0,4.072768528996676,385.5247345389944,None,385.5247345389944,None,385.5247345389944,None,noahdeetz,001,2022_Jun_23_1319,Semantic-hierachy,2021.1.2,60.176234527180846,
Trial # 39,layer9-17_O2_to_O6.jpg,layer9-17/layer9-17_O2_to_O6.jpg,OO,layer9-17,0,38,38,38,,,,,,,,,389.892744576995,None,4.0,7.924729935999494,389.892744576995,None,389.892744576995,None,389.892744576995,None,noahdeetz,001,2022_Jun_23_1319,Semantic-hierachy,2021.1.2,60.176234527180846,
Trial # 40,layer9-17_O4_to_T2.jpg,layer9-17/layer9-17_O4_to_T2.jpg,OT,layer9-17,0,39,39,39,,,,,,,,,398.87987763499405,None,2.0,2.057446760998573,398.87987763499405,None,398.87987763499405,None,398.87987763499405,None,noahdeetz,001,2022_Jun_23_1319,Semantic-hierachy,2021.1.2,60.176234527180846,
Trial # 41,layer6-8_O5_to_T3.jpg,layer6-8/layer6-8_O5_to_T3.jpg,OT,layer6-8,0,40,40,40,,,,,,,,,401.896425166,None,3.0,2.4736551950045396,401.896425166,None,401.896425166,None,401.896425166,None,noahdeetz,001,2022_Jun_23_1319,Semantic-hierachy,2021.1.2,60.176234527180846,
Trial # 42,layer6-8_O2_to_O3.jpg,layer6-8/layer6-8_O2_to_O3.jpg,OO,layer6-8,0,41,41,41,,,,,,,,,404.647436897998,None,4.0,2.8105562630007626,404.647436897998,None,404.647436897998,None,404.647436897998,None,noahdeetz,001,2022_Jun_23_1319,Semantic-hierachy,2021.1.2,60.176234527180846,
Trial # 43,layer6-8_O1_to_T6.jpg,layer6-8/layer6-8_O1_to_T6.jpg,OT,layer6-8,0,42,42,42,,,,,,,,,408.44856659200013,None,2.0,3.773844697003369,408.44856659200013,None,408.44856659200013,None,408.44856659200013,None,noahdeetz,001,2022_Jun_23_1319,Semantic-hierachy,2021.1.2,60.176234527180846,
Trial # 44,layer6-8_O2_to_T12.jpg,layer6-8/layer6-8_O2_to_T12.jpg,OT,layer6-8,0,43,43,43,,,,,,,,,413.41795401799754,None,3.0,2.1474253319975105,413.41795401799754,None,413.41795401799754,None,413.41795401799754,None,noahdeetz,001,2022_Jun_23_1319,Semantic-hierachy,2021.1.2,60.176234527180846,
Trial # 45,layer9-17_O2_to_O8.jpg,layer9-17/layer9-17_O2_to_O8.jpg,OO,layer9-17,0,44,44,44,,,,,,,,,416.0677167679969,None,4.0,9.312640860000101,416.0677167679969,None,416.0677167679969,None,416.0677167679969,None,noahdeetz,001,2022_Jun_23_1319,Semantic-hierachy,2021.1.2,60.176234527180846,
Trial # 46,layer9-17_O10_to_O4.jpg,layer9-17/layer9-17_O10_to_O4.jpg,OO,layer9-17,0,45,45,45,,,,,,,,,425.686993077994,None,2.0,3.72893847800151,425.686993077994,None,425.686993077994,None,425.686993077994,None,noahdeetz,001,2022_Jun_23_1319,Semantic-hierachy,2021.1.2,60.176234527180846,
Trial # 47,layer0-5_O1_to_O4.jpg,layer0-5/layer0-5_O1_to_O4.jpg,OO,layer0-5,0,46,46,46,,,,,,,,,430.32206198699714,None,1.0,2.786118312003964,430.32206198699714,None,430.32206198699714,None,430.32206198699714,None,noahdeetz,001,2022_Jun_23_1319,Semantic-hierachy,2021.1.2,60.176234527180846,
Trial # 48,layer0-5_T4_to_T5.jpg,layer0-5/layer0-5_T4_to_T5.jpg,TT,layer0-5,0,47,47,47,,,,,,,,,434.6400667639973,None,1.0,2.6528537850026623,434.6400667639973,None,434.6400667639973,None,434.6400667639973,None,noahdeetz,001,2022_Jun_23_1319,Semantic-hierachy,2021.1.2,60.176234527180846,
Trial # 49,layer9-17_T12_to_T8.jpg,layer9-17/layer9-17_T12_to_T8.jpg,TT,layer9-17,0,48,48,48,,,,,,,,,437.94229626199376,None,2.0,2.202557610005897,437.94229626199376,None,437.94229626199376,None,437.94229626199376,None,noahdeetz,001,2022_Jun_23_1319,Semantic-hierachy,2021.1.2,60.176234527180846,
Trial # 50,layer0-5_T10_to_T5.jpg,layer0-5/layer0-5_T10_to_T5.jpg,TT,layer0-5,0,49,49,49,,,,,,,,,440.50828208599705,None,1.0,4.763639828997839,440.50828208599705,None,440.50828208599705,None,440.50828208599705,None,noahdeetz,001,2022_Jun_23_1319,Semantic-hierachy,2021.1.2,60.176234527180846,
Trial # 51,layer6-8_O10_to_O8.jpg,layer6-8/layer6-8_O10_to_O8.jpg,OO,layer6-8,0,50,50,50,,,,,,,,,445.4767831099962,None,2.0,5.320764846001111,445.4767831099962,None,445.4767831099962,None,445.4767831099962,None,noahdeetz,001,2022_Jun_23_1319,Semantic-hierachy,2021.1.2,60.176234527180846,
Trial # 52,layer9-17_O3_to_O5.jpg,layer9-17/layer9-17_O3_to_O5.jpg,OO,layer9-17,0,51,51,51,,,,,,,,,451.0451044729998,None,2.0,1.5317639950008015,451.0451044729998,None,451.0451044729998,None,451.0451044729998,None,noahdeetz,001,2022_Jun_23_1319,Semantic-hierachy,2021.1.2,60.176234527180846,
Trial # 53,layer6-8_T1_to_T12.jpg,layer6-8/layer6-8_T1_to_T12.jpg,TT,layer6-8,0,52,52,52,,,,,,,,,452.7961330830003,None,4.0,1.7439368499981356,452.7961330830003,None,452.7961330830003,None,452.7961330830003,None,noahdeetz,001,2022_Jun_23_1319,Semantic-hierachy,2021.1.2,60.176234527180846,
Trial # 54,layer0-5_O4_to_O9.jpg,layer0-5/layer0-5_O4_to_O9.jpg,OO,layer0-5,0,53,53,53,,,,,,,,,455.36310327399406,None,1.0,3.443903257000784,455.36310327399406,None,455.36310327399406,None,455.36310327399406,None,noahdeetz,001,2022_Jun_23_1319,Semantic-hierachy,2021.1.2,60.176234527180846,
Trial # 55,layer0-5_O5_to_O9.jpg,layer0-5/layer0-5_O5_to_O9.jpg,OO,layer0-5,0,54,54,54,,,,,,,,,459.06545599299716,None,3.0,2.1363774700002978,459.06545599299716,None,459.06545599299716,None,459.06545599299716,None,noahdeetz,001,2022_Jun_23_1319,Semantic-hierachy,2021.1.2,60.176234527180846,
Trial # 56,layer0-5_O1_to_O2.jpg,layer0-5/layer0-5_O1_to_O2.jpg,OO,layer0-5,0,55,55,55,,,,,,,,,462.2318114029986,None,1.0,3.694016435998492,462.2318114029986,None,462.2318114029986,None,462.2318114029986,None,noahdeetz,001,2022_Jun_23_1319,Semantic-hierachy,2021.1.2,60.176234527180846,
Trial # 57,layer9-17_T12_to_T3.jpg,layer9-17/layer9-17_T12_to_T3.jpg,TT,layer9-17,0,56,56,56,,,,,,,,,466.2163250769954,None,2.0,1.88828433699382,466.2163250769954,None,466.2163250769954,None,466.2163250769954,None,noahdeetz,001,2022_Jun_23_1319,Semantic-hierachy,2021.1.2,60.176234527180846,
Trial # 58,layer0-5_O7_to_O9.jpg,layer0-5/layer0-5_O7_to_O9.jpg,OO,layer0-5,0,57,57,57,,,,,,,,,468.468371389994,None,1.0,2.141296211993904,468.468371389994,None,468.468371389994,None,468.468371389994,None,noahdeetz,001,2022_Jun_23_1319,Semantic-hierachy,2021.1.2,60.176234527180846,
Trial # 59,layer0-5_T5_to_T9.jpg,layer0-5/layer0-5_T5_to_T9.jpg,TT,layer0-5,0,58,58,58,,,,,,,,,470.9509722589937,None,1.0,2.06965814200521,470.9509722589937,None,470.9509722589937,None,470.9509722589937,None,noahdeetz,001,2022_Jun_23_1319,Semantic-hierachy,2021.1.2,60.176234527180846,
Trial # 60,layer9-17_O1_to_O9.jpg,layer9-17/layer9-17_O1_to_O9.jpg,OO,layer9-17,0,59,59,59,,,,,,,,,473.3697623009939,None,4.0,5.122722571999475,473.3697623009939,None,473.3697623009939,None,473.3697623009939,None,noahdeetz,001,2022_Jun_23_1319,Semantic-hierachy,2021.1.2,60.176234527180846,
Trial # 61,layer0-5_O6_to_O7.jpg,layer0-5/layer0-5_O6_to_O7.jpg,OO,layer0-5,0,60,60,60,,,,,,,,,481.7374873410008,None,1.0,3.3295176300016465,481.7374873410008,None,481.7374873410008,None,481.7374873410008,None,noahdeetz,001,2022_Jun_23_1319,Semantic-hierachy,2021.1.2,60.176234527180846,
Trial # 62,layer9-17_T5_to_T6.jpg,layer9-17/layer9-17_T5_to_T6.jpg,TT,layer9-17,0,61,61,61,,,,,,,,,485.3218764400008,None,2.0,8.400654010001745,485.3218764400008,None,485.3218764400008,None,485.3218764400008,None,noahdeetz,001,2022_Jun_23_1319,Semantic-hierachy,2021.1.2,60.176234527180846,
Trial # 63,layer9-17_T4_to_T9.jpg,layer9-17/layer9-17_T4_to_T9.jpg,TT,layer9-17,0,62,62,62,,,,,,,,,493.97636562799744,None,2.0,1.9467858680000063,493.97636562799744,None,493.97636562799744,None,493.97636562799744,None,noahdeetz,001,2022_Jun_23_1319,Semantic-hierachy,2021.1.2,60.176234527180846,
Trial # 64,layer0-5_O11_to_T1.jpg,layer0-5/layer0-5_O11_to_T1.jpg,OT,layer0-5,0,63,63,63,,,,,,,,,496.12582382199616,None,1.0,3.2146716300048865,496.12582382199616,None,496.12582382199616,None,496.12582382199616,None,noahdeetz,001,2022_Jun_23_1319,Semantic-hierachy,2021.1.2,60.176234527180846,
Trial # 65,layer6-8_T5_to_T9.jpg,layer6-8/layer6-8_T5_to_T9.jpg,TT,layer6-8,0,64,64,64,,,,,,,,,499.69334379799693,None,4.0,4.326666355998896,499.69334379799693,None,499.69334379799693,None,499.69334379799693,None,noahdeetz,001,2022_Jun_23_1319,Semantic-hierachy,2021.1.2,60.176234527180846,
Trial # 66,layer0-5_T4_to_T7.jpg,layer0-5/layer0-5_T4_to_T7.jpg,TT,layer0-5,0,65,65,65,,,,,,,,,504.2793801469961,None,1.0,2.401730301004136,504.2793801469961,None,504.2793801469961,None,504.2793801469961,None,noahdeetz,001,2022_Jun_23_1319,Semantic-hierachy,2021.1.2,60.176234527180846,
Trial # 67,layer0-5_O2_to_O6.jpg,layer0-5/layer0-5_O2_to_O6.jpg,OO,layer0-5,0,66,66,66,,,,,,,,,506.96175419199426,None,1.0,2.7069152550029685,506.96175419199426,None,506.96175419199426,None,506.96175419199426,None,noahdeetz,001,2022_Jun_23_1319,Semantic-hierachy,2021.1.2,60.176234527180846,
Trial # 68,layer9-17_O12_to_T3.jpg,layer9-17/layer9-17_O12_to_T3.jpg,OT,layer9-17,0,67,67,67,,,,,,,,,509.9464990599954,None,2.0,1.7053383910024422,509.9464990599954,None,509.9464990599954,None,509.9464990599954,None,noahdeetz,001,2022_Jun_23_1319,Semantic-hierachy,2021.1.2,60.176234527180846,
Trial # 69,layer9-17_O7_to_O9.jpg,layer9-17/layer9-17_O7_to_O9.jpg,OO,layer9-17,0,68,68,68,,,,,,,,,511.81403158799367,None,4.0,11.715608938000514,511.81403158799367,None,511.81403158799367,None,511.81403158799367,None,noahdeetz,001,2022_Jun_23_1319,Semantic-hierachy,2021.1.2,60.176234527180846,
Trial # 70,layer9-17_T1_to_T8.jpg,layer9-17/layer9-17_T1_to_T8.jpg,TT,layer9-17,0,69,69,69,,,,,,,,,523.7852536089995,None,4.0,1.829934768997191,523.7852536089995,None,523.7852536089995,None,523.7852536089995,None,noahdeetz,001,2022_Jun_23_1319,Semantic-hierachy,2021.1.2,60.176234527180846,
Trial # 71,layer0-5_O3_to_T8.jpg,layer0-5/layer0-5_O3_to_T8.jpg,OT,layer0-5,0,70,70,70,,,,,,,,,525.9513435349945,None,1.0,5.4982190419978,525.9513435349945,None,525.9513435349945,None,525.9513435349945,None,noahdeetz,001,2022_Jun_23_1319,Semantic-hierachy,2021.1.2,60.176234527180846,
Trial # 72,layer9-17_O9_to_T2.jpg,layer9-17/layer9-17_O9_to_T2.jpg,OT,layer9-17,0,71,71,71,,,,,,,,,532.0696616439964,None,2.0,13.547233199999027,532.0696616439964,None,532.0696616439964,None,532.0696616439964,None,noahdeetz,001,2022_Jun_23_1319,Semantic-hierachy,2021.1.2,60.176234527180846,
Trial # 73,layer9-17_O5_to_O7.jpg,layer9-17/layer9-17_O5_to_O7.jpg,OO,layer9-17,0,72,72,72,,,,,,,,,546.7247520519959,None,2.0,5.735080185004335,546.7247520519959,None,546.7247520519959,None,546.7247520519959,None,noahdeetz,001,2022_Jun_23_1319,Semantic-hierachy,2021.1.2,60.176234527180846,
Trial # 74,layer0-5_T11_to_T9.jpg,layer0-5/layer0-5_T11_to_T9.jpg,TT,layer0-5,0,73,73,73,,,,,,,,,552.9270309399944,None,1.0,3.9826865189970704,552.9270309399944,None,552.9270309399944,None,552.9270309399944,None,noahdeetz,001,2022_Jun_23_1319,Semantic-hierachy,2021.1.2,60.176234527180846,
Trial # 75,layer0-5_O11_to_T12.jpg,layer0-5/layer0-5_O11_to_T12.jpg,OT,layer0-5,0,74,74,74,,,,,,,,,557.7626474719946,None,1.0,1.704116425004031,557.7626474719946,None,557.7626474719946,None,557.7626474719946,None,noahdeetz,001,2022_Jun_23_1319,Semantic-hierachy,2021.1.2,60.176234527180846,
Trial # 76,layer9-17_T7_to_T9.jpg,layer9-17/layer9-17_T7_to_T9.jpg,TT,layer9-17,0,75,75,75,,,,,,,,,560.3470090849951,None,4.0,8.235221132003062,560.3470090849951,None,560.3470090849951,None,560.3470090849951,None,noahdeetz,001,2022_Jun_23_1319,Semantic-hierachy,2021.1.2,60.176234527180846,
Trial # 77,layer6-8_O6_to_T2.jpg,layer6-8/layer6-8_O6_to_T2.jpg,OT,layer6-8,0,76,76,76,,,,,,,,,568.9324217049943,None,4.0,5.184175488997425,568.9324217049943,None,568.9324217049943,None,568.9324217049943,None,noahdeetz,001,2022_Jun_23_1319,Semantic-hierachy,2021.1.2,60.176234527180846,
Trial # 78,layer9-17_T4_to_T5.jpg,layer9-17/layer9-17_T4_to_T5.jpg,TT,layer9-17,0,77,77,77,,,,,,,,,574.9501020509997,None,2.0,2.0675904039962916,574.9501020509997,None,574.9501020509997,None,574.9501020509997,None,noahdeetz,001,2022_Jun_23_1319,Semantic-hierachy,2021.1.2,60.176234527180846,
Trial # 79,layer0-5_T2_to_T4.jpg,layer0-5/layer0-5_T2_to_T4.jpg,TT,layer0-5,0,78,78,78,,,,,,,,,577.317941759,None,1.0,4.117230442003347,577.317941759,None,577.317941759,None,577.317941759,None,noahdeetz,001,2022_Jun_23_1319,Semantic-hierachy,2021.1.2,60.176234527180846,
Trial # 80,layer0-5_T2_to_T8.jpg,layer0-5/layer0-5_T2_to_T8.jpg,TT,layer0-5,0,79,79,79,,,,,,,,,581.751837592994,None,1.0,2.6787595670029987,581.751837592994,None,581.751837592994,None,581.751837592994,None,noahdeetz,001,2022_Jun_23_1319,Semantic-hierachy,2021.1.2,60.176234527180846,
Trial # 81,layer9-17_T3_to_T9.jpg,layer9-17/layer9-17_T3_to_T9.jpg,TT,layer9-17,0,80,80,80,,,,,,,,,585.3030173089937,None,2.0,4.977310865004256,585.3030173089937,None,585.3030173089937,None,585.3030173089937,None,noahdeetz,001,2022_Jun_23_1319,Semantic-hierachy,2021.1.2,60.176234527180846,
Trial # 82,layer9-17_O2_to_O5.jpg,layer9-17/layer9-17_O2_to_O5.jpg,OO,layer9-17,0,81,81,81,,,,,,,,,590.6378806259963,None,2.0,2.3021713589987485,590.6378806259963,None,590.6378806259963,None,590.6378806259963,None,noahdeetz,001,2022_Jun_23_1319,Semantic-hierachy,2021.1.2,60.176234527180846,
Trial # 83,layer6-8_O6_to_O7.jpg,layer6-8/layer6-8_O6_to_O7.jpg,OO,layer6-8,0,82,82,82,,,,,,,,,593.2568822579997,None,4.0,2.2326833929982968,593.2568822579997,None,593.2568822579997,None,593.2568822579997,None,noahdeetz,001,2022_Jun_23_1319,Semantic-hierachy,2021.1.2,60.176234527180846,
Trial # 84,layer9-17_O11_to_T1.jpg,layer9-17/layer9-17_O11_to_T1.jpg,OT,layer9-17,0,83,83,83,,,,,,,,,596.0396572280006,None,2.0,1.8294563720046426,596.0396572280006,None,596.0396572280006,None,596.0396572280006,None,noahdeetz,001,2022_Jun_23_1319,Semantic-hierachy,2021.1.2,60.176234527180846,
Trial # 85,layer6-8_O5_to_T12.jpg,layer6-8/layer6-8_O5_to_T12.jpg,OT,layer6-8,0,84,84,84,,,,,,,,,598.1915911859978,None,3.0,2.3946960659959586,598.1915911859978,None,598.1915911859978,None,598.1915911859978,None,noahdeetz,001,2022_Jun_23_1319,Semantic-hierachy,2021.1.2,60.176234527180846,
Trial # 86,layer6-8_O4_to_O7.jpg,layer6-8/layer6-8_O4_to_O7.jpg,OO,layer6-8,0,85,85,85,,,,,,,,,601.1077362279975,None,4.0,2.536119468000834,601.1077362279975,None,601.1077362279975,None,601.1077362279975,None,noahdeetz,001,2022_Jun_23_1319,Semantic-hierachy,2021.1.2,60.176234527180846,
Trial # 87,layer6-8_T10_to_T8.jpg,layer6-8/layer6-8_T10_to_T8.jpg,TT,layer6-8,0,86,86,86,,,,,,,,,604.7593803599957,None,2.0,3.497362902999157,604.7593803599957,None,604.7593803599957,None,604.7593803599957,None,noahdeetz,001,2022_Jun_23_1319,Semantic-hierachy,2021.1.2,60.176234527180846,
Trial # 88,layer6-8_O10_to_T3.jpg,layer6-8/layer6-8_O10_to_T3.jpg,OT,layer6-8,0,87,87,87,,,,,,,,,610.2608653290008,None,3.0,2.5961850940002478,610.2608653290008,None,610.2608653290008,None,610.2608653290008,None,noahdeetz,001,2022_Jun_23_1319,Semantic-hierachy,2021.1.2,60.176234527180846,
Trial # 89,layer6-8_O5_to_O9.jpg,layer6-8/layer6-8_O5_to_O9.jpg,OO,layer6-8,0,88,88,88,,,,,,,,,613.2462218619985,None,4.0,5.5158373640006175,613.2462218619985,None,613.2462218619985,None,613.2462218619985,None,noahdeetz,001,2022_Jun_23_1319,Semantic-hierachy,2021.1.2,60.176234527180846,
Trial # 90,layer6-8_O10_to_O11.jpg,layer6-8/layer6-8_O10_to_O11.jpg,OO,layer6-8,0,89,89,89,,,,,,,,,619.1814706500008,None,4.0,3.8290472340013366,619.1814706500008,None,619.1814706500008,None,619.1814706500008,None,noahdeetz,001,2022_Jun_23_1319,Semantic-hierachy,2021.1.2,60.176234527180846,
Trial # 91,layer0-5_O4_to_T5.jpg,layer0-5/layer0-5_O4_to_T5.jpg,OT,layer0-5,0,90,90,90,,,,,,,,,623.3153156949993,None,1.0,2.0610659800004214,623.3153156949993,None,623.3153156949993,None,623.3153156949993,None,noahdeetz,001,2022_Jun_23_1319,Semantic-hierachy,2021.1.2,60.176234527180846,
Trial # 92,layer0-5_T11_to_T12.jpg,layer0-5/layer0-5_T11_to_T12.jpg,TT,layer0-5,0,91,91,91,,,,,,,,,627.8178240709967,None,1.0,3.0475854399992386,627.8178240709967,None,627.8178240709967,None,627.8178240709967,None,noahdeetz,001,2022_Jun_23_1319,Semantic-hierachy,2021.1.2,60.176234527180846,
Trial # 93,layer0-5_T10_to_T3.jpg,layer0-5/layer0-5_T10_to_T3.jpg,TT,layer0-5,0,92,92,92,,,,,,,,,632.9517541229943,None,1.0,2.334599124995293,632.9517541229943,None,632.9517541229943,None,632.9517541229943,None,noahdeetz,001,2022_Jun_23_1319,Semantic-hierachy,2021.1.2,60.176234527180846,
Trial # 94,layer0-5_O2_to_O8.jpg,layer0-5/layer0-5_O2_to_O8.jpg,OO,layer0-5,0,93,93,93,,,,,,,,,635.885619198998,None,1.0,4.800941702000273,635.885619198998,None,635.885619198998,None,635.885619198998,None,noahdeetz,001,2022_Jun_23_1319,Semantic-hierachy,2021.1.2,60.176234527180846,
Trial # 95,layer0-5_T3_to_T8.jpg,layer0-5/layer0-5_T3_to_T8.jpg,TT,layer0-5,0,94,94,94,,,,,,,,,642.0036440279946,None,1.0,2.741421304999676,642.0036440279946,None,642.0036440279946,None,642.0036440279946,None,noahdeetz,001,2022_Jun_23_1319,Semantic-hierachy,2021.1.2,60.176234527180846,
Trial # 96,layer0-5_O7_to_O8.jpg,layer0-5/layer0-5_O7_to_O8.jpg,OO,layer0-5,0,95,95,95,,,,,,,,,645.7719880969962,None,1.0,3.734618662005232,645.7719880969962,None,645.7719880969962,None,645.7719880969962,None,noahdeetz,001,2022_Jun_23_1319,Semantic-hierachy,2021.1.2,60.176234527180846,
Trial # 97,layer6-8_T10_to_T6.jpg,layer6-8/layer6-8_T10_to_T6.jpg,TT,layer6-8,0,96,96,96,,,,,,,,,649.7399874830007,None,4.0,2.2941098200026317,649.7399874830007,None,649.7399874830007,None,649.7399874830007,None,noahdeetz,001,2022_Jun_23_1319,Semantic-hierachy,2021.1.2,60.176234527180846,
Trial # 98,layer0-5_O1_to_O5.jpg,layer0-5/layer0-5_O1_to_O5.jpg,OO,layer0-5,0,97,97,97,,,,,,,,,652.3406529389977,None,1.0,2.0148888859985163,652.3406529389977,None,652.3406529389977,None,652.3406529389977,None,noahdeetz,001,2022_Jun_23_1319,Semantic-hierachy,2021.1.2,60.176234527180846,
Trial # 99,layer6-8_O1_to_O6.jpg,layer6-8/layer6-8_O1_to_O6.jpg,OO,layer6-8,0,98,98,98,,,,,,,,,654.6581292769988,None,1.0,1.69156239899894,654.6581292769988,None,654.6581292769988,None,654.6581292769988,None,noahdeetz,001,2022_Jun_23_1319,Semantic-hierachy,2021.1.2,60.176234527180846,
Trial # 100,layer6-8_O3_to_T1.jpg,layer6-8/layer6-8_O3_to_T1.jpg,OT,layer6-8,0,99,99,99,,,,,,,,,658.4771662959974,None,3.0,9.03013753399864,658.4771662959974,None,658.4771662959974,None,658.4771662959974,None,noahdeetz,001,2022_Jun_23_1319,Semantic-hierachy,2021.1.2,60.176234527180846,
Trial # 101,layer6-8_T1_to_T9.jpg,layer6-8/layer6-8_T1_to_T9.jpg,TT,layer6-8,0,100,100,100,,,,,,,,,668.1791531339986,None,4.0,2.880133532002219,668.1791531339986,None,668.1791531339986,None,668.1791531339986,None,noahdeetz,001,2022_Jun_23_1319,Semantic-hierachy,2021.1.2,60.176234527180846,
Trial # 102,layer9-17_O12_to_O6.jpg,layer9-17/layer9-17_O12_to_O6.jpg,OO,layer9-17,0,101,101,101,,,,,,,,,673.8483713479945,None,2.0,2.897099794005044,673.8483713479945,None,673.8483713479945,None,673.8483713479945,None,noahdeetz,001,2022_Jun_23_1319,Semantic-hierachy,2021.1.2,60.176234527180846,
Trial # 103,layer0-5_T4_to_T9.jpg,layer0-5/layer0-5_T4_to_T9.jpg,TT,layer0-5,0,102,102,102,,,,,,,,,677.2657034069998,None,1.0,2.043505447996722,677.2657034069998,None,677.2657034069998,None,677.2657034069998,None,noahdeetz,001,2022_Jun_23_1319,Semantic-hierachy,2021.1.2,60.176234527180846,
Trial # 104,layer6-8_O10_to_T1.jpg,layer6-8/layer6-8_O10_to_T1.jpg,OT,layer6-8,0,103,103,103,,,,,,,,,679.565524779995,None,4.0,4.557820135996735,679.565524779995,None,679.565524779995,None,679.565524779995,None,noahdeetz,001,2022_Jun_23_1319,Semantic-hierachy,2021.1.2,60.176234527180846,
Trial # 105,layer0-5_O6_to_T2.jpg,layer0-5/layer0-5_O6_to_T2.jpg,OT,layer0-5,0,104,104,104,,,,,,,,,686.0511283259984,None,1.0,4.299489729994093,686.0511283259984,None,686.0511283259984,None,686.0511283259984,None,noahdeetz,001,2022_Jun_23_1319,Semantic-hierachy,2021.1.2,60.176234527180846,
Trial # 106,layer9-17_T11_to_T2.jpg,layer9-17/layer9-17_T11_to_T2.jpg,TT,layer9-17,0,105,105,105,,,,,,,,,690.6193588359965,None,2.0,2.154806685000949,690.6193588359965,None,690.6193588359965,None,690.6193588359965,None,noahdeetz,001,2022_Jun_23_1319,Semantic-hierachy,2021.1.2,60.176234527180846,
Trial # 107,layer9-17_O12_to_O8.jpg,layer9-17/layer9-17_O12_to_O8.jpg,OO,layer9-17,0,106,106,106,,,,,,,,,692.9870425409972,None,4.0,1.9453743470003246,692.9870425409972,None,692.9870425409972,None,692.9870425409972,None,noahdeetz,001,2022_Jun_23_1319,Semantic-hierachy,2021.1.2,60.176234527180846,
Trial # 108,layer0-5_T12_to_T3.jpg,layer0-5/layer0-5_T12_to_T3.jpg,TT,layer0-5,0,107,107,107,,,,,,,,,696.8211739869948,None,1.0,2.4110737340015476,696.8211739869948,None,696.8211739869948,None,696.8211739869948,None,noahdeetz,001,2022_Jun_23_1319,Semantic-hierachy,2021.1.2,60.176234527180846,
Trial # 109,layer0-5_T1_to_T10.jpg,layer0-5/layer0-5_T1_to_T10.jpg,TT,layer0-5,0,108,108,108,,,,,,,,,699.4390137579976,None,1.0,1.5611392290011281,699.4390137579976,None,699.4390137579976,None,699.4390137579976,None,noahdeetz,001,2022_Jun_23_1319,Semantic-hierachy,2021.1.2,60.176234527180846,
Trial # 110,layer6-8_O4_to_T5.jpg,layer6-8/layer6-8_O4_to_T5.jpg,OT,layer6-8,0,109,109,109,,,,,,,,,702.1892853009995,None,3.0,2.4341280949956854,702.1892853009995,None,702.1892853009995,None,702.1892853009995,None,noahdeetz,001,2022_Jun_23_1319,Semantic-hierachy,2021.1.2,60.176234527180846,
Trial # 111,layer9-17_O11_to_O7.jpg,layer9-17/layer9-17_O11_to_O7.jpg,OO,layer9-17,0,110,110,110,,,,,,,,,706.3738711179976,None,2.0,3.8147736320024705,706.3738711179976,None,706.3738711179976,None,706.3738711179976,None,noahdeetz,001,2022_Jun_23_1319,Semantic-hierachy,2021.1.2,60.176234527180846,
Trial # 112,layer0-5_O5_to_O8.jpg,layer0-5/layer0-5_O5_to_O8.jpg,OO,layer0-5,0,111,111,111,,,,,,,,,710.4418634799949,None,1.0,2.6684088359979796,710.4418634799949,None,710.4418634799949,None,710.4418634799949,None,noahdeetz,001,2022_Jun_23_1319,Semantic-hierachy,2021.1.2,60.176234527180846,
Trial # 113,layer0-5_O10_to_O4.jpg,layer0-5/layer0-5_O10_to_O4.jpg,OO,layer0-5,0,112,112,112,,,,,,,,,714.3266366909957,None,1.0,2.027809026003524,714.3266366909957,None,714.3266366909957,None,714.3266366909957,None,noahdeetz,001,2022_Jun_23_1319,Semantic-hierachy,2021.1.2,60.176234527180846,
Trial # 114,layer9-17_O4_to_O8.jpg,layer9-17/layer9-17_O4_to_O8.jpg,OO,layer9-17,0,113,113,113,,,,,,,,,716.5773644590008,None,4.0,3.0096174020000035,716.5773644590008,None,716.5773644590008,None,716.5773644590008,None,noahdeetz,001,2022_Jun_23_1319,Semantic-hierachy,2021.1.2,60.176234527180846,
Trial # 115,layer0-5_O2_to_T8.jpg,layer0-5/layer0-5_O2_to_T8.jpg,OT,layer0-5,0,114,114,114,,,,,,,,,720.3293728509962,None,1.0,2.8384605909959646,720.3293728509962,None,720.3293728509962,None,720.3293728509962,None,noahdeetz,001,2022_Jun_23_1319,Semantic-hierachy,2021.1.2,60.176234527180846,
Trial # 116,layer9-17_T2_to_T3.jpg,layer9-17/layer9-17_T2_to_T3.jpg,TT,layer9-17,0,115,115,115,,,,,,,,,725.9799992369954,None,2.0,2.4305067059976864,725.9799992369954,None,725.9799992369954,None,725.9799992369954,None,noahdeetz,001,2022_Jun_23_1319,Semantic-hierachy,2021.1.2,60.176234527180846,
Trial # 117,layer6-8_O1_to_T10.jpg,layer6-8/layer6-8_O1_to_T10.jpg,OT,layer6-8,0,116,116,116,,,,,,,,,729.6143147159964,None,3.0,5.7449545950003085,729.6143147159964,None,729.6143147159964,None,729.6143147159964,None,noahdeetz,001,2022_Jun_23_1319,Semantic-hierachy,2021.1.2,60.176234527180846,
Trial # 118,layer0-5_T3_to_T7.jpg,layer0-5/layer0-5_T3_to_T7.jpg,TT,layer0-5,0,117,117,117,,,,,,,,,738.5353151689997,None,1.0,5.035639128000184,738.5353151689997,None,738.5353151689997,None,738.5353151689997,None,noahdeetz,001,2022_Jun_23_1319,Semantic-hierachy,2021.1.2,60.176234527180846,
Trial # 119,layer9-17_O1_to_O12.jpg,layer9-17/layer9-17_O1_to_O12.jpg,OO,layer9-17,0,118,118,118,,,,,,,,,744.469503069995,None,2.0,2.6333921650002594,744.469503069995,None,744.469503069995,None,744.469503069995,None,noahdeetz,001,2022_Jun_23_1319,Semantic-hierachy,2021.1.2,60.176234527180846,
Trial # 120,layer6-8_O12_to_O2.jpg,layer6-8/layer6-8_O12_to_O2.jpg,OO,layer6-8,0,119,119,119,,,,,,,,,749.620706914,None,4.0,4.633837027002301,749.620706914,None,749.620706914,None,749.620706914,None,noahdeetz,001,2022_Jun_23_1319,Semantic-hierachy,2021.1.2,60.176234527180846,
Trial # 121,layer9-17_O10_to_O9.jpg,layer9-17/layer9-17_O10_to_O9.jpg,OO,layer9-17,0,120,120,120,,,,,,,,,755.239109256996,None,2.0,2.0962078489974374,755.239109256996,None,755.239109256996,None,755.239109256996,None,noahdeetz,001,2022_Jun_23_1319,Semantic-hierachy,2021.1.2,60.176234527180846,
Trial # 122,layer6-8_O4_to_T10.jpg,layer6-8/layer6-8_O4_to_T10.jpg,OT,layer6-8,0,121,121,121,,,,,,,,,758.4581538959974,None,3.0,2.276546248998784,758.4581538959974,None,758.4581538959974,None,758.4581538959974,None,noahdeetz,001,2022_Jun_23_1319,Semantic-hierachy,2021.1.2,60.176234527180846,
Trial # 123,layer6-8_O2_to_T3.jpg,layer6-8/layer6-8_O2_to_T3.jpg,OT,layer6-8,0,122,122,122,,,,,,,,,763.6096891259949,None,3.0,1.747548587001802,763.6096891259949,None,763.6096891259949,None,763.6096891259949,None,noahdeetz,001,2022_Jun_23_1319,Semantic-hierachy,2021.1.2,60.176234527180846,
Trial # 124,layer0-5_O1_to_O7.jpg,layer0-5/layer0-5_O1_to_O7.jpg,OO,layer0-5,0,123,123,123,,,,,,,,,765.892420076998,None,1.0,1.550263609002286,765.892420076998,None,765.892420076998,None,765.892420076998,None,noahdeetz,001,2022_Jun_23_1319,Semantic-hierachy,2021.1.2,60.176234527180846,
Trial # 125,layer0-5_T8_to_T9.jpg,layer0-5/layer0-5_T8_to_T9.jpg,TT,layer0-5,0,124,124,124,,,,,,,,,768.043600776,None,1.0,3.982631032995414,768.043600776,None,768.043600776,None,768.043600776,None,noahdeetz,001,2022_Jun_23_1319,Semantic-hierachy,2021.1.2,60.176234527180846,
Trial # 126,layer0-5_O12_to_T8.jpg,layer0-5/layer0-5_O12_to_T8.jpg,OT,layer0-5,0,125,125,125,,,,,,,,,772.444459391998,None,1.0,5.399453445999825,772.444459391998,None,772.444459391998,None,772.444459391998,None,noahdeetz,001,2022_Jun_23_1319,Semantic-hierachy,2021.1.2,60.176234527180846,
Trial # 127,layer9-17_O4_to_O6.jpg,layer9-17/layer9-17_O4_to_O6.jpg,OO,layer9-17,0,126,126,126,,,,,,,,,778.2141738139981,None,4.0,3.1645795359945623,778.2141738139981,None,778.2141738139981,None,778.2141738139981,None,noahdeetz,001,2022_Jun_23_1319,Semantic-hierachy,2021.1.2,60.176234527180846,
Trial # 128,layer6-8_O12_to_O6.jpg,layer6-8/layer6-8_O12_to_O6.jpg,OO,layer6-8,0,127,127,127,,,,,,,,,781.8137040399961,None,4.0,4.347017305000918,781.8137040399961,None,781.8137040399961,None,781.8137040399961,None,noahdeetz,001,2022_Jun_23_1319,Semantic-hierachy,2021.1.2,60.176234527180846,
Trial # 129,layer0-5_T4_to_T6.jpg,layer0-5/layer0-5_T4_to_T6.jpg,TT,layer0-5,0,128,128,128,,,,,,,,,789.9831352769979,None,1.0,1.830004708004708,789.9831352769979,None,789.9831352769979,None,789.9831352769979,None,noahdeetz,001,2022_Jun_23_1319,Semantic-hierachy,2021.1.2,60.176234527180846,
Trial # 130,layer9-17_O1_to_O3.jpg,layer9-17/layer9-17_O1_to_O3.jpg,OO,layer9-17,0,129,129,129,,,,,,,,,792.0339674860006,None,2.0,1.493536474998109,792.0339674860006,None,792.0339674860006,None,792.0339674860006,None,noahdeetz,001,2022_Jun_23_1319,Semantic-hierachy,2021.1.2,60.176234527180846,
Trial # 131,layer9-17_O10_to_O3.jpg,layer9-17/layer9-17_O10_to_O3.jpg,OO,layer9-17,0,130,130,130,,,,,,,,,793.8355523859937,None,2.0,1.1594216790035716,793.8355523859937,None,793.8355523859937,None,793.8355523859937,None,noahdeetz,001,2022_Jun_23_1319,Semantic-hierachy,2021.1.2,60.176234527180846,
Trial # 132,layer9-17_O12_to_O3.jpg,layer9-17/layer9-17_O12_to_O3.jpg,OO,layer9-17,0,131,131,131,,,,,,,,,795.2181037019982,None,2.0,1.2856112379959086,795.2181037019982,None,795.2181037019982,None,795.2181037019982,None,noahdeetz,001,2022_Jun_23_1319,Semantic-hierachy,2021.1.2,60.176234527180846,
Trial # 133,layer9-17_O11_to_O4.jpg,layer9-17/layer9-17_O11_to_O4.jpg,OO,layer9-17,0,132,132,132,,,,,,,,,797.0020865439947,None,4.0,3.617387571001018,797.0020865439947,None,797.0020865439947,None,797.0020865439947,None,noahdeetz,001,2022_Jun_23_1319,Semantic-hierachy,2021.1.2,60.176234527180846,
Trial # 134,layer9-17_T4_to_T7.jpg,layer9-17/layer9-17_T4_to_T7.jpg,TT,layer9-17,0,133,133,133,,,,,,,,,801.0539210700008,None,2.0,2.491661282001587,801.0539210700008,None,801.0539210700008,None,801.0539210700008,None,noahdeetz,001,2022_Jun_23_1319,Semantic-hierachy,2021.1.2,60.176234527180846,
Trial # 135,layer9-17_O1_to_T1.jpg,layer9-17/layer9-17_O1_to_T1.jpg,OT,layer9-17,0,134,134,134,,,,,,,,,803.7221753049962,None,4.0,2.756421224003134,803.7221753049962,None,803.7221753049962,None,803.7221753049962,None,noahdeetz,001,2022_Jun_23_1319,Semantic-hierachy,2021.1.2,60.176234527180846,
Trial # 136,layer6-8_T2_to_T5.jpg,layer6-8/layer6-8_T2_to_T5.jpg,TT,layer6-8,0,135,135,135,,,,,,,,,806.7053274719947,None,4.0,3.613379337999504,806.7053274719947,None,806.7053274719947,None,806.7053274719947,None,noahdeetz,001,2022_Jun_23_1319,Semantic-hierachy,2021.1.2,60.176234527180846,
Trial # 137,layer9-17_T11_to_T7.jpg,layer9-17/layer9-17_T11_to_T7.jpg,TT,layer9-17,0,136,136,136,,,,,,,,,812.9917340869943,None,2.0,3.9482479829966906,812.9917340869943,None,812.9917340869943,None,812.9917340869943,None,noahdeetz,001,2022_Jun_23_1319,Semantic-hierachy,2021.1.2,60.176234527180846,
Trial # 138,layer6-8_O3_to_O8.jpg,layer6-8/layer6-8_O3_to_O8.jpg,OO,layer6-8,0,137,137,137,,,,,,,,,818.1266578239956,None,3.0,2.766051917002187,818.1266578239956,None,818.1266578239956,None,818.1266578239956,None,noahdeetz,001,2022_Jun_23_1319,Semantic-hierachy,2021.1.2,60.176234527180846,
Trial # 139,layer6-8_O1_to_T7.jpg,layer6-8/layer6-8_O1_to_T7.jpg,OT,layer6-8,0,138,138,138,,,,,,,,,823.4282196299973,None,4.0,10.083581614002469,823.4282196299973,None,823.4282196299973,None,823.4282196299973,None,noahdeetz,001,2022_Jun_23_1319,Semantic-hierachy,2021.1.2,60.176234527180846,
Trial # 140,layer9-17_T1_to_T3.jpg,layer9-17/layer9-17_T1_to_T3.jpg,TT,layer9-17,0,139,139,139,,,,,,,,,835.4472507269966,None,4.0,3.57694416600134,835.4472507269966,None,835.4472507269966,None,835.4472507269966,None,noahdeetz,001,2022_Jun_23_1319,Semantic-hierachy,2021.1.2,60.176234527180846,
Trial # 141,layer6-8_O10_to_O12.jpg,layer6-8/layer6-8_O10_to_O12.jpg,OO,layer6-8,0,140,140,140,,,,,,,,,839.3151952849948,None,4.0,2.479947021995031,839.3151952849948,None,839.3151952849948,None,839.3151952849948,None,noahdeetz,001,2022_Jun_23_1319,Semantic-hierachy,2021.1.2,60.176234527180846,
Trial # 142,layer6-8_O12_to_T11.jpg,layer6-8/layer6-8_O12_to_T11.jpg,OT,layer6-8,0,141,141,141,,,,,,,,,843.3345481479992,None,4.0,4.384138316003373,843.3345481479992,None,843.3345481479992,None,843.3345481479992,None,noahdeetz,001,2022_Jun_23_1319,Semantic-hierachy,2021.1.2,60.176234527180846,
Trial # 143,layer0-5_O11_to_O5.jpg,layer0-5/layer0-5_O11_to_O5.jpg,OO,layer0-5,0,142,142,142,,,,,,,,,849.2857524719948,None,1.0,2.1944512170011876,849.2857524719948,None,849.2857524719948,None,849.2857524719948,None,noahdeetz,001,2022_Jun_23_1319,Semantic-hierachy,2021.1.2,60.176234527180846,
Trial # 144,layer6-8_O1_to_O8.jpg,layer6-8/layer6-8_O1_to_O8.jpg,OO,layer6-8,0,143,143,143,,,,,,,,,851.7691790809986,None,2.0,1.980393523001112,851.7691790809986,None,851.7691790809986,None,851.7691790809986,None,noahdeetz,001,2022_Jun_23_1319,Semantic-hierachy,2021.1.2,60.176234527180846,
Trial # 145,layer0-5_T2_to_T5.jpg,layer0-5/layer0-5_T2_to_T5.jpg,TT,layer0-5,0,144,144,144,,,,,,,,,854.2700156529972,None,1.0,3.3427793420050875,854.2700156529972,None,854.2700156529972,None,854.2700156529972,None,noahdeetz,001,2022_Jun_23_1319,Semantic-hierachy,2021.1.2,60.176234527180846,
Trial # 146,layer9-17_O8_to_T3.jpg,layer9-17/layer9-17_O8_to_T3.jpg,OT,layer9-17,0,145,145,145,,,,,,,,,857.9379248219993,None,2.0,2.2737689429995953,857.9379248219993,None,857.9379248219993,None,857.9379248219993,None,noahdeetz,001,2022_Jun_23_1319,Semantic-hierachy,2021.1.2,60.176234527180846,
Trial # 147,layer9-17_O8_to_T4.jpg,layer9-17/layer9-17_O8_to_T4.jpg,OT,layer9-17,0,146,146,146,,,,,,,,,860.4050250829969,None,4.0,4.962065822001023,860.4050250829969,None,860.4050250829969,None,860.4050250829969,None,noahdeetz,001,2022_Jun_23_1319,Semantic-hierachy,2021.1.2,60.176234527180846,
Trial # 148,layer9-17_O4_to_T9.jpg,layer9-17/layer9-17_O4_to_T9.jpg,OT,layer9-17,0,147,147,147,,,,,,,,,865.6231671559945,None,2.0,1.6353962180000963,865.6231671559945,None,865.6231671559945,None,865.6231671559945,None,noahdeetz,001,2022_Jun_23_1319,Semantic-hierachy,2021.1.2,60.176234527180846,
Trial # 149,layer6-8_O4_to_O8.jpg,layer6-8/layer6-8_O4_to_O8.jpg,OO,layer6-8,0,148,148,148,,,,,,,,,867.825363375996,None,3.0,3.0605504430059227,867.825363375996,None,867.825363375996,None,867.825363375996,None,noahdeetz,001,2022_Jun_23_1319,Semantic-hierachy,2021.1.2,60.176234527180846,
Trial # 150,layer0-5_O12_to_T7.jpg,layer0-5/layer0-5_O12_to_T7.jpg,OT,layer0-5,0,149,149,149,,,,,,,,,871.3085013199961,None,1.0,2.888177519002056,871.3085013199961,None,871.3085013199961,None,871.3085013199961,None,noahdeetz,001,2022_Jun_23_1319,Semantic-hierachy,2021.1.2,60.176234527180846,
Trial # 151,layer6-8_T1_to_T3.jpg,layer6-8/layer6-8_T1_to_T3.jpg,TT,layer6-8,,,,,0,0,0,0,,,,,877.3602969559943,None,4.0,6.058286358995247,877.3602969559943,None,877.3602969559943,None,877.3602969559943,None,noahdeetz,001,2022_Jun_23_1319,Semantic-hierachy,2021.1.2,60.176234527180846,
Trial # 152,layer0-5_O8_to_O9.jpg,layer0-5/layer0-5_O8_to_O9.jpg,OO,layer0-5,,,,,0,1,1,1,,,,,883.7135042359951,None,1.0,2.8472264020019793,883.7135042359951,None,883.7135042359951,None,883.7135042359951,None,noahdeetz,001,2022_Jun_23_1319,Semantic-hierachy,2021.1.2,60.176234527180846,
Trial # 153,layer9-17_T1_to_T5.jpg,layer9-17/layer9-17_T1_to_T5.jpg,TT,layer9-17,,,,,0,2,2,2,,,,,886.796441075996,None,2.0,1.2994245829977444,886.796441075996,None,886.796441075996,None,886.796441075996,None,noahdeetz,001,2022_Jun_23_1319,Semantic-hierachy,2021.1.2,60.176234527180846,
Trial # 154,layer6-8_T7_to_T9.jpg,layer6-8/layer6-8_T7_to_T9.jpg,TT,layer6-8,,,,,0,3,3,3,,,,,888.3138512439982,None,4.0,1.963517212003353,888.3138512439982,None,888.3138512439982,None,888.3138512439982,None,noahdeetz,001,2022_Jun_23_1319,Semantic-hierachy,2021.1.2,60.176234527180846,
Trial # 155,layer9-17_T12_to_T7.jpg,layer9-17/layer9-17_T12_to_T7.jpg,TT,layer9-17,,,,,0,4,4,4,,,,,890.5976550880005,None,2.0,1.9418309290049365,890.5976550880005,None,890.5976550880005,None,890.5976550880005,None,noahdeetz,001,2022_Jun_23_1319,Semantic-hierachy,2021.1.2,60.176234527180846,
Trial # 156,layer0-5_O8_to_T11.jpg,layer0-5/layer0-5_O8_to_T11.jpg,OT,layer0-5,,,,,0,5,5,5,,,,,892.7661730399996,None,1.0,2.030583593004849,892.7661730399996,None,892.7661730399996,None,892.7661730399996,None,noahdeetz,001,2022_Jun_23_1319,Semantic-hierachy,2021.1.2,60.176234527180846,
Trial # 157,layer0-5_O1_to_O9.jpg,layer0-5/layer0-5_O1_to_O9.jpg,OO,layer0-5,,,,,0,6,6,6,,,,,894.998955750998,None,1.0,2.367612979003752,894.998955750998,None,894.998955750998,None,894.998955750998,None,noahdeetz,001,2022_Jun_23_1319,Semantic-hierachy,2021.1.2,60.176234527180846,
Trial # 158,layer0-5_O10_to_O12.jpg,layer0-5/layer0-5_O10_to_O12.jpg,OO,layer0-5,,,,,0,7,7,7,,,,,897.6010102059954,None,1.0,2.8680569470016053,897.6010102059954,None,897.6010102059954,None,897.6010102059954,None,noahdeetz,001,2022_Jun_23_1319,Semantic-hierachy,2021.1.2,60.176234527180846,
Trial # 159,layer6-8_O10_to_T5.jpg,layer6-8/layer6-8_O10_to_T5.jpg,OT,layer6-8,,,,,0,8,8,8,,,,,900.6842157520005,None,4.0,3.5991069919982692,900.6842157520005,None,900.6842157520005,None,900.6842157520005,None,noahdeetz,001,2022_Jun_23_1319,Semantic-hierachy,2021.1.2,60.176234527180846,
Trial # 160,layer6-8_O5_to_O6.jpg,layer6-8/layer6-8_O5_to_O6.jpg,OO,layer6-8,,,,,0,9,9,9,,,,,905.3535779279991,None,4.0,3.4421077689985395,905.3535779279991,None,905.3535779279991,None,905.3535779279991,None,noahdeetz,001,2022_Jun_23_1319,Semantic-hierachy,2021.1.2,60.176234527180846,
Trial # 161,layer6-8_O6_to_T11.jpg,layer6-8/layer6-8_O6_to_T11.jpg,OT,layer6-8,,,,,0,10,10,10,,,,,908.9545985259974,None,2.0,2.0329809589966317,908.9545985259974,None,908.9545985259974,None,908.9545985259974,None,noahdeetz,001,2022_Jun_23_1319,Semantic-hierachy,2021.1.2,60.176234527180846,
Trial # 162,layer9-17_O12_to_O9.jpg,layer9-17/layer9-17_O12_to_O9.jpg,OO,layer9-17,,,,,0,11,11,11,,,,,911.2871093930007,None,2.0,1.9996941279969178,911.2871093930007,None,911.2871093930007,None,911.2871093930007,None,noahdeetz,001,2022_Jun_23_1319,Semantic-hierachy,2021.1.2,60.176234527180846,
Trial # 163,layer6-8_O12_to_T6.jpg,layer6-8/layer6-8_O12_to_T6.jpg,OT,layer6-8,,,,,0,12,12,12,,,,,913.5892825569972,None,4.0,1.8144465660006972,913.5892825569972,None,913.5892825569972,None,913.5892825569972,None,noahdeetz,001,2022_Jun_23_1319,Semantic-hierachy,2021.1.2,60.176234527180846,
Trial # 164,layer0-5_T11_to_T7.jpg,layer0-5/layer0-5_T11_to_T7.jpg,TT,layer0-5,,,,,0,13,13,13,,,,,915.8057801649993,None,1.0,5.06944396700419,915.8057801649993,None,915.8057801649993,None,915.8057801649993,None,noahdeetz,001,2022_Jun_23_1319,Semantic-hierachy,2021.1.2,60.176234527180846,
Trial # 165,layer9-17_O10_to_T5.jpg,layer9-17/layer9-17_O10_to_T5.jpg,OT,layer9-17,,,,,0,14,14,14,,,,,923.1423365570008,None,4.0,4.314297340999474,923.1423365570008,None,923.1423365570008,None,923.1423365570008,None,noahdeetz,001,2022_Jun_23_1319,Semantic-hierachy,2021.1.2,60.176234527180846,
Trial # 166,layer9-17_T1_to_T6.jpg,layer9-17/layer9-17_T1_to_T6.jpg,TT,layer9-17,,,,,0,15,15,15,,,,,928.3107652269973,None,2.0,1.7035540470023989,928.3107652269973,None,928.3107652269973,None,928.3107652269973,None,noahdeetz,001,2022_Jun_23_1319,Semantic-hierachy,2021.1.2,60.176234527180846,
Trial # 167,layer0-5_T1_to_T3.jpg,layer0-5/layer0-5_T1_to_T3.jpg,TT,layer0-5,,,,,0,16,16,16,,,,,930.5098267369976,None,1.0,2.47460796499945,930.5098267369976,None,930.5098267369976,None,930.5098267369976,None,noahdeetz,001,2022_Jun_23_1319,Semantic-hierachy,2021.1.2,60.176234527180846,
Trial # 168,layer0-5_O2_to_O9.jpg,layer0-5/layer0-5_O2_to_O9.jpg,OO,layer0-5,,,,,0,17,17,17,,,,,934.2458119239964,None,1.0,2.301903058003518,934.2458119239964,None,934.2458119239964,None,934.2458119239964,None,noahdeetz,001,2022_Jun_23_1319,Semantic-hierachy,2021.1.2,60.176234527180846,
Trial # 169,layer9-17_O3_to_T4.jpg,layer9-17/layer9-17_O3_to_T4.jpg,OT,layer9-17,,,,,0,18,18,18,,,,,936.9788483059965,None,2.0,1.4467723739944631,936.9788483059965,None,936.9788483059965,None,936.9788483059965,None,noahdeetz,001,2022_Jun_23_1319,Semantic-hierachy,2021.1.2,60.176234527180846,
Trial # 170,layer6-8_O11_to_O9.jpg,layer6-8/layer6-8_O11_to_O9.jpg,OO,layer6-8,,,,,0,19,19,19,,,,,938.6971966329947,None,2.0,1.9234472809985164,938.6971966329947,None,938.6971966329947,None,938.6971966329947,None,noahdeetz,001,2022_Jun_23_1319,Semantic-hierachy,2021.1.2,60.176234527180846,
Trial # 171,layer9-17_O1_to_O7.jpg,layer9-17/layer9-17_O1_to_O7.jpg,OO,layer9-17,,,,,0,20,20,20,,,,,945.5148312899983,None,4.0,4.478996568002913,945.5148312899983,None,945.5148312899983,None,945.5148312899983,None,noahdeetz,001,2022_Jun_23_1319,Semantic-hierachy,2021.1.2,60.176234527180846,
Trial # 172,layer0-5_T12_to_T4.jpg,layer0-5/layer0-5_T12_to_T4.jpg,TT,layer0-5,,,,,0,21,21,21,,,,,957.7027903589988,None,1.0,3.430020391999278,957.7027903589988,None,957.7027903589988,None,957.7027903589988,None,noahdeetz,001,2022_Jun_23_1319,Semantic-hierachy,2021.1.2,60.176234527180846,
Trial # 173,layer0-5_O4_to_T4.jpg,layer0-5/layer0-5_O4_to_T4.jpg,OT,layer0-5,,,,,0,22,22,22,,,,,961.6198872210007,None,4.0,4.9492706269957125,961.6198872210007,None,961.6198872210007,None,961.6198872210007,None,noahdeetz,001,2022_Jun_23_1319,Semantic-hierachy,2021.1.2,60.176234527180846,
Trial # 174,layer6-8_T12_to_T5.jpg,layer6-8/layer6-8_T12_to_T5.jpg,TT,layer6-8,,,,,0,23,23,23,,,,,966.9040656769939,None,4.0,3.803738037997391,966.9040656769939,None,966.9040656769939,None,966.9040656769939,None,noahdeetz,001,2022_Jun_23_1319,Semantic-hierachy,2021.1.2,60.176234527180846,
Trial # 175,layer6-8_O11_to_T1.jpg,layer6-8/layer6-8_O11_to_T1.jpg,OT,layer6-8,,,,,0,24,24,24,,,,,971.0726058459986,None,4.0,3.0130298559961375,971.0726058459986,None,971.0726058459986,None,971.0726058459986,None,noahdeetz,001,2022_Jun_23_1319,Semantic-hierachy,2021.1.2,60.176234527180846,
Trial # 176,layer0-5_O7_to_T8.jpg,layer0-5/layer0-5_O7_to_T8.jpg,OT,layer0-5,,,,,0,25,25,25,,,,,975.5578658209997,None,1.0,1.9955273100058548,975.5578658209997,None,975.5578658209997,None,975.5578658209997,None,noahdeetz,001,2022_Jun_23_1319,Semantic-hierachy,2021.1.2,60.176234527180846,
Trial # 177,layer0-5_O11_to_T5.jpg,layer0-5/layer0-5_O11_to_T5.jpg,OT,layer0-5,,,,,0,26,26,26,,,,,977.8419147469976,None,1.0,1.614357652993931,977.8419147469976,None,977.8419147469976,None,977.8419147469976,None,noahdeetz,001,2022_Jun_23_1319,Semantic-hierachy,2021.1.2,60.176234527180846,
Trial # 178,layer9-17_O2_to_T2.jpg,layer9-17/layer9-17_O2_to_T2.jpg,OT,layer9-17,,,,,0,27,27,27,,,,,979.7254855329957,None,4.0,7.407491118996404,979.7254855329957,None,979.7254855329957,None,979.7254855329957,None,noahdeetz,001,2022_Jun_23_1319,Semantic-hierachy,2021.1.2,60.176234527180846,
Trial # 179,layer0-5_O4_to_T9.jpg,layer0-5/layer0-5_O4_to_T9.jpg,OT,layer0-5,,,,,0,28,28,28,,,,,987.5103376179977,None,1.0,2.1307221739989473,987.5103376179977,None,987.5103376179977,None,987.5103376179977,None,noahdeetz,001,2022_Jun_23_1319,Semantic-hierachy,2021.1.2,60.176234527180846,
Trial # 180,layer9-17_T6_to_T8.jpg,layer9-17/layer9-17_T6_to_T8.jpg,TT,layer9-17,,,,,0,29,29,29,,,,,990.1119353089962,None,2.0,1.5925021910006762,990.1119353089962,None,990.1119353089962,None,990.1119353089962,None,noahdeetz,001,2022_Jun_23_1319,Semantic-hierachy,2021.1.2,60.176234527180846,
Trial # 181,layer9-17_O12_to_O5.jpg,layer9-17/layer9-17_O12_to_O5.jpg,OO,layer9-17,,,,,0,30,30,30,,,,,991.87895097,None,2.0,1.8681502039980842,991.87895097,None,991.87895097,None,991.87895097,None,noahdeetz,001,2022_Jun_23_1319,Semantic-hierachy,2021.1.2,60.176234527180846,
Trial # 182,layer6-8_O1_to_O7.jpg,layer6-8/layer6-8_O1_to_O7.jpg,OO,layer6-8,,,,,0,31,31,31,,,,,993.9974876329943,None,4.0,2.5270263589991373,993.9974876329943,None,993.9974876329943,None,993.9974876329943,None,noahdeetz,001,2022_Jun_23_1319,Semantic-hierachy,2021.1.2,60.176234527180846,
Trial # 183,layer6-8_O3_to_T10.jpg,layer6-8/layer6-8_O3_to_T10.jpg,OT,layer6-8,,,,,0,32,32,32,,,,,996.9300481949977,None,3.0,1.583536706995801,996.9300481949977,None,996.9300481949977,None,996.9300481949977,None,noahdeetz,001,2022_Jun_23_1319,Semantic-hierachy,2021.1.2,60.176234527180846,
Trial # 184,layer0-5_O1_to_T11.jpg,layer0-5/layer0-5_O1_to_T11.jpg,OT,layer0-5,,,,,0,33,33,33,,,,,1001.4653321609949,None,1.0,2.217351309998776,1001.4653321609949,None,1001.4653321609949,None,1001.4653321609949,None,noahdeetz,001,2022_Jun_23_1319,Semantic-hierachy,2021.1.2,60.176234527180846,
Trial # 185,layer6-8_O8_to_O9.jpg,layer6-8/layer6-8_O8_to_O9.jpg,OO,layer6-8,,,,,0,34,34,34,,,,,1003.949664531996,None,3.0,1.829710457001056,1003.949664531996,None,1003.949664531996,None,1003.949664531996,None,noahdeetz,001,2022_Jun_23_1319,Semantic-hierachy,2021.1.2,60.176234527180846,
Trial # 186,layer9-17_O4_to_O9.jpg,layer9-17/layer9-17_O4_to_O9.jpg,OO,layer9-17,,,,,0,35,35,35,,,,,1007.585060862999,None,4.0,4.063048071999219,1007.585060862999,None,1007.585060862999,None,1007.585060862999,None,noahdeetz,001,2022_Jun_23_1319,Semantic-hierachy,2021.1.2,60.176234527180846,
Trial # 187,layer0-5_O12_to_O5.jpg,layer0-5/layer0-5_O12_to_O5.jpg,OO,layer0-5,,,,,0,36,36,36,,,,,1011.9349982450003,None,1.0,1.7454683410032885,1011.9349982450003,None,1011.9349982450003,None,1011.9349982450003,None,noahdeetz,001,2022_Jun_23_1319,Semantic-hierachy,2021.1.2,60.176234527180846,
Trial # 188,layer6-8_T12_to_T4.jpg,layer6-8/layer6-8_T12_to_T4.jpg,TT,layer6-8,,,,,0,37,37,37,,,,,1013.9035469800001,None,4.0,3.6622851919964887,1013.9035469800001,None,1013.9035469800001,None,1013.9035469800001,None,noahdeetz,001,2022_Jun_23_1319,Semantic-hierachy,2021.1.2,60.176234527180846,
Trial # 189,layer0-5_T6_to_T8.jpg,layer0-5/layer0-5_T6_to_T8.jpg,TT,layer0-5,,,,,0,38,38,38,,,,,1018.7376145159942,None,1.0,2.0073162030021194,1018.7376145159942,None,1018.7376145159942,None,1018.7376145159942,None,noahdeetz,001,2022_Jun_23_1319,Semantic-hierachy,2021.1.2,60.176234527180846,
Trial # 190,layer6-8_O11_to_T2.jpg,layer6-8/layer6-8_O11_to_T2.jpg,OT,layer6-8,,,,,0,39,39,39,,,,,1021.0546816459973,None,4.0,3.7087818360014353,1021.0546816459973,None,1021.0546816459973,None,1021.0546816459973,None,noahdeetz,001,2022_Jun_23_1319,Semantic-hierachy,2021.1.2,60.176234527180846,
Trial # 191,layer6-8_O1_to_O3.jpg,layer6-8/layer6-8_O1_to_O3.jpg,OO,layer6-8,,,,,0,40,40,40,,,,,1025.1394690889938,None,4.0,8.747780995006906,1025.1394690889938,None,1025.1394690889938,None,1025.1394690889938,None,noahdeetz,001,2022_Jun_23_1319,Semantic-hierachy,2021.1.2,60.176234527180846,
Trial # 192,layer0-5_O7_to_T1.jpg,layer0-5/layer0-5_O7_to_T1.jpg,OT,layer0-5,,,,,0,41,41,41,,,,,1034.092098672998,None,1.0,1.333566373999929,1034.092098672998,None,1034.092098672998,None,1034.092098672998,None,noahdeetz,001,2022_Jun_23_1319,Semantic-hierachy,2021.1.2,60.176234527180846,
Trial # 193,layer6-8_O3_to_T7.jpg,layer6-8/layer6-8_O3_to_T7.jpg,OT,layer6-8,,,,,0,42,42,42,,,,,1035.6594523069944,None,3.0,5.476653163001174,1035.6594523069944,None,1035.6594523069944,None,1035.6594523069944,None,noahdeetz,001,2022_Jun_23_1319,Semantic-hierachy,2021.1.2,60.176234527180846,
Trial # 194,layer9-17_T10_to_T6.jpg,layer9-17/layer9-17_T10_to_T6.jpg,TT,layer9-17,,,,,0,43,43,43,,,,,1041.3109264230006,None,2.0,2.318448970996542,1041.3109264230006,None,1041.3109264230006,None,1041.3109264230006,None,noahdeetz,001,2022_Jun_23_1319,Semantic-hierachy,2021.1.2,60.176234527180846,
Trial # 195,layer6-8_T2_to_T9.jpg,layer6-8/layer6-8_T2_to_T9.jpg,TT,layer6-8,,,,,0,44,44,44,,,,,1043.8463365520001,None,4.0,9.450530832000368,1043.8463365520001,None,1043.8463365520001,None,1043.8463365520001,None,noahdeetz,001,2022_Jun_23_1319,Semantic-hierachy,2021.1.2,60.176234527180846,
Trial # 196,layer0-5_O3_to_T3.jpg,layer0-5/layer0-5_O3_to_T3.jpg,OT,layer0-5,,,,,0,45,45,45,,,,,1053.4656935629973,None,1.0,4.546269749000203,1053.4656935629973,None,1053.4656935629973,None,1053.4656935629973,None,noahdeetz,001,2022_Jun_23_1319,Semantic-hierachy,2021.1.2,60.176234527180846,
Trial # 197,layer9-17_O1_to_O2.jpg,layer9-17/layer9-17_O1_to_O2.jpg,OO,layer9-17,,,,,0,46,46,46,,,,,1058.1839948229972,None,4.0,3.5632083869932103,1058.1839948229972,None,1058.1839948229972,None,1058.1839948229972,None,noahdeetz,001,2022_Jun_23_1319,Semantic-hierachy,2021.1.2,60.176234527180846,
Trial # 198,layer9-17_T2_to_T9.jpg,layer9-17/layer9-17_T2_to_T9.jpg,TT,layer9-17,,,,,0,47,47,47,,,,,1062.3673639240005,None,2.0,1.6160306800011313,1062.3673639240005,None,1062.3673639240005,None,1062.3673639240005,None,noahdeetz,001,2022_Jun_23_1319,Semantic-hierachy,2021.1.2,60.176234527180846,
Trial # 199,layer9-17_O6_to_T10.jpg,layer9-17/layer9-17_O6_to_T10.jpg,OT,layer9-17,,,,,0,48,48,48,,,,,1064.185871390997,None,2.0,2.693869094000547,1064.185871390997,None,1064.185871390997,None,1064.185871390997,None,noahdeetz,001,2022_Jun_23_1319,Semantic-hierachy,2021.1.2,60.176234527180846,
Trial # 200,layer0-5_T12_to_T5.jpg,layer0-5/layer0-5_T12_to_T5.jpg,TT,layer0-5,,,,,0,49,49,49,,,,,1067.1355012789936,None,1.0,1.4123966260012821,1067.1355012789936,None,1067.1355012789936,None,1067.1355012789936,None,noahdeetz,001,2022_Jun_23_1319,Semantic-hierachy,2021.1.2,60.176234527180846,
Trial # 201,layer0-5_O10_to_T10.jpg,layer0-5/layer0-5_O10_to_T10.jpg,OT,layer0-5,,,,,0,50,50,50,,,,,1068.7037884460005,None,1.0,2.2251440010004444,1068.7037884460005,None,1068.7037884460005,None,1068.7037884460005,None,noahdeetz,001,2022_Jun_23_1319,Semantic-hierachy,2021.1.2,60.176234527180846,
Trial # 202,layer9-17_T11_to_T12.jpg,layer9-17/layer9-17_T11_to_T12.jpg,TT,layer9-17,,,,,0,51,51,51,,,,,1071.8369664499987,None,2.0,1.521493020998605,1071.8369664499987,None,1071.8369664499987,None,1071.8369664499987,None,noahdeetz,001,2022_Jun_23_1319,Semantic-hierachy,2021.1.2,60.176234527180846,
Trial # 203,layer6-8_T3_to_T5.jpg,layer6-8/layer6-8_T3_to_T5.jpg,TT,layer6-8,,,,,0,52,52,52,,,,,1073.5712568119998,None,4.0,2.3976526879996527,1073.5712568119998,None,1073.5712568119998,None,1073.5712568119998,None,noahdeetz,001,2022_Jun_23_1319,Semantic-hierachy,2021.1.2,60.176234527180846,
Trial # 204,layer0-5_O5_to_T10.jpg,layer0-5/layer0-5_O5_to_T10.jpg,OT,layer0-5,,,,,0,53,53,53,,,,,1077.2887605219948,None,4.0,13.663365202002751,1077.2887605219948,None,1077.2887605219948,None,1077.2887605219948,None,noahdeetz,001,2022_Jun_23_1319,Semantic-hierachy,2021.1.2,60.176234527180846,
Trial # 205,layer0-5_O10_to_O5.jpg,layer0-5/layer0-5_O10_to_O5.jpg,OO,layer0-5,,,,,0,54,54,54,,,,,1092.3267909379938,None,1.0,13.788872069002537,1092.3267909379938,None,1092.3267909379938,None,1092.3267909379938,None,noahdeetz,001,2022_Jun_23_1319,Semantic-hierachy,2021.1.2,60.176234527180846,
Trial # 206,layer0-5_O5_to_O7.jpg,layer0-5/layer0-5_O5_to_O7.jpg,OO,layer0-5,,,,,0,55,55,55,,,,,1106.3810289819958,None,1.0,1.2701295709994156,1106.3810289819958,None,1106.3810289819958,None,1106.3810289819958,None,noahdeetz,001,2022_Jun_23_1319,Semantic-hierachy,2021.1.2,60.176234527180846,
Trial # 207,layer0-5_O3_to_T10.jpg,layer0-5/layer0-5_O3_to_T10.jpg,OT,layer0-5,,,,,0,56,56,56,,,,,1107.9652703559987,None,1.0,2.2599241100033396,1107.9652703559987,None,1107.9652703559987,None,1107.9652703559987,None,noahdeetz,001,2022_Jun_23_1319,Semantic-hierachy,2021.1.2,60.176234527180846,
Trial # 208,layer0-5_O4_to_O5.jpg,layer0-5/layer0-5_O4_to_O5.jpg,OO,layer0-5,,,,,0,57,57,57,,,,,1110.382876798998,None,1.0,1.6287463920016307,1110.382876798998,None,1110.382876798998,None,1110.382876798998,None,noahdeetz,001,2022_Jun_23_1319,Semantic-hierachy,2021.1.2,60.176234527180846,
Trial # 209,layer6-8_T12_to_T3.jpg,layer6-8/layer6-8_T12_to_T3.jpg,TT,layer6-8,,,,,0,58,58,58,,,,,1112.3165223779943,None,4.0,1.6208469179982785,1112.3165223779943,None,1112.3165223779943,None,1112.3165223779943,None,noahdeetz,001,2022_Jun_23_1319,Semantic-hierachy,2021.1.2,60.176234527180846,
Trial # 210,layer6-8_O7_to_T9.jpg,layer6-8/layer6-8_O7_to_T9.jpg,OT,layer6-8,,,,,0,59,59,59,,,,,1114.8838397779982,None,3.0,2.509971638006391,1114.8838397779982,None,1114.8838397779982,None,1114.8838397779982,None,noahdeetz,001,2022_Jun_23_1319,Semantic-hierachy,2021.1.2,60.176234527180846,
Trial # 211,layer6-8_O1_to_O11.jpg,layer6-8/layer6-8_O1_to_O11.jpg,OO,layer6-8,,,,,0,60,60,60,,,,,1118.1691146189987,None,2.0,2.5098448880016804,1118.1691146189987,None,1118.1691146189987,None,1118.1691146189987,None,noahdeetz,001,2022_Jun_23_1319,Semantic-hierachy,2021.1.2,60.176234527180846,
Trial # 212,layer6-8_T2_to_T6.jpg,layer6-8/layer6-8_T2_to_T6.jpg,TT,layer6-8,,,,,0,61,61,61,,,,,1120.8695013920005,None,4.0,4.395438405997993,1120.8695013920005,None,1120.8695013920005,None,1120.8695013920005,None,noahdeetz,001,2022_Jun_23_1319,Semantic-hierachy,2021.1.2,60.176234527180846,
Trial # 213,layer6-8_O10_to_O6.jpg,layer6-8/layer6-8_O10_to_O6.jpg,OO,layer6-8,,,,,0,62,62,62,,,,,1125.4869415479989,None,2.0,5.717012663997593,1125.4869415479989,None,1125.4869415479989,None,1125.4869415479989,None,noahdeetz,001,2022_Jun_23_1319,Semantic-hierachy,2021.1.2,60.176234527180846,
Trial # 214,layer9-17_T5_to_T8.jpg,layer9-17/layer9-17_T5_to_T8.jpg,TT,layer9-17,,,,,0,63,63,63,,,,,1131.4555514489984,None,2.0,1.1087945440012845,1131.4555514489984,None,1131.4555514489984,None,1131.4555514489984,None,noahdeetz,001,2022_Jun_23_1319,Semantic-hierachy,2021.1.2,60.176234527180846,
Trial # 215,layer9-17_O3_to_T10.jpg,layer9-17/layer9-17_O3_to_T10.jpg,OT,layer9-17,,,,,0,64,64,64,,,,,1132.8395982609945,None,2.0,1.1655903090068023,1132.8395982609945,None,1132.8395982609945,None,1132.8395982609945,None,noahdeetz,001,2022_Jun_23_1319,Semantic-hierachy,2021.1.2,60.176234527180846,
Trial # 216,layer6-8_O12_to_O3.jpg,layer6-8/layer6-8_O12_to_O3.jpg,OO,layer6-8,,,,,0,65,65,65,,,,,1134.1908599739982,None,3.0,1.9213600389994099,1134.1908599739982,None,1134.1908599739982,None,1134.1908599739982,None,noahdeetz,001,2022_Jun_23_1319,Semantic-hierachy,2021.1.2,60.176234527180846,
Trial # 217,layer0-5_T10_to_T2.jpg,layer0-5/layer0-5_T10_to_T2.jpg,TT,layer0-5,,,,,0,66,66,66,,,,,1136.3074214089938,None,1.0,2.6853168349989573,1136.3074214089938,None,1136.3074214089938,None,1136.3074214089938,None,noahdeetz,001,2022_Jun_23_1319,Semantic-hierachy,2021.1.2,60.176234527180846,
Trial # 218,layer9-17_O10_to_O6.jpg,layer9-17/layer9-17_O10_to_O6.jpg,OO,layer9-17,,,,,0,67,67,67,,,,,1139.3257468429947,None,4.0,6.392963776001125,1139.3257468429947,None,1139.3257468429947,None,1139.3257468429947,None,noahdeetz,001,2022_Jun_23_1319,Semantic-hierachy,2021.1.2,60.176234527180846,
Trial # 219,layer6-8_O6_to_O9.jpg,layer6-8/layer6-8_O6_to_O9.jpg,OO,layer6-8,,,,,0,68,68,68,,,,,1146.0765866359943,None,3.0,8.441527900002257,1146.0765866359943,None,1146.0765866359943,None,1146.0765866359943,None,noahdeetz,001,2022_Jun_23_1319,Semantic-hierachy,2021.1.2,60.176234527180846,
Trial # 220,layer0-5_O7_to_T2.jpg,layer0-5/layer0-5_O7_to_T2.jpg,OT,layer0-5,,,,,0,69,69,69,,,,,1154.7459461909966,None,1.0,1.7108034989942098,1154.7459461909966,None,1154.7459461909966,None,1154.7459461909966,None,noahdeetz,001,2022_Jun_23_1319,Semantic-hierachy,2021.1.2,60.176234527180846,
Trial # 221,layer9-17_T12_to_T2.jpg,layer9-17/layer9-17_T12_to_T2.jpg,TT,layer9-17,,,,,0,70,70,70,,,,,1156.6631543199983,None,2.0,10.115226326000993,1156.6631543199983,None,1156.6631543199983,None,1156.6631543199983,None,noahdeetz,001,2022_Jun_23_1319,Semantic-hierachy,2021.1.2,60.176234527180846,
Trial # 222,layer9-17_O8_to_T11.jpg,layer9-17/layer9-17_O8_to_T11.jpg,OT,layer9-17,,,,,0,71,71,71,,,,,1167.1164749159943,None,4.0,2.7269867140057613,1167.1164749159943,None,1167.1164749159943,None,1167.1164749159943,None,noahdeetz,001,2022_Jun_23_1319,Semantic-hierachy,2021.1.2,60.176234527180846,
Trial # 223,layer6-8_O3_to_T9.jpg,layer6-8/layer6-8_O3_to_T9.jpg,OT,layer6-8,,,,,0,72,72,72,,,,,1170.1838938039946,None,3.0,2.280804674002866,1170.1838938039946,None,1170.1838938039946,None,1170.1838938039946,None,noahdeetz,001,2022_Jun_23_1319,Semantic-hierachy,2021.1.2,60.176234527180846,
Trial # 224,layer0-5_O6_to_O9.jpg,layer0-5/layer0-5_O6_to_O9.jpg,OO,layer0-5,,,,,0,73,73,73,,,,,1173.5196391969948,None,1.0,1.5129377400007797,1173.5196391969948,None,1173.5196391969948,None,1173.5196391969948,None,noahdeetz,001,2022_Jun_23_1319,Semantic-hierachy,2021.1.2,60.176234527180846,
Trial # 225,layer0-5_O12_to_T1.jpg,layer0-5/layer0-5_O12_to_T1.jpg,OT,layer0-5,,,,,0,74,74,74,,,,,1175.2855383989954,None,1.0,2.204101579001872,1175.2855383989954,None,1175.2855383989954,None,1175.2855383989954,None,noahdeetz,001,2022_Jun_23_1319,Semantic-hierachy,2021.1.2,60.176234527180846,
Trial # 226,layer9-17_O2_to_T8.jpg,layer9-17/layer9-17_O2_to_T8.jpg,OT,layer9-17,,,,,0,75,75,75,,,,,1177.7544836989982,None,2.0,2.4696455160010373,1177.7544836989982,None,1177.7544836989982,None,1177.7544836989982,None,noahdeetz,001,2022_Jun_23_1319,Semantic-hierachy,2021.1.2,60.176234527180846,
Trial # 227,layer0-5_T4_to_T8.jpg,layer0-5/layer0-5_T4_to_T8.jpg,TT,layer0-5,,,,,0,76,76,76,,,,,1180.4205535349975,None,1.0,1.5922945369966328,1180.4205535349975,None,1180.4205535349975,None,1180.4205535349975,None,noahdeetz,001,2022_Jun_23_1319,Semantic-hierachy,2021.1.2,60.176234527180846,
Trial # 228,layer9-17_O2_to_T1.jpg,layer9-17/layer9-17_O2_to_T1.jpg,OT,layer9-17,,,,,0,77,77,77,,,,,1182.5373449629988,None,4.0,13.718486336998467,1182.5373449629988,None,1182.5373449629988,None,1182.5373449629988,None,noahdeetz,001,2022_Jun_23_1319,Semantic-hierachy,2021.1.2,60.176234527180846,
Trial # 229,layer0-5_O11_to_O7.jpg,layer0-5/layer0-5_O11_to_O7.jpg,OO,layer0-5,,,,,0,78,78,78,,,,,1197.0926083489976,None,1.0,2.2120850469946163,1197.0926083489976,None,1197.0926083489976,None,1197.0926083489976,None,noahdeetz,001,2022_Jun_23_1319,Semantic-hierachy,2021.1.2,60.176234527180846,
Trial # 230,layer6-8_T2_to_T8.jpg,layer6-8/layer6-8_T2_to_T8.jpg,TT,layer6-8,,,,,0,79,79,79,,,,,1199.4610437459996,None,4.0,2.826898332001292,1199.4610437459996,None,1199.4610437459996,None,1199.4610437459996,None,noahdeetz,001,2022_Jun_23_1319,Semantic-hierachy,2021.1.2,60.176234527180846,
Trial # 231,layer9-17_T4_to_T8.jpg,layer9-17/layer9-17_T4_to_T8.jpg,TT,layer9-17,,,,,0,80,80,80,,,,,1202.5279032379985,None,2.0,2.0623321180028142,1202.5279032379985,None,1202.5279032379985,None,1202.5279032379985,None,noahdeetz,001,2022_Jun_23_1319,Semantic-hierachy,2021.1.2,60.176234527180846,
Trial # 232,layer9-17_T11_to_T3.jpg,layer9-17/layer9-17_T11_to_T3.jpg,TT,layer9-17,,,,,0,81,81,81,,,,,1204.8283907500008,None,2.0,1.431719296000665,1204.8283907500008,None,1204.8283907500008,None,1204.8283907500008,None,noahdeetz,001,2022_Jun_23_1319,Semantic-hierachy,2021.1.2,60.176234527180846,
Trial # 233,layer0-5_O3_to_T9.jpg,layer0-5/layer0-5_O3_to_T9.jpg,OT,layer0-5,,,,,0,82,82,82,,,,,1206.5619914749986,None,1.0,1.7806144610003685,1206.5619914749986,None,1206.5619914749986,None,1206.5619914749986,None,noahdeetz,001,2022_Jun_23_1319,Semantic-hierachy,2021.1.2,60.176234527180846,
Trial # 234,layer9-17_T7_to_T8.jpg,layer9-17/layer9-17_T7_to_T8.jpg,TT,layer9-17,,,,,0,83,83,83,,,,,1208.4965552259964,None,4.0,2.38070720199903,1208.4965552259964,None,1208.4965552259964,None,1208.4965552259964,None,noahdeetz,001,2022_Jun_23_1319,Semantic-hierachy,2021.1.2,60.176234527180846,
Trial # 235,layer9-17_O3_to_O4.jpg,layer9-17/layer9-17_O3_to_O4.jpg,OO,layer9-17,,,,,0,84,84,84,,,,,1211.1298505749946,None,2.0,1.524972692997835,1211.1298505749946,None,1211.1298505749946,None,1211.1298505749946,None,noahdeetz,001,2022_Jun_23_1319,Semantic-hierachy,2021.1.2,60.176234527180846,
Trial # 236,layer6-8_O8_to_T6.jpg,layer6-8/layer6-8_O8_to_T6.jpg,OT,layer6-8,,,,,0,85,85,85,,,,,1212.8654731209972,None,4.0,1.608664145001967,1212.8654731209972,None,1212.8654731209972,None,1212.8654731209972,None,noahdeetz,001,2022_Jun_23_1319,Semantic-hierachy,2021.1.2,60.176234527180846,
Trial # 237,layer9-17_T6_to_T7.jpg,layer9-17/layer9-17_T6_to_T7.jpg,TT,layer9-17,,,,,0,86,86,86,,,,,1214.631395737997,None,2.0,1.2472988950030413,1214.631395737997,None,1214.631395737997,None,1214.631395737997,None,noahdeetz,001,2022_Jun_23_1319,Semantic-hierachy,2021.1.2,60.176234527180846,
Trial # 238,layer0-5_T2_to_T9.jpg,layer0-5/layer0-5_T2_to_T9.jpg,TT,layer0-5,,,,,0,87,87,87,,,,,1216.0821042559983,None,1.0,1.4472340909997001,1216.0821042559983,None,1216.0821042559983,None,1216.0821042559983,None,noahdeetz,001,2022_Jun_23_1319,Semantic-hierachy,2021.1.2,60.176234527180846,
Trial # 239,layer0-5_O2_to_O5.jpg,layer0-5/layer0-5_O2_to_O5.jpg,OO,layer0-5,,,,,0,88,88,88,,,,,1217.6836934759995,None,1.0,1.546292204002384,1217.6836934759995,None,1217.6836934759995,None,1217.6836934759995,None,noahdeetz,001,2022_Jun_23_1319,Semantic-hierachy,2021.1.2,60.176234527180846,
Trial # 240,layer6-8_O1_to_O5.jpg,layer6-8/layer6-8_O1_to_O5.jpg,OO,layer6-8,,,,,0,89,89,89,,,,,1219.399273981995,None,4.0,1.9819871569998213,1219.399273981995,None,1219.399273981995,None,1219.399273981995,None,noahdeetz,001,2022_Jun_23_1319,Semantic-hierachy,2021.1.2,60.176234527180846,
Trial # 241,layer9-17_O3_to_O7.jpg,layer9-17/layer9-17_O3_to_O7.jpg,OO,layer9-17,,,,,0,90,90,90,,,,,1222.3166411299972,None,2.0,1.5327943520023837,1222.3166411299972,None,1222.3166411299972,None,1222.3166411299972,None,noahdeetz,001,2022_Jun_23_1319,Semantic-hierachy,2021.1.2,60.176234527180846,
Trial # 242,layer6-8_O11_to_O8.jpg,layer6-8/layer6-8_O11_to_O8.jpg,OO,layer6-8,,,,,0,91,91,91,,,,,1224.0020286369981,None,4.0,4.038639977996354,1224.0020286369981,None,1224.0020286369981,None,1224.0020286369981,None,noahdeetz,001,2022_Jun_23_1319,Semantic-hierachy,2021.1.2,60.176234527180846,
Trial # 243,layer9-17_T1_to_T12.jpg,layer9-17/layer9-17_T1_to_T12.jpg,TT,layer9-17,,,,,0,92,92,92,,,,,1228.2528895699943,None,2.0,3.9815734010044252,1228.2528895699943,None,1228.2528895699943,None,1228.2528895699943,None,noahdeetz,001,2022_Jun_23_1319,Semantic-hierachy,2021.1.2,60.176234527180846,
Trial # 244,layer9-17_O6_to_O8.jpg,layer9-17/layer9-17_O6_to_O8.jpg,OO,layer9-17,,,,,0,93,93,93,,,,,1232.7212417939954,None,4.0,5.459779270000581,1232.7212417939954,None,1232.7212417939954,None,1232.7212417939954,None,noahdeetz,001,2022_Jun_23_1319,Semantic-hierachy,2021.1.2,60.176234527180846,
Trial # 245,layer6-8_O4_to_T11.jpg,layer6-8/layer6-8_O4_to_T11.jpg,OT,layer6-8,,,,,0,94,94,94,,,,,1238.3399321939942,None,3.0,2.1984345149976434,1238.3399321939942,None,1238.3399321939942,None,1238.3399321939942,None,noahdeetz,001,2022_Jun_23_1319,Semantic-hierachy,2021.1.2,60.176234527180846,
Trial # 246,layer9-17_T10_to_T3.jpg,layer9-17/layer9-17_T10_to_T3.jpg,TT,layer9-17,,,,,0,95,95,95,,,,,1240.8726981250002,None,2.0,1.735285312999622,1240.8726981250002,None,1240.8726981250002,None,1240.8726981250002,None,noahdeetz,001,2022_Jun_23_1319,Semantic-hierachy,2021.1.2,60.176234527180846,
Trial # 247,layer0-5_O10_to_O8.jpg,layer0-5/layer0-5_O10_to_O8.jpg,OO,layer0-5,,,,,0,96,96,96,,,,,1243.2904038639972,None,1.0,2.747299804002978,1243.2904038639972,None,1243.2904038639972,None,1243.2904038639972,None,noahdeetz,001,2022_Jun_23_1319,Semantic-hierachy,2021.1.2,60.176234527180846,
Trial # 248,layer6-8_O3_to_T12.jpg,layer6-8/layer6-8_O3_to_T12.jpg,OT,layer6-8,,,,,0,97,97,97,,,,,1246.2408801489946,None,3.0,2.949684729996079,1246.2408801489946,None,1246.2408801489946,None,1246.2408801489946,None,noahdeetz,001,2022_Jun_23_1319,Semantic-hierachy,2021.1.2,60.176234527180846,
Trial # 249,layer0-5_O12_to_T9.jpg,layer0-5/layer0-5_O12_to_T9.jpg,OT,layer0-5,,,,,0,98,98,98,,,,,1250.5756742890007,None,1.0,1.6128978019987699,1250.5756742890007,None,1250.5756742890007,None,1250.5756742890007,None,noahdeetz,001,2022_Jun_23_1319,Semantic-hierachy,2021.1.2,60.176234527180846,
Trial # 250,layer9-17_T1_to_T9.jpg,layer9-17/layer9-17_T1_to_T9.jpg,TT,layer9-17,,,,,0,99,99,99,,,,,1252.8942029239988,None,1.0,1.3979877170058899,1252.8942029239988,None,1252.8942029239988,None,1252.8942029239988,None,noahdeetz,001,2022_Jun_23_1319,Semantic-hierachy,2021.1.2,60.176234527180846,
Trial # 251,layer9-17_T11_to_T8.jpg,layer9-17/layer9-17_T11_to_T8.jpg,TT,layer9-17,,,,,0,100,100,100,,,,,1254.5602201989968,None,2.0,1.6792126350046601,1254.5602201989968,None,1254.5602201989968,None,1254.5602201989968,None,noahdeetz,001,2022_Jun_23_1319,Semantic-hierachy,2021.1.2,60.176234527180846,
Trial # 252,layer9-17_T11_to_T5.jpg,layer9-17/layer9-17_T11_to_T5.jpg,TT,layer9-17,,,,,0,101,101,101,,,,,1256.444091432997,None,4.0,2.101326248004625,1256.444091432997,None,1256.444091432997,None,1256.444091432997,None,noahdeetz,001,2022_Jun_23_1319,Semantic-hierachy,2021.1.2,60.176234527180846,
Trial # 253,layer6-8_T10_to_T12.jpg,layer6-8/layer6-8_T10_to_T12.jpg,TT,layer6-8,,,,,0,102,102,102,,,,,1259.895181505999,None,4.0,3.9281455900054425,1259.895181505999,None,1259.895181505999,None,1259.895181505999,None,noahdeetz,001,2022_Jun_23_1319,Semantic-hierachy,2021.1.2,60.176234527180846,
Trial # 254,layer9-17_O5_to_T1.jpg,layer9-17/layer9-17_O5_to_T1.jpg,OT,layer9-17,,,,,0,103,103,103,,,,,1264.1976813199944,None,2.0,2.02618845699908,1264.1976813199944,None,1264.1976813199944,None,1264.1976813199944,None,noahdeetz,001,2022_Jun_23_1319,Semantic-hierachy,2021.1.2,60.176234527180846,
Trial # 255,layer6-8_T2_to_T3.jpg,layer6-8/layer6-8_T2_to_T3.jpg,TT,layer6-8,,,,,0,104,104,104,,,,,1266.413827378994,None,4.0,2.0290887630035286,1266.413827378994,None,1266.413827378994,None,1266.413827378994,None,noahdeetz,001,2022_Jun_23_1319,Semantic-hierachy,2021.1.2,60.176234527180846,
Trial # 256,layer6-8_O2_to_T6.jpg,layer6-8/layer6-8_O2_to_T6.jpg,OT,layer6-8,,,,,0,105,105,105,,,,,1272.3166309980006,None,4.0,1.9542816699977266,1272.3166309980006,None,1272.3166309980006,None,1272.3166309980006,None,noahdeetz,001,2022_Jun_23_1319,Semantic-hierachy,2021.1.2,60.176234527180846,
Trial # 257,layer6-8_T11_to_T9.jpg,layer6-8/layer6-8_T11_to_T9.jpg,TT,layer6-8,,,,,0,106,106,106,,,,,1274.3995951999968,None,4.0,7.683666577999247,1274.3995951999968,None,1274.3995951999968,None,1274.3995951999968,None,noahdeetz,001,2022_Jun_23_1319,Semantic-hierachy,2021.1.2,60.176234527180846,
Trial # 258,layer6-8_O5_to_T9.jpg,layer6-8/layer6-8_O5_to_T9.jpg,OT,layer6-8,,,,,0,107,107,107,,,,,1282.3190621979957,None,3.0,1.7997590619997936,1282.3190621979957,None,1282.3190621979957,None,1282.3190621979957,None,noahdeetz,001,2022_Jun_23_1319,Semantic-hierachy,2021.1.2,60.176234527180846,
Trial # 259,layer6-8_O9_to_T8.jpg,layer6-8/layer6-8_O9_to_T8.jpg,OT,layer6-8,,,,,0,108,108,108,,,,,1284.3041611730005,None,3.0,1.8678008999995654,1284.3041611730005,None,1284.3041611730005,None,1284.3041611730005,None,noahdeetz,001,2022_Jun_23_1319,Semantic-hierachy,2021.1.2,60.176234527180846,
Trial # 260,layer6-8_T1_to_T5.jpg,layer6-8/layer6-8_T1_to_T5.jpg,TT,layer6-8,,,,,0,109,109,109,,,,,1286.3535737040002,None,3.0,3.6413261589987087,1286.3535737040002,None,1286.3535737040002,None,1286.3535737040002,None,noahdeetz,001,2022_Jun_23_1319,Semantic-hierachy,2021.1.2,60.176234527180846,
Trial # 261,layer0-5_O11_to_T2.jpg,layer0-5/layer0-5_O11_to_T2.jpg,OT,layer0-5,,,,,0,110,110,110,,,,,1291.2048132359996,None,1.0,6.1147762710024836,1291.2048132359996,None,1291.2048132359996,None,1291.2048132359996,None,noahdeetz,001,2022_Jun_23_1319,Semantic-hierachy,2021.1.2,60.176234527180846,
Trial # 262,layer0-5_O7_to_T4.jpg,layer0-5/layer0-5_O7_to_T4.jpg,OT,layer0-5,,,,,0,111,111,111,,,,,1298.1247291699983,None,1.0,1.5546809990046313,1298.1247291699983,None,1298.1247291699983,None,1298.1247291699983,None,noahdeetz,001,2022_Jun_23_1319,Semantic-hierachy,2021.1.2,60.176234527180846,
Trial # 263,layer6-8_T12_to_T8.jpg,layer6-8/layer6-8_T12_to_T8.jpg,TT,layer6-8,,,,,0,112,112,112,,,,,1299.8576324780006,None,2.0,3.425856814996223,1299.8576324780006,None,1299.8576324780006,None,1299.8576324780006,None,noahdeetz,001,2022_Jun_23_1319,Semantic-hierachy,2021.1.2,60.176234527180846,
Trial # 264,layer6-8_O4_to_O9.jpg,layer6-8/layer6-8_O4_to_O9.jpg,OO,layer6-8,,,,,0,113,113,113,,,,,1303.459822263998,None,4.0,2.5646448050028994,1303.459822263998,None,1303.459822263998,None,1303.459822263998,None,noahdeetz,001,2022_Jun_23_1319,Semantic-hierachy,2021.1.2,60.176234527180846,
Trial # 265,layer0-5_T1_to_T5.jpg,layer0-5/layer0-5_T1_to_T5.jpg,TT,layer0-5,,,,,0,114,114,114,,,,,1306.2431749139942,None,1.0,2.229491017998953,1306.2431749139942,None,1306.2431749139942,None,1306.2431749139942,None,noahdeetz,001,2022_Jun_23_1319,Semantic-hierachy,2021.1.2,60.176234527180846,
Trial # 266,layer0-5_O12_to_O7.jpg,layer0-5/layer0-5_O12_to_O7.jpg,OO,layer0-5,,,,,0,115,115,115,,,,,1308.7782158659975,None,1.0,3.2825953510036925,1308.7782158659975,None,1308.7782158659975,None,1308.7782158659975,None,noahdeetz,001,2022_Jun_23_1319,Semantic-hierachy,2021.1.2,60.176234527180846,
Trial # 267,layer6-8_T8_to_T9.jpg,layer6-8/layer6-8_T8_to_T9.jpg,TT,layer6-8,,,,,0,116,116,116,,,,,1312.2781342529997,None,4.0,4.442109151001205,1312.2781342529997,None,1312.2781342529997,None,1312.2781342529997,None,noahdeetz,001,2022_Jun_23_1319,Semantic-hierachy,2021.1.2,60.176234527180846,
Trial # 268,layer9-17_O11_to_T10.jpg,layer9-17/layer9-17_O11_to_T10.jpg,OT,layer9-17,,,,,0,117,117,117,,,,,1317.0296671239994,None,2.0,3.8983460200033733,1317.0296671239994,None,1317.0296671239994,None,1317.0296671239994,None,noahdeetz,001,2022_Jun_23_1319,Semantic-hierachy,2021.1.2,60.176234527180846,
Trial # 269,layer0-5_O8_to_T9.jpg,layer0-5/layer0-5_O8_to_T9.jpg,OT,layer0-5,,,,,0,118,118,118,,,,,1321.6477695959984,None,1.0,2.480692901001021,1321.6477695959984,None,1321.6477695959984,None,1321.6477695959984,None,noahdeetz,001,2022_Jun_23_1319,Semantic-hierachy,2021.1.2,60.176234527180846,
Trial # 270,layer9-17_O10_to_O11.jpg,layer9-17/layer9-17_O10_to_O11.jpg,OO,layer9-17,,,,,0,119,119,119,,,,,1324.5817860909956,None,4.0,4.352590763002809,1324.5817860909956,None,1324.5817860909956,None,1324.5817860909956,None,noahdeetz,001,2022_Jun_23_1319,Semantic-hierachy,2021.1.2,60.176234527180846,
Trial # 271,layer0-5_T1_to_T9.jpg,layer0-5/layer0-5_T1_to_T9.jpg,TT,layer0-5,,,,,0,120,120,120,,,,,1329.4673083550006,None,1.0,1.4814099240029464,1329.4673083550006,None,1329.4673083550006,None,1329.4673083550006,None,noahdeetz,001,2022_Jun_23_1319,Semantic-hierachy,2021.1.2,60.176234527180846,
Trial # 272,layer6-8_T11_to_T8.jpg,layer6-8/layer6-8_T11_to_T8.jpg,TT,layer6-8,,,,,0,121,121,121,,,,,1331.7677717709958,None,4.0,3.1759162449961877,1331.7677717709958,None,1331.7677717709958,None,1331.7677717709958,None,noahdeetz,001,2022_Jun_23_1319,Semantic-hierachy,2021.1.2,60.176234527180846,
Trial # 273,layer9-17_O10_to_O12.jpg,layer9-17/layer9-17_O10_to_O12.jpg,OO,layer9-17,,,,,0,122,122,122,,,,,1335.7518833349968,None,4.0,7.3439690219966,1335.7518833349968,None,1335.7518833349968,None,1335.7518833349968,None,noahdeetz,001,2022_Jun_23_1319,Semantic-hierachy,2021.1.2,60.176234527180846,
Trial # 274,layer0-5_T12_to_T6.jpg,layer0-5/layer0-5_T12_to_T6.jpg,TT,layer0-5,,,,,0,123,123,123,,,,,1346.221948775994,None,1.0,2.8832084620007663,1346.221948775994,None,1346.221948775994,None,1346.221948775994,None,noahdeetz,001,2022_Jun_23_1319,Semantic-hierachy,2021.1.2,60.176234527180846,
Trial # 275,layer9-17_O11_to_O5.jpg,layer9-17/layer9-17_O11_to_O5.jpg,OO,layer9-17,,,,,0,124,124,124,,,,,1349.3406124119938,None,4.0,7.083037759002764,1349.3406124119938,None,1349.3406124119938,None,1349.3406124119938,None,noahdeetz,001,2022_Jun_23_1319,Semantic-hierachy,2021.1.2,60.176234527180846,
Trial # 276,layer9-17_O1_to_O4.jpg,layer9-17/layer9-17_O1_to_O4.jpg,OO,layer9-17,,,,,0,125,125,125,,,,,1356.7590099949957,None,4.0,5.160602344003564,1356.7590099949957,None,1356.7590099949957,None,1356.7590099949957,None,noahdeetz,001,2022_Jun_23_1319,Semantic-hierachy,2021.1.2,60.176234527180846,
Trial # 277,layer6-8_O11_to_O3.jpg,layer6-8/layer6-8_O11_to_O3.jpg,OO,layer6-8,,,,,0,126,126,126,,,,,1362.4261494149978,None,3.0,4.600799695006572,1362.4261494149978,None,1362.4261494149978,None,1362.4261494149978,None,noahdeetz,001,2022_Jun_23_1319,Semantic-hierachy,2021.1.2,60.176234527180846,
Trial # 278,layer6-8_T10_to_T11.jpg,layer6-8/layer6-8_T10_to_T11.jpg,TT,layer6-8,,,,,0,127,127,127,,,,,1367.244862597996,None,3.0,2.8330512199972873,1367.244862597996,None,1367.244862597996,None,1367.244862597996,None,noahdeetz,001,2022_Jun_23_1319,Semantic-hierachy,2021.1.2,60.176234527180846,
Trial # 279,layer0-5_O7_to_T3.jpg,layer0-5/layer0-5_O7_to_T3.jpg,OT,layer0-5,,,,,0,128,128,128,,,,,1370.4966978899974,None,1.0,1.4660989500043797,1370.4966978899974,None,1370.4966978899974,None,1370.4966978899974,None,noahdeetz,001,2022_Jun_23_1319,Semantic-hierachy,2021.1.2,60.176234527180846,
Trial # 280,layer9-17_T1_to_T10.jpg,layer9-17/layer9-17_T1_to_T10.jpg,TT,layer9-17,,,,,0,129,129,129,,,,,1372.7144189249957,None,2.0,2.143562187993666,1372.7144189249957,None,1372.7144189249957,None,1372.7144189249957,None,noahdeetz,001,2022_Jun_23_1319,Semantic-hierachy,2021.1.2,60.176234527180846,
Trial # 281,layer9-17_O6_to_T7.jpg,layer9-17/layer9-17_O6_to_T7.jpg,OT,layer9-17,,,,,0,130,130,130,,,,,1377.2313509319938,None,2.0,1.5194442080028239,1377.2313509319938,None,1377.2313509319938,None,1377.2313509319938,None,noahdeetz,001,2022_Jun_23_1319,Semantic-hierachy,2021.1.2,60.176234527180846,
Trial # 282,layer0-5_O10_to_O7.jpg,layer0-5/layer0-5_O10_to_O7.jpg,OO,layer0-5,,,,,0,131,131,131,,,,,1378.933080996998,None,1.0,1.449846380004601,1378.933080996998,None,1378.933080996998,None,1378.933080996998,None,noahdeetz,001,2022_Jun_23_1319,Semantic-hierachy,2021.1.2,60.176234527180846,
Trial # 283,layer0-5_O1_to_O11.jpg,layer0-5/layer0-5_O1_to_O11.jpg,OO,layer0-5,,,,,0,132,132,132,,,,,1382.4830169419947,None,1.0,1.4627408189990092,1382.4830169419947,None,1382.4830169419947,None,1382.4830169419947,None,noahdeetz,001,2022_Jun_23_1319,Semantic-hierachy,2021.1.2,60.176234527180846,
Trial # 284,layer6-8_O7_to_O8.jpg,layer6-8/layer6-8_O7_to_O8.jpg,OO,layer6-8,,,,,0,133,133,133,,,,,1384.1513819589964,None,2.0,2.1404212010020274,1384.1513819589964,None,1384.1513819589964,None,1384.1513819589964,None,noahdeetz,001,2022_Jun_23_1319,Semantic-hierachy,2021.1.2,60.176234527180846,
Trial # 285,layer0-5_T7_to_T8.jpg,layer0-5/layer0-5_T7_to_T8.jpg,TT,layer0-5,,,,,0,134,134,134,,,,,1386.4342092849984,None,1.0,2.2496291319985176,1386.4342092849984,None,1386.4342092849984,None,1386.4342092849984,None,noahdeetz,001,2022_Jun_23_1319,Semantic-hierachy,2021.1.2,60.176234527180846,
Trial # 286,layer9-17_T11_to_T6.jpg,layer9-17/layer9-17_T11_to_T6.jpg,TT,layer9-17,,,,,0,135,135,135,,,,,1389.4354911150003,None,4.0,3.697298162995139,1389.4354911150003,None,1389.4354911150003,None,1389.4354911150003,None,noahdeetz,001,2022_Jun_23_1319,Semantic-hierachy,2021.1.2,60.176234527180846,
Trial # 287,layer0-5_T2_to_T7.jpg,layer0-5/layer0-5_T2_to_T7.jpg,TT,layer0-5,,,,,0,136,136,136,,,,,1394.520448408999,None,1.0,1.898360295999737,1394.520448408999,None,1394.520448408999,None,1394.520448408999,None,noahdeetz,001,2022_Jun_23_1319,Semantic-hierachy,2021.1.2,60.176234527180846,
Trial # 288,layer9-17_O10_to_O2.jpg,layer9-17/layer9-17_O10_to_O2.jpg,OO,layer9-17,,,,,0,137,137,137,,,,,1396.8208997929978,None,2.0,1.5795925060010632,1396.8208997929978,None,1396.8208997929978,None,1396.8208997929978,None,noahdeetz,001,2022_Jun_23_1319,Semantic-hierachy,2021.1.2,60.176234527180846,
Trial # 289,layer0-5_T10_to_T9.jpg,layer0-5/layer0-5_T10_to_T9.jpg,TT,layer0-5,,,,,0,138,138,138,,,,,1398.9060687279998,None,1.0,2.8348354720001225,1398.9060687279998,None,1398.9060687279998,None,1398.9060687279998,None,noahdeetz,001,2022_Jun_23_1319,Semantic-hierachy,2021.1.2,60.176234527180846,
Trial # 290,layer6-8_O11_to_O5.jpg,layer6-8/layer6-8_O11_to_O5.jpg,OO,layer6-8,,,,,0,139,139,139,,,,,1402.2393080679976,None,2.0,2.1506335720041534,1402.2393080679976,None,1402.2393080679976,None,1402.2393080679976,None,noahdeetz,001,2022_Jun_23_1319,Semantic-hierachy,2021.1.2,60.176234527180846,
Trial # 291,layer6-8_O3_to_O7.jpg,layer6-8/layer6-8_O3_to_O7.jpg,OO,layer6-8,,,,,0,140,140,140,,,,,1406.407271856995,None,3.0,2.0283225680032047,1406.407271856995,None,1406.407271856995,None,1406.407271856995,None,noahdeetz,001,2022_Jun_23_1319,Semantic-hierachy,2021.1.2,60.176234527180846,
Trial # 292,layer9-17_O12_to_T11.jpg,layer9-17/layer9-17_O12_to_T11.jpg,OT,layer9-17,,,,,0,141,141,141,,,,,1411.758847469995,None,2.0,5.09039786500216,1411.758847469995,None,1411.758847469995,None,1411.758847469995,None,noahdeetz,001,2022_Jun_23_1319,Semantic-hierachy,2021.1.2,60.176234527180846,
Trial # 293,layer9-17_O2_to_O4.jpg,layer9-17/layer9-17_O2_to_O4.jpg,OO,layer9-17,,,,,0,142,142,142,,,,,1420.128334559995,None,4.0,4.3954458349981,1420.128334559995,None,1420.128334559995,None,1420.128334559995,None,noahdeetz,001,2022_Jun_23_1319,Semantic-hierachy,2021.1.2,60.176234527180846,
Trial # 294,layer6-8_O1_to_T12.jpg,layer6-8/layer6-8_O1_to_T12.jpg,OT,layer6-8,,,,,0,143,143,143,,,,,1424.7298751479975,None,3.0,2.147970666002948,1424.7298751479975,None,1424.7298751479975,None,1424.7298751479975,None,noahdeetz,001,2022_Jun_23_1319,Semantic-hierachy,2021.1.2,60.176234527180846,
Trial # 295,layer9-17_O11_to_T5.jpg,layer9-17/layer9-17_O11_to_T5.jpg,OT,layer9-17,,,,,0,144,144,144,,,,,1427.3299340789963,None,4.0,2.3487682869963464,1427.3299340789963,None,1427.3299340789963,None,1427.3299340789963,None,noahdeetz,001,2022_Jun_23_1319,Semantic-hierachy,2021.1.2,60.176234527180846,
Trial # 296,layer0-5_O10_to_O9.jpg,layer0-5/layer0-5_O10_to_O9.jpg,OO,layer0-5,,,,,0,145,145,145,,,,,1429.8309458969961,None,1.0,1.783513087000756,1429.8309458969961,None,1429.8309458969961,None,1429.8309458969961,None,noahdeetz,001,2022_Jun_23_1319,Semantic-hierachy,2021.1.2,60.176234527180846,
Trial # 297,layer6-8_O12_to_T10.jpg,layer6-8/layer6-8_O12_to_T10.jpg,OT,layer6-8,,,,,0,146,146,146,,,,,1431.8482787579997,None,4.0,7.784287520000362,1431.8482787579997,None,1431.8482787579997,None,1431.8482787579997,None,noahdeetz,001,2022_Jun_23_1319,Semantic-hierachy,2021.1.2,60.176234527180846,
Trial # 298,layer6-8_O3_to_T2.jpg,layer6-8/layer6-8_O3_to_T2.jpg,OT,layer6-8,,,,,0,147,147,147,,,,,1439.934916182996,None,2.0,2.0840651059988886,1439.934916182996,None,1439.934916182996,None,1439.934916182996,None,noahdeetz,001,2022_Jun_23_1319,Semantic-hierachy,2021.1.2,60.176234527180846,
Trial # 299,layer9-17_O2_to_T5.jpg,layer9-17/layer9-17_O2_to_T5.jpg,OT,layer9-17,,,,,0,148,148,148,,,,,1443.1864739869998,None,4.0,2.27932482399774,1443.1864739869998,None,1443.1864739869998,None,1443.1864739869998,None,noahdeetz,001,2022_Jun_23_1319,Semantic-hierachy,2021.1.2,60.176234527180846,
Trial # 300,layer0-5_O3_to_T7.jpg,layer0-5/layer0-5_O3_to_T7.jpg,OT,layer0-5,,,,,0,149,149,149,,,,,1445.8194034889966,None,1.0,1.276948643004289,1445.8194034889966,None,1445.8194034889966,None,1445.8194034889966,None,noahdeetz,001,2022_Jun_23_1319,Semantic-hierachy,2021.1.2,60.176234527180846,
Trial # 301,layer9-17_O11_to_O6.jpg,layer9-17/layer9-17_O11_to_O6.jpg,OO,layer9-17,,,,,,,,,0,0,0,0,1449.720609306998,None,4.0,9.514145460998407,1449.720609306998,None,1449.720609306998,None,1449.720609306998,None,noahdeetz,001,2022_Jun_23_1319,Semantic-hierachy,2021.1.2,60.176234527180846,
Trial # 302,layer0-5_O3_to_O7.jpg,layer0-5/layer0-5_O3_to_O7.jpg,OO,layer0-5,,,,,,,,,0,1,1,1,1459.8079263289983,None,1.0,1.709666331000335,1459.8079263289983,None,1459.8079263289983,None,1459.8079263289983,None,noahdeetz,001,2022_Jun_23_1319,Semantic-hierachy,2021.1.2,60.176234527180846,
Trial # 303,layer6-8_O11_to_T3.jpg,layer6-8/layer6-8_O11_to_T3.jpg,OT,layer6-8,,,,,,,,,0,2,2,2,1461.6741483299993,None,3.0,3.128878290001012,1461.6741483299993,None,1461.6741483299993,None,1461.6741483299993,None,noahdeetz,001,2022_Jun_23_1319,Semantic-hierachy,2021.1.2,60.176234527180846,
Trial # 304,layer6-8_O2_to_T7.jpg,layer6-8/layer6-8_O2_to_T7.jpg,OT,layer6-8,,,,,,,,,0,3,3,3,1465.008475867995,None,3.0,2.0836941009984002,1465.008475867995,None,1465.008475867995,None,1465.008475867995,None,noahdeetz,001,2022_Jun_23_1319,Semantic-hierachy,2021.1.2,60.176234527180846,
Trial # 305,layer0-5_T1_to_T7.jpg,layer0-5/layer0-5_T1_to_T7.jpg,TT,layer0-5,,,,,,,,,0,4,4,4,1467.359051307998,None,1.0,1.6971496679980191,1467.359051307998,None,1467.359051307998,None,1467.359051307998,None,noahdeetz,001,2022_Jun_23_1319,Semantic-hierachy,2021.1.2,60.176234527180846,
Trial # 306,layer6-8_O7_to_T11.jpg,layer6-8/layer6-8_O7_to_T11.jpg,OT,layer6-8,,,,,,,,,0,5,5,5,1469.2608358699945,None,1.0,1.2074021200023708,1469.2608358699945,None,1469.2608358699945,None,1469.2608358699945,None,noahdeetz,001,2022_Jun_23_1319,Semantic-hierachy,2021.1.2,60.176234527180846,
Trial # 307,layer9-17_O5_to_T5.jpg,layer9-17/layer9-17_O5_to_T5.jpg,OT,layer9-17,,,,,,,,,0,6,6,6,1470.6270945549986,None,2.0,1.910644861003675,1470.6270945549986,None,1470.6270945549986,None,1470.6270945549986,None,noahdeetz,001,2022_Jun_23_1319,Semantic-hierachy,2021.1.2,60.176234527180846,
Trial # 308,layer9-17_T12_to_T5.jpg,layer9-17/layer9-17_T12_to_T5.jpg,TT,layer9-17,,,,,,,,,0,7,7,7,1472.9778517239974,None,2.0,1.7014343549963087,1472.9778517239974,None,1472.9778517239974,None,1472.9778517239974,None,noahdeetz,001,2022_Jun_23_1319,Semantic-hierachy,2021.1.2,60.176234527180846,
Trial # 309,layer6-8_O11_to_O2.jpg,layer6-8/layer6-8_O11_to_O2.jpg,OO,layer6-8,,,,,,,,,0,8,8,8,1474.8615749460005,None,2.0,3.1303816589934286,1474.8615749460005,None,1474.8615749460005,None,1474.8615749460005,None,noahdeetz,001,2022_Jun_23_1319,Semantic-hierachy,2021.1.2,60.176234527180846,
Trial # 310,layer6-8_O10_to_O7.jpg,layer6-8/layer6-8_O10_to_O7.jpg,OO,layer6-8,,,,,,,,,0,9,9,9,1478.3139828939966,None,2.0,4.952503799999249,1478.3139828939966,None,1478.3139828939966,None,1478.3139828939966,None,noahdeetz,001,2022_Jun_23_1319,Semantic-hierachy,2021.1.2,60.176234527180846,
Trial # 311,layer9-17_O10_to_T11.jpg,layer9-17/layer9-17_O10_to_T11.jpg,OT,layer9-17,,,,,,,,,0,10,10,10,1483.4487913659977,None,4.0,1.5897354219996487,1483.4487913659977,None,1483.4487913659977,None,1483.4487913659977,None,noahdeetz,001,2022_Jun_23_1319,Semantic-hierachy,2021.1.2,60.176234527180846,
Trial # 312,layer6-8_O11_to_O12.jpg,layer6-8/layer6-8_O11_to_O12.jpg,OO,layer6-8,,,,,,,,,0,11,11,11,1485.1980035169981,None,4.0,6.01868796099734,1485.1980035169981,None,1485.1980035169981,None,1485.1980035169981,None,noahdeetz,001,2022_Jun_23_1319,Semantic-hierachy,2021.1.2,60.176234527180846,
Trial # 313,layer9-17_O9_to_T8.jpg,layer9-17/layer9-17_O9_to_T8.jpg,OT,layer9-17,,,,,,,,,0,12,12,12,1491.6667171309964,None,4.0,1.9090822709986242,1491.6667171309964,None,1491.6667171309964,None,1491.6667171309964,None,noahdeetz,001,2022_Jun_23_1319,Semantic-hierachy,2021.1.2,60.176234527180846,
Trial # 314,layer0-5_O3_to_T2.jpg,layer0-5/layer0-5_O3_to_T2.jpg,OT,layer0-5,,,,,,,,,0,13,13,13,1493.9352730609971,None,1.0,1.6442537320035626,1493.9352730609971,None,1493.9352730609971,None,1493.9352730609971,None,noahdeetz,001,2022_Jun_23_1319,Semantic-hierachy,2021.1.2,60.176234527180846,
Trial # 315,layer9-17_T1_to_T11.jpg,layer9-17/layer9-17_T1_to_T11.jpg,TT,layer9-17,,,,,,,,,0,14,14,14,1495.7348334919952,None,2.0,1.6659964909995324,1495.7348334919952,None,1495.7348334919952,None,1495.7348334919952,None,noahdeetz,001,2022_Jun_23_1319,Semantic-hierachy,2021.1.2,60.176234527180846,
Trial # 316,layer6-8_T10_to_T7.jpg,layer6-8/layer6-8_T10_to_T7.jpg,TT,layer6-8,,,,,,,,,0,15,15,15,1497.5686794259964,None,4.0,3.1156266670004698,1497.5686794259964,None,1497.5686794259964,None,1497.5686794259964,None,noahdeetz,001,2022_Jun_23_1319,Semantic-hierachy,2021.1.2,60.176234527180846,
Trial # 317,layer0-5_T6_to_T7.jpg,layer0-5/layer0-5_T6_to_T7.jpg,TT,layer0-5,,,,,,,,,0,16,16,16,1502.0032602889987,None,1.0,1.817421915999148,1502.0032602889987,None,1502.0032602889987,None,1502.0032602889987,None,noahdeetz,001,2022_Jun_23_1319,Semantic-hierachy,2021.1.2,60.176234527180846,
Trial # 318,layer9-17_O1_to_T3.jpg,layer9-17/layer9-17_O1_to_T3.jpg,OT,layer9-17,,,,,,,,,0,17,17,17,1504.0542449579953,None,2.0,2.308012791996589,1504.0542449579953,None,1504.0542449579953,None,1504.0542449579953,None,noahdeetz,001,2022_Jun_23_1319,Semantic-hierachy,2021.1.2,60.176234527180846,
Trial # 319,layer0-5_O2_to_T5.jpg,layer0-5/layer0-5_O2_to_T5.jpg,OT,layer0-5,,,,,,,,,0,18,18,18,1506.5557251859937,None,1.0,1.4687048889973084,1506.5557251859937,None,1506.5557251859937,None,1506.5557251859937,None,noahdeetz,001,2022_Jun_23_1319,Semantic-hierachy,2021.1.2,60.176234527180846,
Trial # 320,layer6-8_O7_to_T10.jpg,layer6-8/layer6-8_O7_to_T10.jpg,OT,layer6-8,,,,,,,,,0,19,19,19,1508.1727111750006,None,3.0,2.345141085002979,1508.1727111750006,None,1508.1727111750006,None,1508.1727111750006,None,noahdeetz,001,2022_Jun_23_1319,Semantic-hierachy,2021.1.2,60.176234527180846,
Trial # 321,layer0-5_O5_to_O6.jpg,layer0-5/layer0-5_O5_to_O6.jpg,OO,layer0-5,,,,,,,,,0,20,20,20,1510.7226237669965,None,1.0,1.6134709820034914,1510.7226237669965,None,1510.7226237669965,None,1510.7226237669965,None,noahdeetz,001,2022_Jun_23_1319,Semantic-hierachy,2021.1.2,60.176234527180846,
Trial # 322,layer9-17_O5_to_T4.jpg,layer9-17/layer9-17_O5_to_T4.jpg,OT,layer9-17,,,,,,,,,0,21,21,21,1513.1746415149973,None,2.0,2.1760008319979534,1513.1746415149973,None,1513.1746415149973,None,1513.1746415149973,None,noahdeetz,001,2022_Jun_23_1319,Semantic-hierachy,2021.1.2,60.176234527180846,
Trial # 323,layer0-5_T12_to_T2.jpg,layer0-5/layer0-5_T12_to_T2.jpg,TT,layer0-5,,,,,,,,,0,22,22,22,1515.691438377995,None,4.0,1.666788082999119,1515.691438377995,None,1515.691438377995,None,1515.691438377995,None,noahdeetz,001,2022_Jun_23_1319,Semantic-hierachy,2021.1.2,60.176234527180846,
Trial # 324,layer0-5_O2_to_O4.jpg,layer0-5/layer0-5_O2_to_O4.jpg,OO,layer0-5,,,,,,,,,0,23,23,23,1517.7095465849998,None,1.0,2.1442755309981294,1517.7095465849998,None,1517.7095465849998,None,1517.7095465849998,None,noahdeetz,001,2022_Jun_23_1319,Semantic-hierachy,2021.1.2,60.176234527180846,
Trial # 325,layer6-8_O1_to_O9.jpg,layer6-8/layer6-8_O1_to_O9.jpg,OO,layer6-8,,,,,,,,,0,24,24,24,1520.0255176339997,None,4.0,3.5506275160005316,1520.0255176339997,None,1520.0255176339997,None,1520.0255176339997,None,noahdeetz,001,2022_Jun_23_1319,Semantic-hierachy,2021.1.2,60.176234527180846,
Trial # 326,layer0-5_T3_to_T5.jpg,layer0-5/layer0-5_T3_to_T5.jpg,TT,layer0-5,,,,,,,,,0,25,25,25,1524.0940275879984,None,1.0,1.7301066479994915,1524.0940275879984,None,1524.0940275879984,None,1524.0940275879984,None,noahdeetz,001,2022_Jun_23_1319,Semantic-hierachy,2021.1.2,60.176234527180846,
Trial # 327,layer6-8_O8_to_T12.jpg,layer6-8/layer6-8_O8_to_T12.jpg,OT,layer6-8,,,,,,,,,0,26,26,26,1525.9940213999944,None,3.0,2.1167140019970248,1525.9940213999944,None,1525.9940213999944,None,1525.9940213999944,None,noahdeetz,001,2022_Jun_23_1319,Semantic-hierachy,2021.1.2,60.176234527180846,
Trial # 328,layer9-17_T11_to_T4.jpg,layer9-17/layer9-17_T11_to_T4.jpg,TT,layer9-17,,,,,,,,,0,27,27,27,1528.7126571269982,None,2.0,2.066746308999427,1528.7126571269982,None,1528.7126571269982,None,1528.7126571269982,None,noahdeetz,001,2022_Jun_23_1319,Semantic-hierachy,2021.1.2,60.176234527180846,
Trial # 329,layer9-17_O6_to_T2.jpg,layer9-17/layer9-17_O6_to_T2.jpg,OT,layer9-17,,,,,,,,,0,28,28,28,1530.9288445999991,None,2.0,2.696100060995377,1530.9288445999991,None,1530.9288445999991,None,1530.9288445999991,None,noahdeetz,001,2022_Jun_23_1319,Semantic-hierachy,2021.1.2,60.176234527180846,
Trial # 330,layer9-17_T10_to_T9.jpg,layer9-17/layer9-17_T10_to_T9.jpg,TT,layer9-17,,,,,,,,,0,29,29,29,1533.7811702939944,None,2.0,1.9433794479991775,1533.7811702939944,None,1533.7811702939944,None,1533.7811702939944,None,noahdeetz,001,2022_Jun_23_1319,Semantic-hierachy,2021.1.2,60.176234527180846,
Trial # 331,layer0-5_O2_to_O3.jpg,layer0-5/layer0-5_O2_to_O3.jpg,OO,layer0-5,,,,,,,,,0,30,30,30,1536.0306637959948,None,1.0,1.811053097997501,1536.0306637959948,None,1536.0306637959948,None,1536.0306637959948,None,noahdeetz,001,2022_Jun_23_1319,Semantic-hierachy,2021.1.2,60.176234527180846,
Trial # 332,layer6-8_O1_to_O12.jpg,layer6-8/layer6-8_O1_to_O12.jpg,OO,layer6-8,,,,,,,,,0,31,31,31,1538.0979703729972,None,3.0,6.0676007400033996,1538.0979703729972,None,1538.0979703729972,None,1538.0979703729972,None,noahdeetz,001,2022_Jun_23_1319,Semantic-hierachy,2021.1.2,60.176234527180846,
Trial # 333,layer0-5_O5_to_T12.jpg,layer0-5/layer0-5_O5_to_T12.jpg,OT,layer0-5,,,,,,,,,0,32,32,32,1544.3341389249981,None,1.0,2.0960879790000035,1544.3341389249981,None,1544.3341389249981,None,1544.3341389249981,None,noahdeetz,001,2022_Jun_23_1319,Semantic-hierachy,2021.1.2,60.176234527180846,
Trial # 334,layer9-17_O11_to_T6.jpg,layer9-17/layer9-17_O11_to_T6.jpg,OT,layer9-17,,,,,,,,,0,33,33,33,1546.6671967779985,None,4.0,2.2645773789990926,1546.6671967779985,None,1546.6671967779985,None,1546.6671967779985,None,noahdeetz,001,2022_Jun_23_1319,Semantic-hierachy,2021.1.2,60.176234527180846,
Trial # 335,layer0-5_O4_to_T1.jpg,layer0-5/layer0-5_O4_to_T1.jpg,OT,layer0-5,,,,,,,,,0,34,34,34,1549.118988450995,None,1.0,3.163720423995983,1549.118988450995,None,1549.118988450995,None,1549.118988450995,None,noahdeetz,001,2022_Jun_23_1319,Semantic-hierachy,2021.1.2,60.176234527180846,
Trial # 336,layer6-8_T1_to_T6.jpg,layer6-8/layer6-8_T1_to_T6.jpg,TT,layer6-8,,,,,,,,,0,35,35,35,1552.4859023069948,None,4.0,1.7822020389940008,1552.4859023069948,None,1552.4859023069948,None,1552.4859023069948,None,noahdeetz,001,2022_Jun_23_1319,Semantic-hierachy,2021.1.2,60.176234527180846,
Trial # 337,layer0-5_O12_to_O6.jpg,layer0-5/layer0-5_O12_to_O6.jpg,OO,layer0-5,,,,,,,,,0,36,36,36,1554.5198225959975,None,1.0,1.5556329070022912,1554.5198225959975,None,1554.5198225959975,None,1554.5198225959975,None,noahdeetz,001,2022_Jun_23_1319,Semantic-hierachy,2021.1.2,60.176234527180846,
Trial # 338,layer0-5_O1_to_O10.jpg,layer0-5/layer0-5_O1_to_O10.jpg,OO,layer0-5,,,,,,,,,0,37,37,37,1556.2701529549959,None,1.0,1.9596297739990405,1556.2701529549959,None,1556.2701529549959,None,1556.2701529549959,None,noahdeetz,001,2022_Jun_23_1319,Semantic-hierachy,2021.1.2,60.176234527180846,
Trial # 339,layer0-5_O9_to_T9.jpg,layer0-5/layer0-5_O9_to_T9.jpg,OT,layer0-5,,,,,,,,,0,38,38,38,1558.5555045369983,None,1.0,2.8237360380007885,1558.5555045369983,None,1558.5555045369983,None,1558.5555045369983,None,noahdeetz,001,2022_Jun_23_1319,Semantic-hierachy,2021.1.2,60.176234527180846,
Trial # 340,layer6-8_O6_to_T10.jpg,layer6-8/layer6-8_O6_to_T10.jpg,OT,layer6-8,,,,,,,,,0,39,39,39,1561.5716934019947,None,3.0,3.846711824000522,1561.5716934019947,None,1561.5716934019947,None,1561.5716934019947,None,noahdeetz,001,2022_Jun_23_1319,Semantic-hierachy,2021.1.2,60.176234527180846,
