Trial_num,image_path,ground_truth,image_name,demos.thisRepN,demos.thisTrialN,demos.thisN,demos.thisIndex,block_1.thisRepN,block_1.thisTrialN,block_1.thisN,block_1.thisIndex,block_2.thisRepN,block_2.thisTrialN,block_2.thisN,block_2.thisIndex,text_3.started,text_3.stopped,Task.started,Task.stopped,text_10.started,text_10.stopped,key_resp.keys,key_resp.rt,key_resp.started,key_resp.stopped,image_2.started,image_2.stopped,text_5.started,text_5.stopped,image_3.started,image_3.stopped,text_6.started,text_6.stopped,translucency.started,translucency.stopped,see_throughness.started,see_throughness.stopped,glow.started,glow.stopped,key_resp_10.keys,key_resp_10.rt,key_resp_10.started,key_resp_10.stopped,instruction.started,instruction.stopped,text_12.started,text_12.stopped,Trial_number.started,Trial_number.stopped,image.started,image.stopped,Instruction.started,Instruction.stopped,translucency_score.response,translucency_score.rt,translucency_score.started,translucency_score.stopped,Translucency.started,Translucency.stopped,seethroughness_score.response,seethroughness_score.rt,seethroughness_score.started,seethroughness_score.stopped,SeeThroughness.started,SeeThroughness.stopped,glow_score.response,glow_score.rt,glow_score.started,glow_score.stopped,Glow.started,Glow.stopped,to_next.keys,to_next.rt,to_next.started,to_next.stopped,grading_label_left.started,grading_label_left.stopped,grading_label_right.started,grading_label_right.stopped,instruct1.started,instruct1.stopped,instruct2.started,instruct2.stopped,text_4.started,text_4.stopped,text_2.started,text_2.stopped,participant,session,date,expName,psychopyVersion,frameRate,,,,,,,,,,,,,,,,48.77505218,None,63.2056754,None,63.9890318,None,space,1.751446337,68.95716735,None,,,,,,,,,,,,,,,,,,,,,,,,,,,,,,,,,,,,,,,,,,,,,,,,,,,,,,,,,,,,,,,Jack Whitcomb-2nd,1,2022_Apr_07_1050,SAR-soap,2021.1.2,60.1561336,,,,,,,,,,,,,,,,,,,,,,,,,,71.20849685,None,71.20849685,None,72.8918482,None,72.8918482,None,76.12758415,None,76.12758415,None,76.12758415,None,space,0.98105225,76.12758415,None,,,,,,,,,,,,,,,,,,,,,,,,,,,,,,,,,,,,,,,,,,,,,Jack Whitcomb-2nd,1,2022_Apr_07_1050,SAR-soap,2021.1.2,60.1561336Demo 1,demo/Demo_IMG_0974.jpg,demo,Demo_IMG_0974.jpg,0,0,0,0,,,,,,,,,,,,,,,,,,,,,,,,,,,,,,,,,,,,,76.12758415,None,77.1276778,None,78.71051075,None,78.71051075,None,78.71051075,None,4,46.54495578,78.71051075,None,78.71051075,None,3,47.50245182,124.7914336,None,78.71051075,None,3,48.17451514,125.758671,None,78.71051075,None,space,0.907942297,48.20204263,None,78.71051075,None,78.71051075,None,,,,,,,,,Jack Whitcomb-2nd,1,2022_Apr_07_1050,SAR-soap,2021.1.2,60.1561336Demo 2,demo/Demo_IMG_1024.jpg,demo,Demo_IMG_1024.jpg,0,1,1,1,,,,,,,,,,,,,,,,,,,,,,,,,,,,,,,,,,,,,,,,,127.9097154,None,127.9097154,None,127.9097154,None,1,1.320490646,127.9097154,None,127.9097154,None,1,1.810096748,128.793116,None,127.9097154,None,1,2.614887004,129.2932532,None,127.9097154,None,space,0.143387006,2.65112349,None,127.9097154,None,127.9097154,None,,,,,,,,,Jack Whitcomb-2nd,1,2022_Apr_07_1050,SAR-soap,2021.1.2,60.1561336Demo 3,demo/Demo_seed_80003.png,demo,Demo_seed_80003.png,0,2,2,2,,,,,,,,,,,,,,,,,,,,,,,,,,,,,,,,,,,,,,,,,130.811223,None,130.811223,None,130.811223,None,4,1.000821357,130.811223,None,130.811223,None,3,1.456494813,131.3616559,None,130.811223,None,4,1.996857649,131.8281922,None,130.811223,None,space,0.221337788,2.026764285,None,130.811223,None,130.811223,None,,,,,,,,,Jack Whitcomb-2nd,1,2022_Apr_07_1050,SAR-soap,2021.1.2,60.1561336Trial # 1,Group1-stimuli/group1-block1/real-group1-b1/Group1_IMG_0022.jpg,1,Group1_IMG_0022.jpg,,,,,0,0,0,0,,,,,,,,,,,,,,,,,,,,,,,,,,,,,,,,,,,,,146.314828,None,146.314828,None,146.314828,None,2,1.267721181,146.314828,None,146.314828,None,1,1.789935573,147.1322477,None,146.314828,None,2,2.328377961,147.665877,None,146.314828,None,space,0.174963818,2.359324769,None,146.314828,None,146.314828,None,133.0617838,None,133.0617838,None,133.0617838,None,,,Jack Whitcomb-2nd,1,2022_Apr_07_1050,SAR-soap,2021.1.2,60.1561336Trial # 2,Group1-stimuli/group1-block1/fake-group2-b1/encoded_Group2_IMG_0386.jpg,0,encoded_Group2_IMG_0386.jpg,,,,,0,1,1,1,,,,,,,,,,,,,,,,,,,,,,,,,,,,,,,,,,,,,148.9159765,None,148.9159765,None,148.9159765,None,3,0.858524353,148.9159765,None,148.9159765,None,2,1.281300146,149.31604,None,148.9159765,None,2,1.887052834,149.7488575,None,148.9159765,None,space,0.183611893,1.909511625,None,148.9159765,None,148.9159765,None,,,,,,,,,Jack Whitcomb-2nd,1,2022_Apr_07_1050,SAR-soap,2021.1.2,60.1561336Trial # 3,Group1-stimuli/group1-block1/real-group1-b1/Group1_IMG_9704.jpg,1,Group1_IMG_9704.jpg,,,,,0,2,2,2,,,,,,,,,,,,,,,,,,,,,,,,,,,,,,,,,,,,,151.0499603,None,151.0499603,None,151.0499603,None,1,0.72517786,151.0499603,None,151.0499603,None,1,1.215479351,151.3177809,None,151.0499603,None,1,1.820834641,151.8164713,None,151.0499603,None,space,0.084448008,1.84186047,None,151.0499603,None,151.0499603,None,,,,,,,,,Jack Whitcomb-2nd,1,2022_Apr_07_1050,SAR-soap,2021.1.2,60.1561336Trial # 4,Group1-stimuli/group1-block1/real-group1-b1/Group1_IMG_0406.jpg,1,Group1_IMG_0406.jpg,,,,,0,3,3,3,,,,,,,,,,,,,,,,,,,,,,,,,,,,,,,,,,,,,153.0164704,None,153.0164704,None,153.0164704,None,2,1.030534068,153.0164704,None,153.0164704,None,1,1.55266301,153.6006991,None,153.0164704,None,2,2.257838072,154.1344203,None,153.0164704,None,space,0.147931119,2.286294106,None,153.0164704,None,153.0164704,None,,,,,,,,,Jack Whitcomb-2nd,1,2022_Apr_07_1050,SAR-soap,2021.1.2,60.1561336Trial # 5,Group1-stimuli/group1-block1/fake-group2-b1/encoded_Group2_IMG_0364.jpg,0,encoded_Group2_IMG_0364.jpg,,,,,0,4,4,4,,,,,,,,,,,,,,,,,,,,,,,,,,,,,,,,,,,,,155.5018265,None,155.5018265,None,155.5018265,None,1,0.645053581,155.5018265,None,155.5018265,None,1,1.068462902,155.6852596,None,155.5018265,None,1,1.474216242,156.1190498,None,155.5018265,None,space,0.17551448,1.499093856,None,155.5018265,None,155.5018265,None,,,,,,,,,Jack Whitcomb-2nd,1,2022_Apr_07_1050,SAR-soap,2021.1.2,60.1561336Trial # 6,Group1-stimuli/group1-block1/fake-group2-b1/encoded_Group2_IMG_0407.jpg,0,encoded_Group2_IMG_0407.jpg,,,,,0,5,5,5,,,,,,,,,,,,,,,,,,,,,,,,,,,,,,,,,,,,,157.2347627,None,157.2347627,None,157.2347627,None,2,0.659367864,157.2347627,None,157.2347627,None,1,1.148865827,157.4348434,None,157.2347627,None,2,1.489075258,157.9349199,None,157.2347627,None,space,0.256805089,1.512022742,None,157.2347627,None,157.2347627,None,,,,,,,,,Jack Whitcomb-2nd,1,2022_Apr_07_1050,SAR-soap,2021.1.2,60.1561336Trial # 7,Group1-stimuli/group1-block1/real-group1-b1/Group1_IMG_0428.jpg,1,Group1_IMG_0428.jpg,,,,,0,6,6,6,,,,,,,,,,,,,,,,,,,,,,,,,,,,,,,,,,,,,159.0347377,None,159.0347377,None,159.0347377,None,5,1.549303343,159.0347377,None,159.0347377,None,2,1.971926794,160.1364705,None,159.0347377,None,2,2.644277124,160.570266,None,159.0347377,None,space,0.177698127,2.673492775,None,159.0347377,None,159.0347377,None,,,,,,,,,Jack Whitcomb-2nd,1,2022_Apr_07_1050,SAR-soap,2021.1.2,60.1561336Trial # 8,Group1-stimuli/group1-block1/fake-group2-b1/encoded_Group2_IMG_0474.jpg,0,encoded_Group2_IMG_0474.jpg,,,,,0,7,7,7,,,,,,,,,,,,,,,,,,,,,,,,,,,,,,,,,,,,,161.9365112,None,161.9365112,None,161.9365112,None,1,0.978503761,161.9365112,None,161.9365112,None,1,1.601819872,162.4535844,None,161.9365112,None,1,2.1725281,163.0872531,None,161.9365112,None,space,0.175964759,2.198364265,None,161.9365112,None,161.9365112,None,,,,,,,,,Jack Whitcomb-2nd,1,2022_Apr_07_1050,SAR-soap,2021.1.2,60.1561336Trial # 9,Group1-stimuli/group1-block1/fake-group2-b1/encoded_Group2_IMG_1506.jpg,0,encoded_Group2_IMG_1506.jpg,,,,,0,8,8,8,,,,,,,,,,,,,,,,,,,,,,,,,,,,,,,,,,,,,164.3531761,None,164.3531761,None,164.3531761,None,5,0.80091898,164.3531761,None,164.3531761,None,4,1.358286249,164.7033618,None,164.3531761,None,1,1.895445009,165.2709755,None,164.3531761,None,space,0.600705887,1.928364994,None,164.3531761,None,164.3531761,None,,,,,,,,,Jack Whitcomb-2nd,1,2022_Apr_07_1050,SAR-soap,2021.1.2,60.1561336Trial # 10,Group1-stimuli/group1-block1/real-group1-b1/Group1_IMG_9789.jpg,1,Group1_IMG_9789.jpg,,,,,0,9,9,9,,,,,,,,,,,,,,,,,,,,,,,,,,,,,,,,,,,,,166.9381182,None,166.9381182,None,166.9381182,None,1,0.640577563,166.9381182,None,166.9381182,None,1,1.529727858,167.1218354,None,166.9381182,None,1,1.967990556,168.0219635,None,166.9381182,None,space,0.16659667,1.990174829,None,166.9381182,None,166.9381182,None,,,,,,,,,Jack Whitcomb-2nd,1,2022_Apr_07_1050,SAR-soap,2021.1.2,60.1561336Trial # 11,Group1-stimuli/group1-block1/real-group1-b1/Group1_IMG_9778.jpg,1,Group1_IMG_9778.jpg,,,,,0,10,10,10,,,,,,,,,,,,,,,,,,,,,,,,,,,,,,,,,,,,,169.1547539,None,169.1547539,None,169.1547539,None,3,0.796543339,169.1547539,None,169.1547539,None,3,1.319165095,169.5058081,None,169.1547539,None,1,1.89131415,170.0390344,None,169.1547539,None,space,0.224182285,1.91828572,None,169.1547539,None,169.1547539,None,,,,,,,,,Jack Whitcomb-2nd,1,2022_Apr_07_1050,SAR-soap,2021.1.2,60.1561336Trial # 12,Group1-stimuli/group1-block1/real-group1-b1/Group1_IMG_9813.jpg,1,Group1_IMG_9813.jpg,,,,,0,11,11,11,,,,,,,,,,,,,,,,,,,,,,,,,,,,,,,,,,,,,171.3399847,None,171.3399847,None,171.3399847,None,1,0.761962718,171.3399847,None,171.3399847,None,1,1.286276631,171.6568971,None,171.3399847,None,1,1.857748424,172.1902419,None,171.3399847,None,space,0.408481017,1.885632237,None,171.3399847,None,171.3399847,None,,,,,,,,,Jack Whitcomb-2nd,1,2022_Apr_07_1050,SAR-soap,2021.1.2,60.1561336Trial # 13,Group1-stimuli/group1-block1/real-group1-b1/Group1_IMG_0516.jpg,1,Group1_IMG_0516.jpg,,,,,0,12,12,12,,,,,,,,,,,,,,,,,,,,,,,,,,,,,,,,,,,,,173.706097,None,173.706097,None,173.706097,None,3,0.692768805,173.706097,None,173.706097,None,2,1.181579858,173.9399207,None,173.706097,None,6,1.719395948,174.4404768,None,173.706097,None,space,0.18421028,1.742445423,None,173.706097,None,173.706097,None,,,,,,,,,Jack Whitcomb-2nd,1,2022_Apr_07_1050,SAR-soap,2021.1.2,60.1561336Trial # 14,Group1-stimuli/group1-block1/fake-group2-b1/encoded_Group2_IMG_0038.jpg,0,encoded_Group2_IMG_0038.jpg,,,,,0,13,13,13,,,,,,,,,,,,,,,,,,,,,,,,,,,,,,,,,,,,,175.6738892,None,175.6738892,None,175.6738892,None,3,0.764291586,175.6738892,None,175.6738892,None,2,1.187597153,175.9913253,None,175.6738892,None,2,1.758512374,176.4249817,None,175.6738892,None,space,0.157917367,1.787368037,None,175.6738892,None,175.6738892,None,,,,,,,,,Jack Whitcomb-2nd,1,2022_Apr_07_1050,SAR-soap,2021.1.2,60.1561336Trial # 15,Group1-stimuli/group1-block1/real-group1-b1/Group1_IMG_5984.jpg,1,Group1_IMG_5984.jpg,,,,,0,14,14,14,,,,,,,,,,,,,,,,,,,,,,,,,,,,,,,,,,,,,177.6588036,None,177.6588036,None,177.6588036,None,1,0.709477718,177.6588036,None,177.6588036,None,1,1.630321074,177.9081845,None,177.6588036,None,1,2.069297903,178.8415861,None,177.6588036,None,space,0.186698221,2.093231376,None,177.6588036,None,177.6588036,None,,,,,,,,,Jack Whitcomb-2nd,1,2022_Apr_07_1050,SAR-soap,2021.1.2,60.1561336Trial # 16,Group1-stimuli/group1-block1/real-group1-b1/Group1_IMG_0383.jpg,1,Group1_IMG_0383.jpg,,,,,0,15,15,15,,,,,,,,,,,,,,,,,,,,,,,,,,,,,,,,,,,,,179.9755768,None,179.9755768,None,179.9755768,None,3,0.642760374,179.9755768,None,179.9755768,None,3,1.098708953,180.1592347,None,179.9755768,None,3,1.570992783,180.6259058,None,179.9755768,None,space,0.112355595,1.594345654,None,179.9755768,None,179.9755768,None,,,,,,,,,Jack Whitcomb-2nd,1,2022_Apr_07_1050,SAR-soap,2021.1.2,60.1561336Trial # 17,Group1-stimuli/group1-block1/fake-group2-b1/encoded_Group2_IMG_0456.jpg,0,encoded_Group2_IMG_0456.jpg,,,,,0,16,16,16,,,,,,,,,,,,,,,,,,,,,,,,,,,,,,,,,,,,,181.7261989,None,181.7261989,None,181.7261989,None,3,0.643246099,181.7261989,None,181.7261989,None,2,1.016588552,181.9092935,None,181.7261989,None,2,1.423070859,182.2928783,None,181.7261989,None,space,0.22426774,1.446856454,None,181.7261989,None,181.7261989,None,,,,,,,,,Jack Whitcomb-2nd,1,2022_Apr_07_1050,SAR-soap,2021.1.2,60.1561336Trial # 18,Group1-stimuli/group1-block1/fake-group2-b1/encoded_Group2_IMG_8390.jpg,0,encoded_Group2_IMG_8390.jpg,,,,,0,17,17,17,,,,,,,,,,,,,,,,,,,,,,,,,,,,,,,,,,,,,183.4267239,None,183.4267239,None,183.4267239,None,2,0.598062327,183.4267239,None,183.4267239,None,1,1.054629888,183.5765606,None,183.4267239,None,6,1.560266601,184.0426653,None,183.4267239,None,space,0.206347978,1.590035582,None,183.4267239,None,183.4267239,None,,,,,,,,,Jack Whitcomb-2nd,1,2022_Apr_07_1050,SAR-soap,2021.1.2,60.1561336Trial # 19,Group1-stimuli/group1-block1/real-group1-b1/Group1_IMG_0011.jpg,1,Group1_IMG_0011.jpg,,,,,0,18,18,18,,,,,,,,,,,,,,,,,,,,,,,,,,,,,,,,,,,,,185.2947625,None,185.2947625,None,185.2947625,None,3,1.159563169,185.2947625,None,185.2947625,None,2,1.61605961,185.9953979,None,185.2947625,None,2,2.155754398,186.4607911,None,185.2947625,None,space,0.122546563,2.178966407,None,185.2947625,None,185.2947625,None,,,,,,,,,Jack Whitcomb-2nd,1,2022_Apr_07_1050,SAR-soap,2021.1.2,60.1561336Trial # 20,Group1-stimuli/group1-block1/fake-group2-b1/encoded_Group2_IMG_0328.jpg,0,encoded_Group2_IMG_0328.jpg,,,,,0,19,19,19,,,,,,,,,,,,,,,,,,,,,,,,,,,,,,,,,,,,,187.6275489,None,187.6275489,None,187.6275489,None,1,0.717040858,187.6275489,None,187.6275489,None,1,1.24126514,187.894665,None,187.6275489,None,1,1.71200875,188.4282881,None,187.6275489,None,space,0.143241118,1.743858278,None,187.6275489,None,187.6275489,None,,,,,,,,,Jack Whitcomb-2nd,1,2022_Apr_07_1050,SAR-soap,2021.1.2,60.1561336Trial # 21,Group1-stimuli/group1-block1/fake-group2-b1/encoded_Group2_IMG_0163.jpg,0,encoded_Group2_IMG_0163.jpg,,,,,0,20,20,20,,,,,,,,,,,,,,,,,,,,,,,,,,,,,,,,,,,,,189.5618319,None,189.5618319,None,189.5618319,None,4,1.077579961,189.5618319,None,189.5618319,None,4,1.534532361,190.1788155,None,189.5618319,None,2,2.106244649,190.6464724,None,189.5618319,None,space,0.153272418,2.131785221,None,189.5618319,None,189.5618319,None,,,,,,,,,Jack Whitcomb-2nd,1,2022_Apr_07_1050,SAR-soap,2021.1.2,60.1561336Trial # 22,Group1-stimuli/group1-block1/real-group1-b1/Group1_IMG_9862.jpg,1,Group1_IMG_9862.jpg,,,,,0,21,21,21,,,,,,,,,,,,,,,,,,,,,,,,,,,,,,,,,,,,,191.8790248,None,191.8790248,None,191.8790248,None,1,0.697236283,191.8790248,None,191.8790248,None,1,1.187578609,192.1293302,None,191.8790248,None,1,1.625570779,192.6292772,None,191.8790248,None,space,0.206608092,1.654287151,None,191.8790248,None,191.8790248,None,,,,,,,,,Jack Whitcomb-2nd,1,2022_Apr_07_1050,SAR-soap,2021.1.2,60.1561336Trial # 23,Group1-stimuli/group1-block1/fake-group2-b1/encoded_Group2_IMG_0296.jpg,0,encoded_Group2_IMG_0296.jpg,,,,,0,22,22,22,,,,,,,,,,,,,,,,,,,,,,,,,,,,,,,,,,,,,193.7961865,None,193.7961865,None,193.7961865,None,4,0.711874751,193.7961865,None,193.7961865,None,3,1.233785262,194.0461612,None,193.7961865,None,3,1.638944836,194.5792134,None,193.7961865,None,space,0.169943004,1.664961373,None,193.7961865,None,193.7961865,None,,,,,,,,,Jack Whitcomb-2nd,1,2022_Apr_07_1050,SAR-soap,2021.1.2,60.1561336Trial # 24,Group1-stimuli/group1-block1/fake-group2-b1/encoded_Group2_IMG_0503.jpg,0,encoded_Group2_IMG_0503.jpg,,,,,0,23,23,23,,,,,,,,,,,,,,,,,,,,,,,,,,,,,,,,,,,,,195.6804199,None,195.6804199,None,195.6804199,None,4,0.69707066,195.6804199,None,195.6804199,None,2,1.187436421,195.9317723,None,195.6804199,None,2,1.626911945,196.4310738,None,195.6804199,None,space,0.15784377,1.653694207,None,195.6804199,None,195.6804199,None,,,,,,,,,Jack Whitcomb-2nd,1,2022_Apr_07_1050,SAR-soap,2021.1.2,60.1561336Trial # 25,Group1-stimuli/group1-block1/fake-group2-b1/encoded_Group2_IMG_9804.jpg,0,encoded_Group2_IMG_9804.jpg,,,,,0,24,24,24,,,,,,,,,,,,,,,,,,,,,,,,,,,,,,,,,,,,,197.5313265,None,197.5313265,None,197.5313265,None,1,0.712008992,197.5313265,None,197.5313265,None,1,1.167872592,197.7818803,None,197.5313265,None,1,1.63949849,198.2472923,None,197.5313265,None,space,0.154962667,1.665972502,None,197.5313265,None,197.5313265,None,,,,,,,,,Jack Whitcomb-2nd,1,2022_Apr_07_1050,SAR-soap,2021.1.2,60.1561336Trial # 26,Group1-stimuli/group1-block1/real-group1-b1/Group1_IMG_0391.jpg,1,Group1_IMG_0391.jpg,,,,,0,25,25,25,,,,,,,,,,,,,,,,,,,,,,,,,,,,,,,,,,,,,199.4149201,None,199.4149201,None,199.4149201,None,4,0.699996575,199.4149201,None,199.4149201,None,2,1.191764062,199.664974,None,199.4149201,None,1,1.596143366,200.1651839,None,199.4149201,None,space,0.152515865,1.625414183,None,199.4149201,None,199.4149201,None,,,,,,,,,Jack Whitcomb-2nd,1,2022_Apr_07_1050,SAR-soap,2021.1.2,60.1561336Trial # 27,Group1-stimuli/group1-block1/fake-group2-b1/encoded_Group2_IMG_3584.jpg,0,encoded_Group2_IMG_3584.jpg,,,,,0,26,26,26,,,,,,,,,,,,,,,,,,,,,,,,,,,,,,,,,,,,,201.2325155,None,201.2325155,None,201.2325155,None,3,0.677841009,201.2325155,None,201.2325155,None,1,1.16719791,201.4494867,None,201.2325155,None,2,1.637864449,201.9496866,None,201.2325155,None,space,0.094290345,1.663504547,None,201.2325155,None,201.2325155,None,,,,,,,,,Jack Whitcomb-2nd,1,2022_Apr_07_1050,SAR-soap,2021.1.2,60.1561336Trial # 28,Group1-stimuli/group1-block1/fake-group2-b1/encoded_Group2_IMG_0434.jpg,0,encoded_Group2_IMG_0434.jpg,,,,,0,27,27,27,,,,,,,,,,,,,,,,,,,,,,,,,,,,,,,,,,,,,203.015398,None,203.015398,None,203.015398,None,4,0.654302128,203.015398,None,203.015398,None,3,1.144227516,203.2165356,None,203.015398,None,2,1.68114832,203.7161663,None,203.015398,None,space,0.068037801,1.701370213,None,203.015398,None,203.015398,None,,,,,,,,,Jack Whitcomb-2nd,1,2022_Apr_07_1050,SAR-soap,2021.1.2,60.1561336Trial # 29,Group1-stimuli/group1-block1/fake-group2-b1/encoded_Group2_IMG_9575.jpg,0,encoded_Group2_IMG_9575.jpg,,,,,0,28,28,28,,,,,,,,,,,,,,,,,,,,,,,,,,,,,,,,,,,,,204.8495082,None,204.8495082,None,204.8495082,None,2,0.704334622,204.8495082,None,204.8495082,None,1,1.160194437,205.1010989,None,204.8495082,None,1,1.565938044,205.5667681,None,204.8495082,None,space,0.077977689,1.600252207,None,204.8495082,None,204.8495082,None,,,,,,,,,Jack Whitcomb-2nd,1,2022_Apr_07_1050,SAR-soap,2021.1.2,60.1561336Trial # 30,Group1-stimuli/group1-block1/fake-group2-b1/encoded_Group2_IMG_1025.jpg,0,encoded_Group2_IMG_1025.jpg,,,,,0,29,29,29,,,,,,,,,,,,,,,,,,,,,,,,,,,,,,,,,,,,,206.5672975,None,206.5672975,None,206.5672975,None,1,0.665678363,206.5672975,None,206.5672975,None,1,1.121405119,206.7841788,None,206.5672975,None,1,1.59290165,207.2508322,None,206.5672975,None,space,0.03259816,1.621565175,None,206.5672975,None,206.5672975,None,,,,,,,,,Jack Whitcomb-2nd,1,2022_Apr_07_1050,SAR-soap,2021.1.2,60.1561336Trial # 31,Group1-stimuli/group1-block1/real-group1-b1/Group1_IMG_0502.jpg,1,Group1_IMG_0502.jpg,,,,,0,30,30,30,,,,,,,,,,,,,,,,,,,,,,,,,,,,,,,,,,,,,208.2675525,None,208.2675525,None,208.2675525,None,4,0.792983168,208.2675525,None,208.2675525,None,2,1.216278331,208.6006478,None,208.2675525,None,2,1.655358443,209.0347411,None,208.2675525,None,space,0.082023886,1.680057992,None,208.2675525,None,208.2675525,None,,,,,,,,,Jack Whitcomb-2nd,1,2022_Apr_07_1050,SAR-soap,2021.1.2,60.1561336Trial # 32,Group1-stimuli/group1-block1/real-group1-b1/Group1_IMG_0182.jpg,1,Group1_IMG_0182.jpg,,,,,0,31,31,31,,,,,,,,,,,,,,,,,,,,,,,,,,,,,,,,,,,,,210.0681207,None,210.0681207,None,210.0681207,None,5,0.712658687,210.0681207,None,210.0681207,None,5,1.202469418,210.3352238,None,210.0681207,None,2,1.640289692,210.8358446,None,210.0681207,None,space,0.073347234,1.667526544,None,210.0681207,None,210.0681207,None,,,,,,,,,Jack Whitcomb-2nd,1,2022_Apr_07_1050,SAR-soap,2021.1.2,60.1561336Trial # 33,Group1-stimuli/group1-block1/fake-group2-b1/encoded_Group2_IMG_2728.jpg,0,encoded_Group2_IMG_2728.jpg,,,,,0,32,32,32,,,,,,,,,,,,,,,,,,,,,,,,,,,,,,,,,,,,,211.869001,None,211.869001,None,211.869001,None,1,1.144795384,211.869001,None,211.869001,None,1,1.533629291,212.5524546,None,211.869001,None,1,2.039762624,212.9526276,None,211.869001,None,space,0.065777205,2.064213774,None,211.869001,None,211.869001,None,,,,,,,,,Jack Whitcomb-2nd,1,2022_Apr_07_1050,SAR-soap,2021.1.2,60.1561336Trial # 34,Group1-stimuli/group1-block1/fake-group2-b1/encoded_Group2_IMG_4867.jpg,0,encoded_Group2_IMG_4867.jpg,,,,,0,33,33,33,,,,,,,,,,,,,,,,,,,,,,,,,,,,,,,,,,,,,214.0187052,None,214.0187052,None,214.0187052,None,4,1.027805215,214.0187052,None,214.0187052,None,2,1.668707389,214.5857336,None,214.0187052,None,3,2.106951885,215.2368001,None,214.0187052,None,space,0.143605372,2.133419535,None,214.0187052,None,214.0187052,None,,,,,,,,,Jack Whitcomb-2nd,1,2022_Apr_07_1050,SAR-soap,2021.1.2,60.1561336Trial # 35,Group1-stimuli/group1-block1/real-group1-b1/Group1_IMG_9894.jpg,1,Group1_IMG_9894.jpg,,,,,0,34,34,34,,,,,,,,,,,,,,,,,,,,,,,,,,,,,,,,,,,,,216.3534113,None,216.3534113,None,216.3534113,None,1,0.744188711,216.3534113,None,216.3534113,None,1,1.200582736,216.6368545,None,216.3534113,None,1,1.738919699,217.1033111,None,216.3534113,None,space,0.112709908,1.763964594,None,216.3534113,None,216.3534113,None,,,,,,,,,Jack Whitcomb-2nd,1,2022_Apr_07_1050,SAR-soap,2021.1.2,60.1561336Trial # 36,Group1-stimuli/group1-block1/fake-group2-b1/encoded_Group2_IMG_0444.jpg,0,encoded_Group2_IMG_0444.jpg,,,,,0,35,35,35,,,,,,,,,,,,,,,,,,,,,,,,,,,,,,,,,,,,,218.253975,None,218.253975,None,218.253975,None,3,0.746056568,218.253975,None,218.253975,None,1,1.268335941,218.5541633,None,218.253975,None,1,1.773710115,219.0871614,None,218.253975,None,space,0.090013321,1.80032734,None,218.253975,None,218.253975,None,,,,,,,,,Jack Whitcomb-2nd,1,2022_Apr_07_1050,SAR-soap,2021.1.2,60.1561336Trial # 37,Group1-stimuli/group1-block1/real-group1-b1/Group1_IMG_2656.jpg,1,Group1_IMG_2656.jpg,,,,,0,36,36,36,,,,,,,,,,,,,,,,,,,,,,,,,,,,,,,,,,,,,220.1885204,None,220.1885204,None,220.1885204,None,1,0.727354745,220.1885204,None,220.1885204,None,1,1.249841124,220.4557955,None,220.1885204,None,1,1.756705431,220.9882637,None,220.1885204,None,space,0.093250282,1.778887604,None,220.1885204,None,220.1885204,None,,,,,,,,,Jack Whitcomb-2nd,1,2022_Apr_07_1050,SAR-soap,2021.1.2,60.1561336Trial # 38,Group1-stimuli/group1-block1/real-group1-b1/Group1_IMG_0207.jpg,1,Group1_IMG_0207.jpg,,,,,0,37,37,37,,,,,,,,,,,,,,,,,,,,,,,,,,,,,,,,,,,,,222.0886677,None,222.0886677,None,222.0886677,None,1,0.854119811,222.0886677,None,222.0886677,None,1,1.344315444,222.4888467,None,222.0886677,None,1,1.815214076,222.9889053,None,222.0886677,None,space,0.061954433,1.835041899,None,222.0886677,None,222.0886677,None,,,,,,,,,Jack Whitcomb-2nd,1,2022_Apr_07_1050,SAR-soap,2021.1.2,60.1561336Trial # 39,Group1-stimuli/group1-block1/real-group1-b1/Group1_IMG_9638.jpg,1,Group1_IMG_9638.jpg,,,,,0,38,38,38,,,,,,,,,,,,,,,,,,,,,,,,,,,,,,,,,,,,,224.0227305,None,224.0227305,None,224.0227305,None,3,0.763187037,224.0227305,None,224.0227305,None,2,1.218674628,224.3390689,None,224.0227305,None,4,1.725209467,224.8057368,None,224.0227305,None,space,0.139019478,1.75170229,None,224.0227305,None,224.0227305,None,,,,,,,,,Jack Whitcomb-2nd,1,2022_Apr_07_1050,SAR-soap,2021.1.2,60.1561336Trial # 40,Group1-stimuli/group1-block1/real-group1-b1/Group1_IMG_0148.jpg,1,Group1_IMG_0148.jpg,,,,,0,39,39,39,,,,,,,,,,,,,,,,,,,,,,,,,,,,,,,,,,,,,225.9734535,None,225.9734535,None,225.9734535,None,5,0.67379146,225.9734535,None,225.9734535,None,5,1.195918243,226.1912256,None,225.9734535,None,2,1.667521686,226.724284,None,225.9734535,None,space,0.078802908,1.690805864,None,225.9734535,None,225.9734535,None,,,,,,,,,Jack Whitcomb-2nd,1,2022_Apr_07_1050,SAR-soap,2021.1.2,60.1561336Trial # 41,Group1-stimuli/group1-block1/real-group1-b1/Group1_IMG_2891.jpg,1,Group1_IMG_2891.jpg,,,,,0,40,40,40,,,,,,,,,,,,,,,,,,,,,,,,,,,,,,,,,,,,,227.7908004,None,227.7908004,None,227.7908004,None,1,0.709893393,227.7908004,None,227.7908004,None,1,1.199243891,228.0409742,None,227.7908004,None,2,1.604544122,228.5399675,None,227.7908004,None,space,0.113636545,1.627387694,None,227.7908004,None,227.7908004,None,,,,,,,,,Jack Whitcomb-2nd,1,2022_Apr_07_1050,SAR-soap,2021.1.2,60.1561336Trial # 42,Group1-stimuli/group1-block1/real-group1-b1/Group1_IMG_0157.jpg,1,Group1_IMG_0157.jpg,,,,,0,41,41,41,,,,,,,,,,,,,,,,,,,,,,,,,,,,,,,,,,,,,229.5742229,None,229.5742229,None,229.5742229,None,4,0.646595406,229.5742229,None,229.5742229,None,2,1.103607995,229.7740436,None,229.5742229,None,3,1.542344763,230.2417979,None,229.5742229,None,space,0.306873026,1.570432913,None,229.5742229,None,229.5742229,None,,,,,,,,,Jack Whitcomb-2nd,1,2022_Apr_07_1050,SAR-soap,2021.1.2,60.1561336Trial # 43,Group1-stimuli/group1-block1/real-group1-b1/Group1_IMG_9833.jpg,1,Group1_IMG_9833.jpg,,,,,0,42,42,42,,,,,,,,,,,,,,,,,,,,,,,,,,,,,,,,,,,,,231.5257189,None,231.5257189,None,231.5257189,None,1,0.660937258,231.5257189,None,231.5257189,None,1,1.182228682,231.7250841,None,231.5257189,None,1,1.688795234,232.2588327,None,231.5257189,None,space,0.286556018,1.71379182,None,231.5257189,None,231.5257189,None,,,,,,,,,Jack Whitcomb-2nd,1,2022_Apr_07_1050,SAR-soap,2021.1.2,60.1561336Trial # 44,Group1-stimuli/group1-block1/fake-group2-b1/encoded_Group2_IMG_2230.jpg,0,encoded_Group2_IMG_2230.jpg,,,,,0,43,43,43,,,,,,,,,,,,,,,,,,,,,,,,,,,,,,,,,,,,,233.5590579,None,233.5590579,None,233.5590579,None,4,0.793535961,233.5590579,None,233.5590579,None,3,1.283168148,233.8926578,None,233.5590579,None,2,1.753801442,234.3927733,None,233.5590579,None,space,0.074943052,1.780293701,None,233.5590579,None,233.5590579,None,,,,,,,,,Jack Whitcomb-2nd,1,2022_Apr_07_1050,SAR-soap,2021.1.2,60.1561336Trial # 45,Group1-stimuli/group1-block1/real-group1-b1/Group1_IMG_9966.jpg,1,Group1_IMG_9966.jpg,,,,,0,44,44,44,,,,,,,,,,,,,,,,,,,,,,,,,,,,,,,,,,,,,235.4601554,None,235.4601554,None,235.4601554,None,3,1.083385397,235.4601554,None,235.4601554,None,2,1.639434388,236.0941554,None,235.4601554,None,2,2.810137654,236.6603405,None,235.4601554,None,space,-0.573798095,2.841539989,None,235.4601554,None,235.4601554,None,,,,,,,,,Jack Whitcomb-2nd,1,2022_Apr_07_1050,SAR-soap,2021.1.2,60.1561336Trial # 46,Group1-stimuli/group1-block1/real-group1-b1/Group1_IMG_0239.jpg,1,Group1_IMG_0239.jpg,,,,,0,45,45,45,,,,,,,,,,,,,,,,,,,,,,,,,,,,,,,,,,,,,238.3264216,None,238.3264216,None,238.3264216,None,1,1.141546579,238.3264216,None,238.3264216,None,1,1.631475043,239.0107022,None,238.3264216,None,1,2.134381848,239.5101165,None,238.3264216,None,space,-2.036398346,2.159309719,None,238.3264216,None,238.3264216,None,,,,,,,,,Jack Whitcomb-2nd,1,2022_Apr_07_1050,SAR-soap,2021.1.2,60.1561336Trial # 47,Group1-stimuli/group1-block1/fake-group2-b1/encoded_Group2_IMG_0536.jpg,0,encoded_Group2_IMG_0536.jpg,,,,,0,46,46,46,,,,,,,,,,,,,,,,,,,,,,,,,,,,,,,,,,,,,240.4949698,None,240.4949698,None,240.4949698,None,1,0.964975892,240.4949698,None,240.4949698,None,1,1.470301839,240.9964331,None,240.4949698,None,1,2.009670144,241.5287105,None,240.4949698,None,space,-1.943256904,2.036502952,None,240.4949698,None,240.4949698,None,,,,,,,,,Jack Whitcomb-2nd,1,2022_Apr_07_1050,SAR-soap,2021.1.2,60.1561336Trial # 48,Group1-stimuli/group1-block1/fake-group2-b1/encoded_Group2_IMG_0521.jpg,0,encoded_Group2_IMG_0521.jpg,,,,,0,47,47,47,,,,,,,,,,,,,,,,,,,,,,,,,,,,,,,,,,,,,242.5442974,None,242.5442974,None,242.5442974,None,3,1.045964697,242.5442974,None,242.5442974,None,2,1.467673962,243.1453844,None,242.5442974,None,3,2.306736158,243.5779873,None,242.5442974,None,space,0.833708805,2.334299629,None,242.5442974,None,242.5442974,None,,,,,,,,,Jack Whitcomb-2nd,1,2022_Apr_07_1050,SAR-soap,2021.1.2,60.1561336Trial # 49,Group1-stimuli/group1-block1/fake-group2-b1/encoded_Group2_IMG_9924.jpg,0,encoded_Group2_IMG_9924.jpg,,,,,0,48,48,48,,,,,,,,,,,,,,,,,,,,,,,,,,,,,,,,,,,,,245.7466345,None,245.7466345,None,245.7466345,None,1,3.534069978,245.7466345,None,245.7466345,None,1,4.45716396,248.8302085,None,245.7466345,None,1,5.030145589,249.7641444,None,245.7466345,None,space,0.146439399,5.062558908,None,245.7466345,None,245.7466345,None,,,,,,,,,Jack Whitcomb-2nd,1,2022_Apr_07_1050,SAR-soap,2021.1.2,60.1561336Trial # 50,Group1-stimuli/group1-block1/real-group1-b1/Group1_IMG_9730.jpg,1,Group1_IMG_9730.jpg,,,,,0,49,49,49,,,,,,,,,,,,,,,,,,,,,,,,,,,,,,,,,,,,,250.998615,None,250.998615,None,250.998615,None,4,0.774217045,250.998615,None,250.998615,None,5,1.213447632,251.2997274,None,250.998615,None,1,1.719071674,251.7653387,None,250.998615,None,space,0.125193831,1.740223425,None,250.998615,None,250.998615,None,,,,,,,,,Jack Whitcomb-2nd,1,2022_Apr_07_1050,SAR-soap,2021.1.2,60.1561336Trial # 51,Group1-stimuli/group1-block1/real-group1-b1/Group1_IMG_0053.jpg,1,Group1_IMG_0053.jpg,,,,,0,50,50,50,,,,,,,,,,,,,,,,,,,,,,,,,,,,,,,,,,,,,252.8979815,None,252.8979815,None,252.8979815,None,1,1.267689215,252.8979815,None,252.8979815,None,1,1.723507184,253.7149243,None,252.8979815,None,1,2.49613088,254.1819852,None,252.8979815,None,space,0.225403336,2.527540219,None,252.8979815,None,252.8979815,None,,,,,,,,,Jack Whitcomb-2nd,1,2022_Apr_07_1050,SAR-soap,2021.1.2,60.1561336Trial # 52,Group1-stimuli/group1-block1/real-group1-b1/Group1_IMG_9698.jpg,1,Group1_IMG_9698.jpg,,,,,0,51,51,51,,,,,,,,,,,,,,,,,,,,,,,,,,,,,,,,,,,,,255.6822575,None,255.6822575,None,255.6822575,None,1,0.66562857,255.6822575,None,255.6822575,None,1,1.156686572,255.9006758,None,255.6822575,None,1,1.662133999,256.4000169,None,255.6822575,None,space,0.153642885,1.692342131,None,255.6822575,None,255.6822575,None,,,,,,,,,Jack Whitcomb-2nd,1,2022_Apr_07_1050,SAR-soap,2021.1.2,60.1561336Trial # 53,Group1-stimuli/group1-block1/fake-group2-b1/encoded_Group2_IMG_0553.jpg,0,encoded_Group2_IMG_0553.jpg,,,,,0,52,52,52,,,,,,,,,,,,,,,,,,,,,,,,,,,,,,,,,,,,,257.5658187,None,257.5658187,None,257.5658187,None,1,0.820901217,257.5658187,None,257.5658187,None,1,1.278249893,257.9328977,None,257.5658187,None,1,1.749685503,258.3992521,None,257.5658187,None,space,0.163137229,1.76894555,None,257.5658187,None,257.5658187,None,,,,,,,,,Jack Whitcomb-2nd,1,2022_Apr_07_1050,SAR-soap,2021.1.2,60.1561336Trial # 54,Group1-stimuli/group1-block1/fake-group2-b1/encoded_Group2_IMG_9758.jpg,0,encoded_Group2_IMG_9758.jpg,,,,,0,53,53,53,,,,,,,,,,,,,,,,,,,,,,,,,,,,,,,,,,,,,259.5330409,None,259.5330409,None,259.5330409,None,3,0.728548208,259.5330409,None,259.5330409,None,3,1.185877586,259.7995529,None,259.5330409,None,2,1.657367949,260.2680254,None,259.5330409,None,space,0.143081929,1.684016393,None,259.5330409,None,259.5330409,None,,,,,,,,,Jack Whitcomb-2nd,1,2022_Apr_07_1050,SAR-soap,2021.1.2,60.1561336Trial # 55,Group1-stimuli/group1-block1/fake-group2-b1/encoded_Group2_IMG_0339.jpg,0,encoded_Group2_IMG_0339.jpg,,,,,0,54,54,54,,,,,,,,,,,,,,,,,,,,,,,,,,,,,,,,,,,,,261.4012583,None,261.4012583,None,261.4012583,None,1,0.711939754,261.4012583,None,261.4012583,None,1,1.234489432,261.6509264,None,261.4012583,None,1,1.671813472,262.1846903,None,261.4012583,None,space,0.123237835,1.699552184,None,261.4012583,None,261.4012583,None,,,,,,,,,Jack Whitcomb-2nd,1,2022_Apr_07_1050,SAR-soap,2021.1.2,60.1561336Trial # 56,Group1-stimuli/group1-block1/real-group1-b1/Group1_IMG_0314.jpg,1,Group1_IMG_0314.jpg,,,,,0,55,55,55,,,,,,,,,,,,,,,,,,,,,,,,,,,,,,,,,,,,,263.2508496,None,263.2508496,None,263.2508496,None,1,0.675144446,263.2508496,None,263.2508496,None,1,1.163725208,263.4681432,None,263.2508496,None,1,1.568698332,263.9682614,None,263.2508496,None,space,0.085855829,1.59172813,None,263.2508496,None,263.2508496,None,,,,,,,,,Jack Whitcomb-2nd,1,2022_Apr_07_1050,SAR-soap,2021.1.2,60.1561336Trial # 57,Group1-stimuli/group1-block1/fake-group2-b1/encoded_Group2_IMG_0532.jpg,0,encoded_Group2_IMG_0532.jpg,,,,,0,56,56,56,,,,,,,,,,,,,,,,,,,,,,,,,,,,,,,,,,,,,264.951015,None,264.951015,None,264.951015,None,3,0.762064217,264.951015,None,264.951015,None,1,1.219611842,265.2688546,None,264.951015,None,3,1.657704334,265.7353419,None,264.951015,None,space,0.100231494,1.684111521,None,264.951015,None,264.951015,None,,,,,,,,,Jack Whitcomb-2nd,1,2022_Apr_07_1050,SAR-soap,2021.1.2,60.1561336Trial # 58,Group1-stimuli/group1-block1/fake-group2-b1/encoded_Group2_IMG_0462.jpg,0,encoded_Group2_IMG_0462.jpg,,,,,0,57,57,57,,,,,,,,,,,,,,,,,,,,,,,,,,,,,,,,,,,,,266.7864754,None,266.7864754,None,266.7864754,None,4,0.745791102,266.7864754,None,266.7864754,None,3,1.268129499,267.0856073,None,266.7864754,None,2,1.772795033,267.6200658,None,266.7864754,None,space,0.118201754,1.80022844,None,266.7864754,None,266.7864754,None,,,,,,,,,Jack Whitcomb-2nd,1,2022_Apr_07_1050,SAR-soap,2021.1.2,60.1561336Trial # 59,Group1-stimuli/group1-block1/real-group1-b1/Group1_IMG_0172.jpg,1,Group1_IMG_0172.jpg,,,,,0,58,58,58,,,,,,,,,,,,,,,,,,,,,,,,,,,,,,,,,,,,,268.7526165,None,268.7526165,None,268.7526165,None,1,0.666181665,268.7526165,None,268.7526165,None,1,1.155818284,268.9700367,None,268.7526165,None,1,1.559621686,269.469045,None,268.7526165,None,space,0.064707754,1.592053594,None,268.7526165,None,268.7526165,None,,,,,,,,,Jack Whitcomb-2nd,1,2022_Apr_07_1050,SAR-soap,2021.1.2,60.1561336Trial # 60,Group1-stimuli/group1-block1/real-group1-b1/Group1_IMG_4841.jpg,1,Group1_IMG_4841.jpg,,,,,0,59,59,59,,,,,,,,,,,,,,,,,,,,,,,,,,,,,,,,,,,,,270.4367686,None,270.4367686,None,270.4367686,None,4,0.69442476,270.4367686,None,270.4367686,None,3,1.184081322,270.6713475,None,270.4367686,None,3,1.623106245,271.1713386,None,270.4367686,None,space,0.177258889,1.645969437,None,270.4367686,None,270.4367686,None,,,,,,,,,Jack Whitcomb-2nd,1,2022_Apr_07_1050,SAR-soap,2021.1.2,60.1561336Trial # 61,Group1-stimuli/group1-block1/fake-group2-b1/encoded_Group2_IMG_0352.jpg,0,encoded_Group2_IMG_0352.jpg,,,,,0,60,60,60,,,,,,,,,,,,,,,,,,,,,,,,,,,,,,,,,,,,,272.304315,None,272.304315,None,272.304315,None,1,0.611132456,272.304315,None,272.304315,None,1,1.465732796,272.4555075,None,272.304315,None,1,2.03728379,273.3217142,None,272.304315,None,space,0.085558474,2.06341115,None,272.304315,None,272.304315,None,,,,,,,,,Jack Whitcomb-2nd,1,2022_Apr_07_1050,SAR-soap,2021.1.2,60.1561336Trial # 62,Group1-stimuli/group1-block1/fake-group2-b1/encoded_Group2_IMG_9726.jpg,0,encoded_Group2_IMG_9726.jpg,,,,,0,61,61,61,,,,,,,,,,,,,,,,,,,,,,,,,,,,,,,,,,,,,274.4873404,None,274.4873404,None,274.4873404,None,4,0.693862233,274.4873404,None,274.4873404,None,4,1.651540362,274.7219851,None,274.4873404,None,1,2.05642602,275.6887106,None,274.4873404,None,space,0.196368123,2.083353861,None,274.4873404,None,274.4873404,None,,,,,,,,,Jack Whitcomb-2nd,1,2022_Apr_07_1050,SAR-soap,2021.1.2,60.1561336Trial # 63,Group1-stimuli/group1-block1/fake-group2-b1/encoded_Group2_IMG_9785.jpg,0,encoded_Group2_IMG_9785.jpg,,,,,0,62,62,62,,,,,,,,,,,,,,,,,,,,,,,,,,,,,,,,,,,,,276.7720712,None,276.7720712,None,276.7720712,None,2,0.678091706,276.7720712,None,276.7720712,None,2,1.135032624,277.0064085,None,276.7720712,None,2,1.605710369,277.4724684,None,276.7720712,None,space,0.066577388,1.632457463,None,276.7720712,None,276.7720712,None,,,,,,,,,Jack Whitcomb-2nd,1,2022_Apr_07_1050,SAR-soap,2021.1.2,60.1561336Trial # 64,Group1-stimuli/group1-block1/fake-group2-b1/encoded_Group2_IMG_0440.jpg,0,encoded_Group2_IMG_0440.jpg,,,,,0,63,63,63,,,,,,,,,,,,,,,,,,,,,,,,,,,,,,,,,,,,,278.538888,None,278.538888,None,278.538888,None,3,0.69843008,278.538888,None,278.538888,None,4,1.188321888,278.7892169,None,278.538888,None,1,1.626500378,279.2899982,None,278.538888,None,space,0.082604668,1.657434204,None,278.538888,None,278.538888,None,,,,,,,,,Jack Whitcomb-2nd,1,2022_Apr_07_1050,SAR-soap,2021.1.2,60.1561336Trial # 65,Group1-stimuli/group1-block1/fake-group2-b1/encoded_Group2_IMG_1695.jpg,0,encoded_Group2_IMG_1695.jpg,,,,,0,64,64,64,,,,,,,,,,,,,,,,,,,,,,,,,,,,,,,,,,,,,280.3075902,None,280.3075902,None,280.3075902,None,1,0.695587068,280.3075902,None,280.3075902,None,1,1.15258678,280.5569853,None,280.3075902,None,1,1.590207261,281.0234837,None,280.3075902,None,space,0.092533705,1.615941751,None,280.3075902,None,280.3075902,None,,,,,,,,,Jack Whitcomb-2nd,1,2022_Apr_07_1050,SAR-soap,2021.1.2,60.1561336Trial # 66,Group1-stimuli/group1-block1/real-group1-b1/Group1_IMG_0552.jpg,1,Group1_IMG_0552.jpg,,,,,0,65,65,65,,,,,,,,,,,,,,,,,,,,,,,,,,,,,,,,,,,,,282.0579185,None,282.0579185,None,282.0579185,None,1,0.757372082,282.0579185,None,282.0579185,None,1,1.180579585,282.3573921,None,282.0579185,None,1,1.686327284,282.7909658,None,282.0579185,None,space,0.050578112,1.70914745,None,282.0579185,None,282.0579185,None,,,,,,,,,Jack Whitcomb-2nd,1,2022_Apr_07_1050,SAR-soap,2021.1.2,60.1561336Trial # 67,Group1-stimuli/group1-block1/real-group1-b1/Group1_IMG_1029.jpg,1,Group1_IMG_1029.jpg,,,,,0,66,66,66,,,,,,,,,,,,,,,,,,,,,,,,,,,,,,,,,,,,,283.8579792,None,283.8579792,None,283.8579792,None,3,0.791490077,283.8579792,None,283.8579792,None,2,1.248551537,284.1912377,None,283.8579792,None,2,1.719889101,284.6579495,None,283.8579792,None,space,0.056103478,1.744497375,None,283.8579792,None,283.8579792,None,,,,,,,,,Jack Whitcomb-2nd,1,2022_Apr_07_1050,SAR-soap,2021.1.2,60.1561336Trial # 68,Group1-stimuli/group1-block1/fake-group2-b1/encoded_Group2_IMG_6517.jpg,0,encoded_Group2_IMG_6517.jpg,,,,,0,67,67,67,,,,,,,,,,,,,,,,,,,,,,,,,,,,,,,,,,,,,285.6918791,None,285.6918791,None,285.6918791,None,1,0.711319118,285.6918791,None,285.6918791,None,1,1.234184704,285.941753,None,285.6918791,None,2,1.706413038,286.4757251,None,285.6918791,None,space,0.343937283,1.731375022,None,285.6918791,None,285.6918791,None,,,,,,,,,Jack Whitcomb-2nd,1,2022_Apr_07_1050,SAR-soap,2021.1.2,60.1561336Trial # 69,Group1-stimuli/group1-block1/fake-group2-b1/encoded_Group2_IMG_0002.jpg,0,encoded_Group2_IMG_0002.jpg,,,,,0,68,68,68,,,,,,,,,,,,,,,,,,,,,,,,,,,,,,,,,,,,,287.8094234,None,287.8094234,None,287.8094234,None,3,0.611494093,287.8094234,None,287.8094234,None,1,1.600200962,287.9591364,None,287.8094234,None,2,2.073777598,288.959272,None,287.8094234,None,space,0.091723272,2.098855863,None,287.8094234,None,287.8094234,None,,,,,,,,,Jack Whitcomb-2nd,1,2022_Apr_07_1050,SAR-soap,2021.1.2,60.1561336Trial # 70,Group1-stimuli/group1-block1/real-group1-b1/Group1_IMG_0495.jpg,1,Group1_IMG_0495.jpg,,,,,0,69,69,69,,,,,,,,,,,,,,,,,,,,,,,,,,,,,,,,,,,,,290.0272811,None,290.0272811,None,290.0272811,None,1,0.651768217,290.0272811,None,290.0272811,None,1,1.075106573,290.2272762,None,290.0272811,None,1,1.74708388,290.6602826,None,290.0272811,None,space,0.095119643,1.77768847,None,290.0272811,None,290.0272811,None,,,,,,,,,Jack Whitcomb-2nd,1,2022_Apr_07_1050,SAR-soap,2021.1.2,60.1561336Trial # 71,Group1-stimuli/group1-block1/real-group1-b1/Group1_IMG_1391.jpg,1,Group1_IMG_1391.jpg,,,,,0,70,70,70,,,,,,,,,,,,,,,,,,,,,,,,,,,,,,,,,,,,,291.9278289,None,291.9278289,None,291.9278289,None,3,0.867077908,291.9278289,None,291.9278289,None,2,1.322976103,292.3434365,None,291.9278289,None,3,1.861336239,292.8105821,None,291.9278289,None,space,0.350175175,1.8936145,None,291.9278289,None,291.9278289,None,,,,,,,,,Jack Whitcomb-2nd,1,2022_Apr_07_1050,SAR-soap,2021.1.2,60.1561336Trial # 72,Group1-stimuli/group1-block1/real-group1-b1/Group1_IMG_0343.jpg,1,Group1_IMG_0343.jpg,,,,,0,71,71,71,,,,,,,,,,,,,,,,,,,,,,,,,,,,,,,,,,,,,294.2106405,None,294.2106405,None,294.2106405,None,1,0.842619436,294.2106405,None,294.2106405,None,1,1.765821021,294.5944305,None,294.2106405,None,1,2.604681715,295.5286814,None,294.2106405,None,space,-0.380769239,2.628477781,None,294.2106405,None,294.2106405,None,,,,,,,,,Jack Whitcomb-2nd,1,2022_Apr_07_1050,SAR-soap,2021.1.2,60.1561336Trial # 73,Group1-stimuli/group1-block1/fake-group2-b1/encoded_Group2_IMG_9810.jpg,0,encoded_Group2_IMG_9810.jpg,,,,,0,72,72,72,,,,,,,,,,,,,,,,,,,,,,,,,,,,,,,,,,,,,296.8456438,None,296.8456438,None,296.8456438,None,1,0.97821907,296.8456438,None,296.8456438,None,1,1.401236035,297.3789143,None,296.8456438,None,1,1.872212065,297.8117997,None,296.8456438,None,space,-1.713461092,1.900203163,None,296.8456438,None,296.8456438,None,,,,,,,,,Jack Whitcomb-2nd,1,2022_Apr_07_1050,SAR-soap,2021.1.2,60.1561336Trial # 74,Group1-stimuli/group1-block1/fake-group2-b1/encoded_Group2_IMG_5900.jpg,0,encoded_Group2_IMG_5900.jpg,,,,,0,73,73,73,,,,,,,,,,,,,,,,,,,,,,,,,,,,,,,,,,,,,298.7622915,None,298.7622915,None,298.7622915,None,1,1.046015609,298.7622915,None,298.7622915,None,1,1.50199977,299.3630646,None,298.7622915,None,2,1.974421159,299.8293314,None,298.7622915,None,space,-1.811371217,2.002700184,None,298.7622915,None,298.7622915,None,,,,,,,,,Jack Whitcomb-2nd,1,2022_Apr_07_1050,SAR-soap,2021.1.2,60.1561336Trial # 75,Group1-stimuli/group1-block1/real-group1-b1/Group1_IMG_9679.jpg,1,Group1_IMG_9679.jpg,,,,,0,74,74,74,,,,,,,,,,,,,,,,,,,,,,,,,,,,,,,,,,,,,300.7971125,None,300.7971125,None,300.7971125,None,1,0.926042596,300.7971125,None,300.7971125,None,1,1.349024097,301.2632098,None,300.7971125,None,1,1.788306413,301.6966401,None,300.7971125,None,space,0.347605504,1.811143476,None,300.7971125,None,300.7971125,None,,,,,,,,,Jack Whitcomb-2nd,1,2022_Apr_07_1050,SAR-soap,2021.1.2,60.1561336Trial # 76,Group1-stimuli/group1-block1/fake-group2-b1/encoded_Group2_IMG_4249.jpg,0,encoded_Group2_IMG_4249.jpg,,,,,0,75,75,75,,,,,,,,,,,,,,,,,,,,,,,,,,,,,,,,,,,,,302.9799675,None,302.9799675,None,302.9799675,None,5,0.729058101,302.9799675,None,302.9799675,None,5,1.151435504,303.2634397,None,302.9799675,None,1,1.657634423,303.6967989,None,302.9799675,None,space,0.336355102,1.682681716,None,302.9799675,None,302.9799675,None,,,,,,,,,Jack Whitcomb-2nd,1,2022_Apr_07_1050,SAR-soap,2021.1.2,60.1561336Trial # 77,Group1-stimuli/group1-block1/fake-group2-b1/encoded_Group2_IMG_0174.jpg,0,encoded_Group2_IMG_0174.jpg,,,,,0,76,76,76,,,,,,,,,,,,,,,,,,,,,,,,,,,,,,,,,,,,,305.0644096,None,305.0644096,None,305.0644096,None,1,0.795770587,305.0644096,None,305.0644096,None,1,1.218055914,305.3985532,None,305.0644096,None,2,1.757707799,305.8312053,None,305.0644096,None,space,0.400293408,1.782662892,None,305.0644096,None,305.0644096,None,,,,,,,,,Jack Whitcomb-2nd,1,2022_Apr_07_1050,SAR-soap,2021.1.2,60.1561336Trial # 78,Group1-stimuli/group1-block1/fake-group2-b1/encoded_Group2_IMG_0475.jpg,0,encoded_Group2_IMG_0475.jpg,,,,,0,77,77,77,,,,,,,,,,,,,,,,,,,,,,,,,,,,,,,,,,,,,307.2817618,None,307.2817618,None,307.2817618,None,1,0.628347526,307.2817618,None,307.2817618,None,1,1.251780443,307.4654255,None,307.2817618,None,1,1.723261089,308.0990011,None,307.2817618,None,space,0.352635546,1.750100974,None,307.2817618,None,307.2817618,None,,,,,,,,,Jack Whitcomb-2nd,1,2022_Apr_07_1050,SAR-soap,2021.1.2,60.1561336Trial # 79,Group1-stimuli/group1-block1/fake-group2-b1/encoded_Group2_IMG_9751.jpg,0,encoded_Group2_IMG_9751.jpg,,,,,0,78,78,78,,,,,,,,,,,,,,,,,,,,,,,,,,,,,,,,,,,,,309.4325727,None,309.4325727,None,309.4325727,None,3,0.79456657,309.4325727,None,309.4325727,None,3,1.218498662,309.765257,None,309.4325727,None,2,1.689479601,310.1992339,None,309.4325727,None,space,0.227885241,1.71564552,None,309.4325727,None,309.4325727,None,,,,,,,,,Jack Whitcomb-2nd,1,2022_Apr_07_1050,SAR-soap,2021.1.2,60.1561336Trial # 80,Group1-stimuli/group1-block1/fake-group2-b1/encoded_Group2_IMG_0492.jpg,0,encoded_Group2_IMG_0492.jpg,,,,,0,79,79,79,,,,,,,,,,,,,,,,,,,,,,,,,,,,,,,,,,,,,311.4002815,None,311.4002815,None,311.4002815,None,1,0.694931336,311.4002815,None,311.4002815,None,1,1.084812447,311.6338588,None,311.4002815,None,1,1.522558262,312.0338687,None,311.4002815,None,space,0.218802661,1.549246407,None,311.4002815,None,311.4002815,None,,,,,,,,,Jack Whitcomb-2nd,1,2022_Apr_07_1050,SAR-soap,2021.1.2,60.1561336Trial # 81,Group1-stimuli/group1-block1/real-group1-b1/Group1_IMG_0535.jpg,1,Group1_IMG_0535.jpg,,,,,0,80,80,80,,,,,,,,,,,,,,,,,,,,,,,,,,,,,,,,,,,,,313.2000221,None,313.2000221,None,313.2000221,None,1,0.614460765,313.2000221,None,313.2000221,None,1,1.437984654,313.3665196,None,313.2000221,None,1,2.075040803,314.2006544,None,313.2000221,None,space,0.171958759,2.105995354,None,313.2000221,None,313.2000221,None,,,,,,,,,Jack Whitcomb-2nd,1,2022_Apr_07_1050,SAR-soap,2021.1.2,60.1561336Trial # 82,Group1-stimuli/group1-block1/real-group1-b1/Group1_IMG_0077.jpg,1,Group1_IMG_0077.jpg,,,,,0,81,81,81,,,,,,,,,,,,,,,,,,,,,,,,,,,,,,,,,,,,,315.53425,None,315.53425,None,315.53425,None,2,0.690962919,315.53425,None,315.53425,None,1,1.115392398,315.7686175,None,315.53425,None,2,1.586481541,316.2017042,None,315.53425,None,space,0.21729298,1.608853806,None,315.53425,None,315.53425,None,,,,,,,,,Jack Whitcomb-2nd,1,2022_Apr_07_1050,SAR-soap,2021.1.2,60.1561336Trial # 83,Group1-stimuli/group1-block1/fake-group2-b1/encoded_Group2_IMG_9702.jpg,0,encoded_Group2_IMG_9702.jpg,,,,,0,82,82,82,,,,,,,,,,,,,,,,,,,,,,,,,,,,,,,,,,,,,317.384215,None,317.384215,None,317.384215,None,1,0.694876206,317.384215,None,317.384215,None,1,1.118821564,317.6347837,None,317.384215,None,1,1.556123323,318.067733,None,317.384215,None,space,0.320438415,1.583171787,None,317.384215,None,317.384215,None,,,,,,,,,Jack Whitcomb-2nd,1,2022_Apr_07_1050,SAR-soap,2021.1.2,60.1561336Trial # 84,Group1-stimuli/group1-block1/real-group1-b1/Group1_IMG_0357.jpg,1,Group1_IMG_0357.jpg,,,,,0,83,83,83,,,,,,,,,,,,,,,,,,,,,,,,,,,,,,,,,,,,,319.3352522,None,319.3352522,None,319.3352522,None,1,0.725537695,319.3352522,None,319.3352522,None,1,1.081887412,319.6019769,None,319.3352522,None,1,1.454810863,319.9689344,None,319.3352522,None,space,0.16570953,1.478509944,None,319.3352522,None,319.3352522,None,,,,,,,,,Jack Whitcomb-2nd,1,2022_Apr_07_1050,SAR-soap,2021.1.2,60.1561336Trial # 85,Group1-stimuli/group1-block1/real-group1-b1/Group1_IMG_9772.jpg,1,Group1_IMG_9772.jpg,,,,,0,84,84,84,,,,,,,,,,,,,,,,,,,,,,,,,,,,,,,,,,,,,321.0028055,None,321.0028055,None,321.0028055,None,3,0.709075302,321.0028055,None,321.0028055,None,3,1.066067875,321.2527661,None,321.0028055,None,2,1.536549619,321.6200411,None,321.0028055,None,space,0.095646002,1.560580621,None,321.0028055,None,321.0028055,None,,,,,,,,,Jack Whitcomb-2nd,1,2022_Apr_07_1050,SAR-soap,2021.1.2,60.1561336Trial # 86,Group1-stimuli/group1-block1/real-group1-b1/Group1_IMG_0482.jpg,1,Group1_IMG_0482.jpg,,,,,0,85,85,85,,,,,,,,,,,,,,,,,,,,,,,,,,,,,,,,,,,,,322.6858554,None,322.6858554,None,322.6858554,None,1,0.796811666,322.6858554,None,322.6858554,None,1,1.15305216,323.0370051,None,322.6858554,None,1,1.5250075,323.4035446,None,322.6858554,None,space,0.163434811,1.552850852,None,322.6858554,None,322.6858554,None,,,,,,,,,Jack Whitcomb-2nd,1,2022_Apr_07_1050,SAR-soap,2021.1.2,60.1561336Trial # 87,Group1-stimuli/group1-block1/real-group1-b1/Group1_IMG_0299.jpg,1,Group1_IMG_0299.jpg,,,,,0,86,86,86,,,,,,,,,,,,,,,,,,,,,,,,,,,,,,,,,,,,,324.4361949,None,324.4361949,None,324.4361949,None,4,0.880951159,324.4361949,None,324.4361949,None,3,1.271946308,324.8702829,None,324.4361949,None,2,1.677754613,325.2708619,None,324.4361949,None,space,0.214451941,1.70659427,None,324.4361949,None,324.4361949,None,,,,,,,,,Jack Whitcomb-2nd,1,2022_Apr_07_1050,SAR-soap,2021.1.2,60.1561336Trial # 88,Group1-stimuli/group1-block1/fake-group2-b1/encoded_Group2_IMG_0301.jpg,0,encoded_Group2_IMG_0301.jpg,,,,,0,87,87,87,,,,,,,,,,,,,,,,,,,,,,,,,,,,,,,,,,,,,326.403853,None,326.403853,None,326.403853,None,2,0.696093277,326.403853,None,326.403853,None,2,1.916985217,326.6385695,None,326.403853,None,3,2.422999666,327.8709092,None,326.403853,None,space,0.217995857,2.449555222,None,326.403853,None,326.403853,None,,,,,,,,,Jack Whitcomb-2nd,1,2022_Apr_07_1050,SAR-soap,2021.1.2,60.1561336Trial # 89,Group1-stimuli/group1-block1/fake-group2-b1/encoded_Group2_IMG_5136.jpg,0,encoded_Group2_IMG_5136.jpg,,,,,0,88,88,88,,,,,,,,,,,,,,,,,,,,,,,,,,,,,,,,,,,,,329.1043483,None,329.1043483,None,329.1043483,None,2,0.726964485,329.1043483,None,329.1043483,None,2,1.984311179,329.3714616,None,329.1043483,None,5,2.623400294,330.6387911,None,329.1043483,None,space,0.325601703,2.648788651,None,329.1043483,None,329.1043483,None,,,,,,,,,Jack Whitcomb-2nd,1,2022_Apr_07_1050,SAR-soap,2021.1.2,60.1561336Trial # 90,Group1-stimuli/group1-block1/real-group1-b1/Group1_IMG_0460.jpg,1,Group1_IMG_0460.jpg,,,,,0,89,89,89,,,,,,,,,,,,,,,,,,,,,,,,,,,,,,,,,,,,,332.1064798,None,332.1064798,None,332.1064798,None,3,0.792927819,332.1064798,None,332.1064798,None,3,1.114969758,332.4391128,None,332.1064798,None,1,1.553288001,332.7725767,None,332.1064798,None,space,0.135981312,1.576924152,None,332.1064798,None,332.1064798,None,,,,,,,,,Jack Whitcomb-2nd,1,2022_Apr_07_1050,SAR-soap,2021.1.2,60.1561336Trial # 91,Group1-stimuli/group1-block1/fake-group2-b1/encoded_Group2_IMG_0068.jpg,0,encoded_Group2_IMG_0068.jpg,,,,,0,90,90,90,,,,,,,,,,,,,,,,,,,,,,,,,,,,,,,,,,,,,333.8723692,None,333.8723692,None,333.8723692,None,3,0.811308455,333.8723692,None,333.8723692,None,3,1.634597701,334.2233645,None,333.8723692,None,2,2.372954671,335.0570077,None,333.8723692,None,space,0.17486464,2.400276901,None,333.8723692,None,333.8723692,None,,,,,,,,,Jack Whitcomb-2nd,1,2022_Apr_07_1050,SAR-soap,2021.1.2,60.1561336Trial # 92,Group1-stimuli/group1-block1/real-group1-b1/Group1_IMG_0337.jpg,1,Group1_IMG_0337.jpg,,,,,0,91,91,91,,,,,,,,,,,,,,,,,,,,,,,,,,,,,,,,,,,,,336.4912092,None,336.4912092,None,336.4912092,None,1,0.786400363,336.4912092,None,336.4912092,None,1,1.474567745,336.8254028,None,336.4912092,None,2,2.080382373,337.5241289,None,336.4912092,None,space,0.24076163,2.11539197,None,336.4912092,None,336.4912092,None,,,,,,,,,Jack Whitcomb-2nd,1,2022_Apr_07_1050,SAR-soap,2021.1.2,60.1561336Trial # 93,Group1-stimuli/group1-block1/fake-group2-b1/encoded_Group2_IMG_0346.jpg,0,encoded_Group2_IMG_0346.jpg,,,,,0,92,92,92,,,,,,,,,,,,,,,,,,,,,,,,,,,,,,,,,,,,,338.8747163,None,338.8747163,None,338.8747163,None,1,0.894491468,338.8747163,None,338.8747163,None,1,1.751765135,339.3251383,None,338.8747163,None,1,2.35795512,340.1928875,None,338.8747163,None,space,0.413730387,2.383482707,None,338.8747163,None,338.8747163,None,,,,,,,,,Jack Whitcomb-2nd,1,2022_Apr_07_1050,SAR-soap,2021.1.2,60.1561336Trial # 94,Group1-stimuli/group1-block1/real-group1-b1/Group1_IMG_4253.jpg,1,Group1_IMG_4253.jpg,,,,,0,93,93,93,,,,,,,,,,,,,,,,,,,,,,,,,,,,,,,,,,,,,341.7260215,None,341.7260215,None,341.7260215,None,4,1.541567864,341.7260215,None,341.7260215,None,4,2.130196747,342.8096642,None,341.7260215,None,2,2.668644525,343.4097064,None,341.7260215,None,space,0.207345568,2.690331949,None,341.7260215,None,341.7260215,None,,,,,,,,,Jack Whitcomb-2nd,1,2022_Apr_07_1050,SAR-soap,2021.1.2,60.1561336Trial # 95,Group1-stimuli/group1-block1/fake-group2-b1/encoded_Group2_IMG_9280.jpg,0,encoded_Group2_IMG_9280.jpg,,,,,0,94,94,94,,,,,,,,,,,,,,,,,,,,,,,,,,,,,,,,,,,,,344.6600815,None,344.6600815,None,344.6600815,None,3,1.079091774,344.6600815,None,344.6600815,None,1,2.136564317,345.2938629,None,344.6600815,None,2,2.708673358,346.3609362,None,344.6600815,None,space,0.214112591,2.734750195,None,344.6600815,None,344.6600815,None,,,,,,,,,Jack Whitcomb-2nd,1,2022_Apr_07_1050,SAR-soap,2021.1.2,60.1561336Trial # 96,Group1-stimuli/group1-block1/real-group1-b1/Group1_IMG_0417.jpg,1,Group1_IMG_0417.jpg,,,,,0,95,95,95,,,,,,,,,,,,,,,,,,,,,,,,,,,,,,,,,,,,,347.6609803,None,347.6609803,None,347.6609803,None,3,0.910278542,347.6609803,None,347.6609803,None,2,1.532163009,348.1119202,None,347.6609803,None,1,2.170479873,348.7447986,None,347.6609803,None,space,0.452508089,2.195038975,None,347.6609803,None,347.6609803,None,,,,,,,,,Jack Whitcomb-2nd,1,2022_Apr_07_1050,SAR-soap,2021.1.2,60.1561336Trial # 97,Group1-stimuli/group1-block1/fake-group2-b1/encoded_Group2_IMG_9695.jpg,0,encoded_Group2_IMG_9695.jpg,,,,,0,96,96,96,,,,,,,,,,,,,,,,,,,,,,,,,,,,,,,,,,,,,350.3284658,None,350.3284658,None,350.3284658,None,1,0.91266231,350.3284658,None,350.3284658,None,1,1.335904248,350.7956944,None,350.3284658,None,1,1.975176418,351.2287429,None,350.3284658,None,space,0.151082273,2.001011931,None,350.3284658,None,350.3284658,None,,,,,,,,,Jack Whitcomb-2nd,1,2022_Apr_07_1050,SAR-soap,2021.1.2,60.1561336Trial # 98,Group1-stimuli/group1-block1/real-group1-b1/Group1_IMG_1160.jpg,1,Group1_IMG_1160.jpg,,,,,0,97,97,97,,,,,,,,,,,,,,,,,,,,,,,,,,,,,,,,,,,,,352.5297772,None,352.5297772,None,352.5297772,None,3,1.046728216,352.5297772,None,352.5297772,None,2,1.602623824,353.1295743,None,352.5297772,None,2,2.475272187,353.696631,None,352.5297772,None,space,0.419375899,2.503053586,None,352.5297772,None,352.5297772,None,,,,,,,,,Jack Whitcomb-2nd,1,2022_Apr_07_1050,SAR-soap,2021.1.2,60.1561336Trial # 99,Group1-stimuli/group1-block1/real-group1-b1/Group1_IMG_0448.jpg,1,Group1_IMG_0448.jpg,,,,,0,98,98,98,,,,,,,,,,,,,,,,,,,,,,,,,,,,,,,,,,,,,355.4805179,None,355.4805179,None,355.4805179,None,3,1.072167687,355.4805179,None,355.4805179,None,2,1.460242521,356.114094,None,355.4805179,None,2,1.899562044,356.513777,None,355.4805179,None,space,0.194822195,1.933738916,None,355.4805179,None,355.4805179,None,,,,,,,,,Jack Whitcomb-2nd,1,2022_Apr_07_1050,SAR-soap,2021.1.2,60.1561336Trial # 100,Group1-stimuli/group1-block1/fake-group2-b1/encoded_Group2_IMG_0393.jpg,0,encoded_Group2_IMG_0393.jpg,,,,,0,99,99,99,,,,,,,,,,,,,,,,,,,,,,,,,,,,,,,,,,,,,357.6308361,None,357.6308361,None,357.6308361,None,3,0.745227064,357.6308361,None,357.6308361,None,1,1.168871388,357.9307554,None,357.6308361,None,2,1.639970135,358.3636655,None,357.6308361,None,space,0.199183305,1.666376011,None,357.6308361,None,357.6308361,None,,,,,,,,,Jack Whitcomb-2nd,1,2022_Apr_07_1050,SAR-soap,2021.1.2,60.1561336Trial # 101,Group1-stimuli/group1-block1/real-group1-b1/Group1_IMG_0090.jpg,1,Group1_IMG_0090.jpg,,,,,0,100,100,100,,,,,,,,,,,,,,,,,,,,,,,,,,,,,,,,,,,,,359.5312892,None,359.5312892,None,359.5312892,None,1,0.725619968,359.5312892,None,359.5312892,None,1,1.382262643,359.7974545,None,359.5312892,None,1,1.887339469,360.465191,None,359.5312892,None,space,0.17583719,1.910783155,None,359.5312892,None,359.5312892,None,,,,,,,,,Jack Whitcomb-2nd,1,2022_Apr_07_1050,SAR-soap,2021.1.2,60.1561336Trial # 102,Group1-stimuli/group1-block1/real-group1-b1/Group1_IMG_0310.jpg,1,Group1_IMG_0310.jpg,,,,,0,101,101,101,,,,,,,,,,,,,,,,,,,,,,,,,,,,,,,,,,,,,361.681633,None,361.681633,None,361.681633,None,1,0.628145028,361.681633,None,361.681633,None,1,1.04976837,361.8492592,None,361.681633,None,1,1.389434718,362.2826693,None,361.681633,None,space,0.166532859,1.414222348,None,361.681633,None,361.681633,None,,,,,,,,,Jack Whitcomb-2nd,1,2022_Apr_07_1050,SAR-soap,2021.1.2,60.1561336Trial # 103,Group1-stimuli/group1-block1/fake-group2-b1/encoded_Group2_IMG_0528.jpg,0,encoded_Group2_IMG_0528.jpg,,,,,0,102,102,102,,,,,,,,,,,,,,,,,,,,,,,,,,,,,,,,,,,,,363.28221,None,363.28221,None,363.28221,None,3,0.698824309,363.28221,None,363.28221,None,2,1.054581104,363.5323641,None,363.28221,None,2,1.427140742,363.8989432,None,363.28221,None,space,0.108033432,1.456219114,None,363.28221,None,363.28221,None,,,,,,,,,Jack Whitcomb-2nd,1,2022_Apr_07_1050,SAR-soap,2021.1.2,60.1561336Trial # 104,Group1-stimuli/group1-block1/fake-group2-b1/encoded_Group2_IMG_1975.jpg,0,encoded_Group2_IMG_1975.jpg,,,,,0,103,103,103,,,,,,,,,,,,,,,,,,,,,,,,,,,,,,,,,,,,,364.8995305,None,364.8995305,None,364.8995305,None,1,0.628046039,364.8995305,None,364.8995305,None,1,1.01779892,365.0675367,None,364.8995305,None,2,1.389447384,365.4668648,None,364.8995305,None,space,0.196140035,1.416280202,None,364.8995305,None,364.8995305,None,,,,,,,,,Jack Whitcomb-2nd,1,2022_Apr_07_1050,SAR-soap,2021.1.2,60.1561336Trial # 105,Group1-stimuli/group1-block1/fake-group2-b1/encoded_Group2_IMG_0052.jpg,0,encoded_Group2_IMG_0052.jpg,,,,,0,104,104,104,,,,,,,,,,,,,,,,,,,,,,,,,,,,,,,,,,,,,366.5341555,None,366.5341555,None,366.5341555,None,1,0.610643884,366.5341555,None,366.5341555,None,1,0.967527822,366.68437,None,366.5341555,None,1,1.438665402,367.0509284,None,366.5341555,None,space,0.13711111,1.464278596,None,366.5341555,None,366.5341555,None,,,,,,,,,Jack Whitcomb-2nd,1,2022_Apr_07_1050,SAR-soap,2021.1.2,60.1561336Trial # 106,Group1-stimuli/group1-block1/fake-group2-b1/encoded_Group2_IMG_0225.jpg,0,encoded_Group2_IMG_0225.jpg,,,,,0,105,105,105,,,,,,,,,,,,,,,,,,,,,,,,,,,,,,,,,,,,,368.1675385,None,368.1675385,None,368.1675385,None,3,0.695112911,368.1675385,None,368.1675385,None,2,1.085525491,368.417548,None,368.1675385,None,2,1.489781478,368.8176726,None,368.1675385,None,space,0.08395118,1.516884443,None,368.1675385,None,368.1675385,None,,,,,,,,,Jack Whitcomb-2nd,1,2022_Apr_07_1050,SAR-soap,2021.1.2,60.1561336Trial # 107,Group1-stimuli/group1-block1/real-group1-b1/Group1_IMG_2231.jpg,1,Group1_IMG_2231.jpg,,,,,0,106,106,106,,,,,,,,,,,,,,,,,,,,,,,,,,,,,,,,,,,,,369.8173958,None,369.8173958,None,369.8173958,None,3,0.713255701,369.8173958,None,369.8173958,None,2,1.036616149,370.0849714,None,369.8173958,None,2,1.40717556,370.4188681,None,369.8173958,None,space,0.164502288,1.435068582,None,369.8173958,None,369.8173958,None,,,,,,,,,Jack Whitcomb-2nd,1,2022_Apr_07_1050,SAR-soap,2021.1.2,60.1561336Trial # 108,Group1-stimuli/group1-block1/real-group1-b1/Group1_IMG_0217.jpg,1,Group1_IMG_0217.jpg,,,,,0,107,107,107,,,,,,,,,,,,,,,,,,,,,,,,,,,,,,,,,,,,,371.4513437,None,371.4513437,None,371.4513437,None,4,0.841173788,371.4513437,None,371.4513437,None,2,1.162503863,371.8351652,None,371.4513437,None,2,1.568724221,372.1684435,None,371.4513437,None,space,0.109514003,1.591573918,None,371.4513437,None,371.4513437,None,,,,,,,,,Jack Whitcomb-2nd,1,2022_Apr_07_1050,SAR-soap,2021.1.2,60.1561336Trial # 109,Group1-stimuli/group1-block1/real-group1-b1/Group1_IMG_0264.jpg,1,Group1_IMG_0264.jpg,,,,,0,108,108,108,,,,,,,,,,,,,,,,,,,,,,,,,,,,,,,,,,,,,373.2023982,None,373.2023982,None,373.2023982,None,4,0.632481769,373.2023982,None,373.2023982,None,2,1.056220294,373.3865552,None,373.2023982,None,3,1.826962575,373.8188997,None,373.2023982,None,space,0.092403916,1.858027002,None,373.2023982,None,373.2023982,None,,,,,,,,,Jack Whitcomb-2nd,1,2022_Apr_07_1050,SAR-soap,2021.1.2,60.1561336Trial # 110,Group1-stimuli/group1-block1/fake-group2-b1/encoded_Group2_IMG_0254.jpg,0,encoded_Group2_IMG_0254.jpg,,,,,0,109,109,109,,,,,,,,,,,,,,,,,,,,,,,,,,,,,,,,,,,,,375.1701699,None,375.1701699,None,375.1701699,None,1,1.13017862,375.1701699,None,375.1701699,None,1,1.451880586,375.854397,None,375.1701699,None,1,1.823504249,376.1868526,None,375.1701699,None,space,0.148266628,1.850353643,None,375.1701699,None,375.1701699,None,,,,,,,,,Jack Whitcomb-2nd,1,2022_Apr_07_1050,SAR-soap,2021.1.2,60.1561336Trial # 111,Group1-stimuli/group1-block1/fake-group2-b1/encoded_Group2_IMG_5433.jpg,0,encoded_Group2_IMG_5433.jpg,,,,,0,110,110,110,,,,,,,,,,,,,,,,,,,,,,,,,,,,,,,,,,,,,377.2034267,None,377.2034267,None,377.2034267,None,1,0.794742593,377.2034267,None,377.2034267,None,1,1.117215876,377.5544207,None,377.2034267,None,1,1.456005263,377.8865998,None,377.2034267,None,space,0.112884228,1.483358455,None,377.2034267,None,377.2034267,None,,,,,,,,,Jack Whitcomb-2nd,1,2022_Apr_07_1050,SAR-soap,2021.1.2,60.1561336Trial # 112,Group1-stimuli/group1-block1/real-group1-b1/Group1_IMG_0252.jpg,1,Group1_IMG_0252.jpg,,,,,0,111,111,111,,,,,,,,,,,,,,,,,,,,,,,,,,,,,,,,,,,,,378.870162,None,378.870162,None,378.870162,None,2,0.794756485,378.870162,None,378.870162,None,1,1.084351091,379.2040156,None,378.870162,None,1,1.488935822,379.5033112,None,378.870162,None,space,0.093912468,1.515697389,None,378.870162,None,378.870162,None,,,,,,,,,Jack Whitcomb-2nd,1,2022_Apr_07_1050,SAR-soap,2021.1.2,60.1561336Trial # 113,Group1-stimuli/group1-block1/real-group1-b1/Group1_IMG_9720.jpg,1,Group1_IMG_9720.jpg,,,,,0,112,112,112,,,,,,,,,,,,,,,,,,,,,,,,,,,,,,,,,,,,,380.5043257,None,380.5043257,None,380.5043257,None,3,1.432751423,380.5043257,None,380.5043257,None,3,1.854741666,381.4890974,None,380.5043257,None,2,2.692898298,381.9223762,None,380.5043257,None,space,-0.389017362,2.722179984,None,380.5043257,None,380.5043257,None,,,,,,,,,Jack Whitcomb-2nd,1,2022_Apr_07_1050,SAR-soap,2021.1.2,60.1561336Trial # 114,Group1-stimuli/group1-block1/fake-group2-b1/encoded_Group2_IMG_0550.jpg,0,encoded_Group2_IMG_0550.jpg,,,,,0,113,113,113,,,,,,,,,,,,,,,,,,,,,,,,,,,,,,,,,,,,,383.2389278,None,383.2389278,None,383.2389278,None,1,0.829760877,383.2389278,None,383.2389278,None,1,1.185098157,383.6221742,None,383.2389278,None,1,1.590824175,383.9882862,None,383.2389278,None,space,-1.503264226,1.61913474,None,383.2389278,None,383.2389278,None,,,,,,,,,Jack Whitcomb-2nd,1,2022_Apr_07_1050,SAR-soap,2021.1.2,60.1561336Trial # 115,Group1-stimuli/group1-block1/real-group1-b1/Group1_IMG_9915.jpg,1,Group1_IMG_9915.jpg,,,,,0,114,114,114,,,,,,,,,,,,,,,,,,,,,,,,,,,,,,,,,,,,,384.8886398,None,384.8886398,None,384.8886398,None,1,0.941283974,384.8886398,None,384.8886398,None,1,1.365189618,385.373011,None,384.8886398,None,2,1.769968354,385.806933,None,384.8886398,None,space,0.550988861,1.793322277,None,384.8886398,None,384.8886398,None,,,,,,,,,Jack Whitcomb-2nd,1,2022_Apr_07_1050,SAR-soap,2021.1.2,60.1561336Trial # 116,Group1-stimuli/group1-block1/real-group1-b1/Group1_IMG_9850.jpg,1,Group1_IMG_9850.jpg,,,,,0,115,115,115,,,,,,,,,,,,,,,,,,,,,,,,,,,,,,,,,,,,,387.2735199,None,387.2735199,None,387.2735199,None,1,0.649301999,387.2735199,None,387.2735199,None,1,1.472452094,387.4730053,None,387.2735199,None,2,1.943640987,388.3068162,None,387.2735199,None,space,0.288729241,1.974547257,None,387.2735199,None,387.2735199,None,,,,,,,,,Jack Whitcomb-2nd,1,2022_Apr_07_1050,SAR-soap,2021.1.2,60.1561336Trial # 117,Group1-stimuli/group1-block1/real-group1-b1/Group1_IMG_3579.jpg,1,Group1_IMG_3579.jpg,,,,,0,116,116,116,,,,,,,,,,,,,,,,,,,,,,,,,,,,,,,,,,,,,389.573235,None,389.573235,None,389.573235,None,2,0.963829321,389.573235,None,389.573235,None,2,1.787963589,390.0915252,None,389.573235,None,2,2.159088475,390.9251091,None,389.573235,None,space,0.154522136,2.187378625,None,389.573235,None,389.573235,None,,,,,,,,,Jack Whitcomb-2nd,1,2022_Apr_07_1050,SAR-soap,2021.1.2,60.1561336Trial # 118,Group1-stimuli/group1-block1/fake-group2-b1/encoded_Group2_IMG_0377.jpg,0,encoded_Group2_IMG_0377.jpg,,,,,0,117,117,117,,,,,,,,,,,,,,,,,,,,,,,,,,,,,,,,,,,,,391.9416659,None,391.9416659,None,391.9416659,None,1,0.845264669,391.9416659,None,391.9416659,None,1,1.601112559,392.3416068,None,391.9416659,None,1,1.9383448,393.1078025,None,391.9416659,None,space,0.212201422,1.965839354,None,391.9416659,None,391.9416659,None,,,,,,,,,Jack Whitcomb-2nd,1,2022_Apr_07_1050,SAR-soap,2021.1.2,60.1561336Trial # 119,Group1-stimuli/group1-block1/real-group1-b1/Group1_IMG_0469.jpg,1,Group1_IMG_0469.jpg,,,,,0,118,118,118,,,,,,,,,,,,,,,,,,,,,,,,,,,,,,,,,,,,,394.1752119,None,394.1752119,None,394.1752119,None,1,1.130206909,394.1752119,None,394.1752119,None,1,1.487339437,394.8595857,None,394.1752119,None,1,1.858629756,395.2258223,None,394.1752119,None,space,0.172528937,1.887480742,None,394.1752119,None,394.1752119,None,,,,,,,,,Jack Whitcomb-2nd,1,2022_Apr_07_1050,SAR-soap,2021.1.2,60.1561336Trial # 120,Group1-stimuli/group1-block1/fake-group2-b1/encoded_Group2_IMG_0100.jpg,0,encoded_Group2_IMG_0100.jpg,,,,,0,119,119,119,,,,,,,,,,,,,,,,,,,,,,,,,,,,,,,,,,,,,396.2762451,None,396.2762451,None,396.2762451,None,2,0.754395593,396.2762451,None,396.2762451,None,2,1.110734067,396.5928212,None,396.2762451,None,1,1.815621265,396.9591336,None,396.2762451,None,space,0.161824416,1.850826919,None,396.2762451,None,396.2762451,None,,,,,,,,,Jack Whitcomb-2nd,1,2022_Apr_07_1050,SAR-soap,2021.1.2,60.1561336Trial # 121,Group1-stimuli/group1-block1/real-group1-b1/Group1_IMG_5359.jpg,1,Group1_IMG_5359.jpg,,,,,0,120,120,120,,,,,,,,,,,,,,,,,,,,,,,,,,,,,,,,,,,,,398.3260619,None,398.3260619,None,398.3260619,None,2,0.696021776,398.3260619,None,398.3260619,None,1,1.052034509,398.5769351,None,398.3260619,None,2,1.490078134,398.9427725,None,398.3260619,None,space,0.205822577,1.516025505,None,398.3260619,None,398.3260619,None,,,,,,,,,Jack Whitcomb-2nd,1,2022_Apr_07_1050,SAR-soap,2021.1.2,60.1561336Trial # 122,Group1-stimuli/group1-block1/fake-group2-b1/encoded_Group2_IMG_0304.jpg,0,encoded_Group2_IMG_0304.jpg,,,,,0,121,121,121,,,,,,,,,,,,,,,,,,,,,,,,,,,,,,,,,,,,,400.093869,None,400.093869,None,400.093869,None,3,0.712864377,400.093869,None,400.093869,None,2,1.103138385,400.360884,None,400.093869,None,2,1.441708189,400.7607506,None,400.093869,None,space,0.190767025,1.469014106,None,400.093869,None,400.093869,None,,,,,,,,,Jack Whitcomb-2nd,1,2022_Apr_07_1050,SAR-soap,2021.1.2,60.1561336Trial # 123,Group1-stimuli/group1-block1/real-group1-b1/Group1_IMG_0306.jpg,1,Group1_IMG_0306.jpg,,,,,0,122,122,122,,,,,,,,,,,,,,,,,,,,,,,,,,,,,,,,,,,,,401.9438284,None,401.9438284,None,401.9438284,None,4,0.77284628,401.9438284,None,401.9438284,None,3,1.12895657,402.2614449,None,401.9438284,None,3,1.500519614,402.6281473,None,401.9438284,None,space,0.219528398,1.52125878,None,401.9438284,None,401.9438284,None,,,,,,,,,Jack Whitcomb-2nd,1,2022_Apr_07_1050,SAR-soap,2021.1.2,60.1561336Trial # 124,Group1-stimuli/group1-block1/real-group1-b1/Group1_IMG_0224.jpg,1,Group1_IMG_0224.jpg,,,,,0,123,123,123,,,,,,,,,,,,,,,,,,,,,,,,,,,,,,,,,,,,,403.7277876,None,403.7277876,None,403.7277876,None,3,0.73117866,403.7277876,None,403.7277876,None,2,1.553054822,404.0122324,None,403.7277876,None,2,1.9598509,404.8445176,None,403.7277876,None,space,0.111779821,1.988694184,None,403.7277876,None,403.7277876,None,,,,,,,,,Jack Whitcomb-2nd,1,2022_Apr_07_1050,SAR-soap,2021.1.2,60.1561336Trial # 125,Group1-stimuli/group1-block1/real-group1-b1/Group1_IMG_9889.jpg,1,Group1_IMG_9889.jpg,,,,,0,124,124,124,,,,,,,,,,,,,,,,,,,,,,,,,,,,,,,,,,,,,405.8787685,None,405.8787685,None,405.8787685,None,1,0.745914262,405.8787685,None,405.8787685,None,1,1.234444475,406.1790655,None,405.8787685,None,1,1.639025694,406.679184,None,405.8787685,None,space,0.102137595,1.666634001,None,405.8787685,None,405.8787685,None,,,,,,,,,Jack Whitcomb-2nd,1,2022_Apr_07_1050,SAR-soap,2021.1.2,60.1561336Trial # 126,Group1-stimuli/group1-block1/real-group1-b1/Group1_IMG_0293.jpg,1,Group1_IMG_0293.jpg,,,,,0,125,125,125,,,,,,,,,,,,,,,,,,,,,,,,,,,,,,,,,,,,,407.7130631,None,407.7130631,None,407.7130631,None,1,0.848358423,407.7130631,None,407.7130631,None,1,1.203586918,408.1124968,None,407.7130631,None,1,1.576332225,408.4789845,None,407.7130631,None,space,0.199097287,1.606607118,None,407.7130631,None,407.7130631,None,,,,,,,,,Jack Whitcomb-2nd,1,2022_Apr_07_1050,SAR-soap,2021.1.2,60.1561336Trial # 127,Group1-stimuli/group1-block1/fake-group2-b1/encoded_Group2_IMG_0321.jpg,0,encoded_Group2_IMG_0321.jpg,,,,,0,126,126,126,,,,,,,,,,,,,,,,,,,,,,,,,,,,,,,,,,,,,409.5463315,None,409.5463315,None,409.5463315,None,2,0.834951125,409.5463315,None,409.5463315,None,1,1.526348194,409.9300172,None,409.5463315,None,1,1.865531138,410.6304672,None,409.5463315,None,space,0.176952876,1.897936842,None,409.5463315,None,409.5463315,None,,,,,,,,,Jack Whitcomb-2nd,1,2022_Apr_07_1050,SAR-soap,2021.1.2,60.1561336Trial # 128,Group1-stimuli/group1-block1/fake-group2-b1/encoded_Group2_IMG_0400.jpg,0,encoded_Group2_IMG_0400.jpg,,,,,0,127,127,127,,,,,,,,,,,,,,,,,,,,,,,,,,,,,,,,,,,,,411.6471849,None,411.6471849,None,411.6471849,None,3,0.71187171,411.6471849,None,411.6471849,None,2,1.350497294,411.9147383,None,411.6471849,None,2,1.722823115,412.5640837,None,411.6471849,None,space,0.226507434,1.748831691,None,411.6471849,None,411.6471849,None,,,,,,,,,Jack Whitcomb-2nd,1,2022_Apr_07_1050,SAR-soap,2021.1.2,60.1561336Trial # 129,Group1-stimuli/group1-block1/fake-group2-b1/encoded_Group2_IMG_0443.jpg,0,encoded_Group2_IMG_0443.jpg,,,,,0,128,128,128,,,,,,,,,,,,,,,,,,,,,,,,,,,,,,,,,,,,,413.6647285,None,413.6647285,None,413.6647285,None,4,0.704961049,413.6647285,None,413.6647285,None,3,1.059391323,413.9145661,None,413.6647285,None,2,1.732057485,414.2817173,None,413.6647285,None,space,0.161682401,1.751805746,None,413.6647285,None,413.6647285,None,,,,,,,,,Jack Whitcomb-2nd,1,2022_Apr_07_1050,SAR-soap,2021.1.2,60.1561336Trial # 130,Group1-stimuli/group1-block1/fake-group2-b1/encoded_Group2_IMG_0542.jpg,0,encoded_Group2_IMG_0542.jpg,,,,,0,129,129,129,,,,,,,,,,,,,,,,,,,,,,,,,,,,,,,,,,,,,415.5987229,None,415.5987229,None,415.5987229,None,1,0.66240199,415.5987229,None,415.5987229,None,1,1.251877011,415.8160512,None,415.5987229,None,1,1.656784742,416.4151831,None,415.5987229,None,space,0.141807021,1.68338303,None,415.5987229,None,415.5987229,None,,,,,,,,,Jack Whitcomb-2nd,1,2022_Apr_07_1050,SAR-soap,2021.1.2,60.1561336Trial # 131,Group1-stimuli/group1-block1/real-group1-b1/Group1_IMG_0885.jpg,1,Group1_IMG_0885.jpg,,,,,0,130,130,130,,,,,,,,,,,,,,,,,,,,,,,,,,,,,,,,,,,,,417.5328198,None,417.5328198,None,417.5328198,None,5,0.903105364,417.5328198,None,417.5328198,None,3,1.724854813,417.9836531,None,417.5328198,None,5,2.130913641,418.8165391,None,417.5328198,None,space,0.173732349,2.165097707,None,417.5328198,None,417.5328198,None,,,,,,,,,Jack Whitcomb-2nd,1,2022_Apr_07_1050,SAR-soap,2021.1.2,60.1561336Trial # 132,Group1-stimuli/group1-block1/real-group1-b1/Group1_IMG_0375.jpg,1,Group1_IMG_0375.jpg,,,,,0,131,131,131,,,,,,,,,,,,,,,,,,,,,,,,,,,,,,,,,,,,,419.91587,None,419.91587,None,419.91587,None,1,0.893493488,419.91587,None,419.91587,None,1,1.516324413,420.3512279,None,419.91587,None,1,1.986365473,420.983301,None,419.91587,None,space,0.195258485,2.010720746,None,419.91587,None,419.91587,None,,,,,,,,,Jack Whitcomb-2nd,1,2022_Apr_07_1050,SAR-soap,2021.1.2,60.1561336Trial # 133,Group1-stimuli/group1-block1/fake-group2-b1/encoded_Group2_IMG_7351.jpg,0,encoded_Group2_IMG_7351.jpg,,,,,0,132,132,132,,,,,,,,,,,,,,,,,,,,,,,,,,,,,,,,,,,,,422.1338775,None,422.1338775,None,422.1338775,None,3,0.711626027,422.1338775,None,422.1338775,None,1,1.067877461,422.4009702,None,422.1338775,None,4,1.738369502,422.7672469,None,422.1338775,None,space,0.052087791,1.764767314,None,422.1338775,None,422.1338775,None,,,,,,,,,Jack Whitcomb-2nd,1,2022_Apr_07_1050,SAR-soap,2021.1.2,60.1561336Trial # 134,Group1-stimuli/group1-block1/fake-group2-b1/encoded_Group2_IMG_0416.jpg,0,encoded_Group2_IMG_0416.jpg,,,,,0,133,133,133,,,,,,,,,,,,,,,,,,,,,,,,,,,,,,,,,,,,,424.0005316,None,424.0005316,None,424.0005316,None,3,1.098804346,424.0005316,None,424.0005316,None,2,1.554708527,424.6513441,None,424.0005316,None,1,1.893891653,425.1191271,None,424.0005316,None,space,0.105753573,1.923393008,None,424.0005316,None,424.0005316,None,,,,,,,,,Jack Whitcomb-2nd,1,2022_Apr_07_1050,SAR-soap,2021.1.2,60.1561336Trial # 135,Group1-stimuli/group1-block1/fake-group2-b1/encoded_Group2_IMG_0139.jpg,0,encoded_Group2_IMG_0139.jpg,,,,,0,134,134,134,,,,,,,,,,,,,,,,,,,,,,,,,,,,,,,,,,,,,426.085462,None,426.085462,None,426.085462,None,1,0.811668097,426.085462,None,426.085462,None,1,1.13314307,426.4361733,None,426.085462,None,1,1.505105194,426.7689221,None,426.085462,None,space,0.142642986,1.530975187,None,426.085462,None,426.085462,None,,,,,,,,,Jack Whitcomb-2nd,1,2022_Apr_07_1050,SAR-soap,2021.1.2,60.1561336Trial # 136,Group1-stimuli/group1-block1/real-group1-b1/Group1_IMG_9677.jpg,1,Group1_IMG_9677.jpg,,,,,0,135,135,135,,,,,,,,,,,,,,,,,,,,,,,,,,,,,,,,,,,,,427.8026347,None,427.8026347,None,427.8026347,None,1,0.775195634,427.8026347,None,427.8026347,None,1,1.097812558,428.1192275,None,427.8026347,None,1,1.569599829,428.452772,None,427.8026347,None,space,0.214359807,1.59370964,None,427.8026347,None,427.8026347,None,,,,,,,,,Jack Whitcomb-2nd,1,2022_Apr_07_1050,SAR-soap,2021.1.2,60.1561336Trial # 137,Group1-stimuli/group1-block1/fake-group2-b1/encoded_Group2_IMG_5982.jpg,0,encoded_Group2_IMG_5982.jpg,,,,,0,136,136,136,,,,,,,,,,,,,,,,,,,,,,,,,,,,,,,,,,,,,429.6356498,None,429.6356498,None,429.6356498,None,1,0.746131117,429.6356498,None,429.6356498,None,1,1.468978976,429.9366439,None,429.6356498,None,1,1.908132125,430.6707099,None,429.6356498,None,space,1.334651114,1.934697693,None,429.6356498,None,429.6356498,None,,,,,,,,,Jack Whitcomb-2nd,1,2022_Apr_07_1050,SAR-soap,2021.1.2,60.1561336Trial # 138,Group1-stimuli/group1-block1/fake-group2-b1/encoded_Group2_IMG_1144.jpg,0,encoded_Group2_IMG_1144.jpg,,,,,0,137,137,137,,,,,,,,,,,,,,,,,,,,,,,,,,,,,,,,,,,,,432.9542583,None,432.9542583,None,432.9542583,None,4,1.36285914,432.9542583,None,432.9542583,None,2,1.850956367,433.8711369,None,432.9542583,None,3,2.724848538,434.3713057,None,432.9542583,None,space,0.342762073,2.752825862,None,432.9542583,None,432.9542583,None,,,,,,,,,Jack Whitcomb-2nd,1,2022_Apr_07_1050,SAR-soap,2021.1.2,60.1561336Trial # 139,Group1-stimuli/group1-block1/fake-group2-b1/encoded_Group2_IMG_0315.jpg,0,encoded_Group2_IMG_0315.jpg,,,,,0,138,138,138,,,,,,,,,,,,,,,,,,,,,,,,,,,,,,,,,,,,,436.0886554,None,436.0886554,None,436.0886554,None,1,0.811370145,436.0886554,None,436.0886554,None,1,1.53450536,436.4561344,None,436.0886554,None,1,2.071335222,437.1888357,None,436.0886554,None,space,0.099261056,2.099086078,None,436.0886554,None,436.0886554,None,,,,,,,,,Jack Whitcomb-2nd,1,2022_Apr_07_1050,SAR-soap,2021.1.2,60.1561336Trial # 140,Group1-stimuli/group1-block1/real-group1-b1/Group1_IMG_130.jpg,1,Group1_IMG_130.jpg,,,,,0,139,139,139,,,,,,,,,,,,,,,,,,,,,,,,,,,,,,,,,,,,,438.338646,None,438.338646,None,438.338646,None,4,0.844943618,438.338646,None,438.338646,None,4,1.467325804,438.7228,None,438.338646,None,2,2.239520777,439.3562143,None,438.338646,None,space,0.346602663,2.266579584,None,438.338646,None,438.338646,None,,,,,,,,,Jack Whitcomb-2nd,1,2022_Apr_07_1050,SAR-soap,2021.1.2,60.1561336Trial # 141,Group1-stimuli/group1-block1/real-group1-b1/Group1_IMG_0024.jpg,1,Group1_IMG_0024.jpg,,,,,0,140,140,140,,,,,,,,,,,,,,,,,,,,,,,,,,,,,,,,,,,,,440.9906395,None,440.9906395,None,440.9906395,None,3,0.890131229,440.9906395,None,440.9906395,None,1,1.280329158,441.4237951,None,440.9906395,None,3,1.686299026,441.8232543,None,440.9906395,None,space,0.150546257,1.706436992,None,440.9906395,None,440.9906395,None,,,,,,,,,Jack Whitcomb-2nd,1,2022_Apr_07_1050,SAR-soap,2021.1.2,60.1561336Trial # 142,Group1-stimuli/group1-block1/fake-group2-b1/encoded_Group2_IMG_5012.jpg,0,encoded_Group2_IMG_5012.jpg,,,,,0,141,141,141,,,,,,,,,,,,,,,,,,,,,,,,,,,,,,,,,,,,,442.8904578,None,442.8904578,None,442.8904578,None,2,0.76639015,442.8904578,None,442.8904578,None,1,1.121931102,443.206909,None,442.8904578,None,2,1.69380215,443.5742437,None,442.8904578,None,space,0.145689101,1.725783054,None,442.8904578,None,442.8904578,None,,,,,,,,,Jack Whitcomb-2nd,1,2022_Apr_07_1050,SAR-soap,2021.1.2,60.1561336Trial # 143,Group1-stimuli/group1-block1/fake-group2-b1/encoded_Group2_IMG_0209.jpg,0,encoded_Group2_IMG_0209.jpg,,,,,0,142,142,142,,,,,,,,,,,,,,,,,,,,,,,,,,,,,,,,,,,,,444.7910081,None,444.7910081,None,444.7910081,None,1,0.847232564,444.7910081,None,444.7910081,None,1,1.236416093,445.1923036,None,444.7910081,None,1,1.57541855,445.5913835,None,444.7910081,None,space,0.112238727,1.601914146,None,444.7910081,None,444.7910081,None,,,,,,,,,Jack Whitcomb-2nd,1,2022_Apr_07_1050,SAR-soap,2021.1.2,60.1561336Trial # 144,Group1-stimuli/group1-block1/real-group1-b1/Group1_IMG_0373.jpg,1,Group1_IMG_0373.jpg,,,,,0,143,143,143,,,,,,,,,,,,,,,,,,,,,,,,,,,,,,,,,,,,,446.558731,None,446.558731,None,446.558731,None,1,1.179286768,446.558731,None,446.558731,None,1,1.535288942,447.2924595,None,446.558731,None,1,1.873079397,447.6591344,None,446.558731,None,space,0.158027232,1.899106064,None,446.558731,None,446.558731,None,,,,,,,,,Jack Whitcomb-2nd,1,2022_Apr_07_1050,SAR-soap,2021.1.2,60.1561336Trial # 145,Group1-stimuli/group1-block1/real-group1-b1/Group1_IMG_5899.jpg,1,Group1_IMG_5899.jpg,,,,,0,144,144,144,,,,,,,,,,,,,,,,,,,,,,,,,,,,,,,,,,,,,448.6588022,None,448.6588022,None,448.6588022,None,1,1.100341565,448.6588022,None,448.6588022,None,1,1.488892093,449.3087384,None,448.6588022,None,1,1.829163861,449.7089872,None,448.6588022,None,space,0.148124342,1.859200671,None,448.6588022,None,448.6588022,None,,,,,,,,,Jack Whitcomb-2nd,1,2022_Apr_07_1050,SAR-soap,2021.1.2,60.1561336Trial # 146,Group1-stimuli/group1-block1/real-group1-b1/Group1_IMG_0162.jpg,1,Group1_IMG_0162.jpg,,,,,0,145,145,145,,,,,,,,,,,,,,,,,,,,,,,,,,,,,,,,,,,,,450.7100404,None,450.7100404,None,450.7100404,None,4,0.731102095,450.7100404,None,450.7100404,None,3,1.620904408,450.9942582,None,450.7100404,None,3,2.226506183,451.8928597,None,450.7100404,None,space,0.224205488,2.255199329,None,450.7100404,None,450.7100404,None,,,,,,,,,Jack Whitcomb-2nd,1,2022_Apr_07_1050,SAR-soap,2021.1.2,60.1561336Trial # 147,Group1-stimuli/group1-block1/real-group1-b1/Group1_IMG_0543.jpg,1,Group1_IMG_0543.jpg,,,,,0,146,146,146,,,,,,,,,,,,,,,,,,,,,,,,,,,,,,,,,,,,,453.227136,None,453.227136,None,453.227136,None,1,1.232921038,453.227136,None,453.227136,None,1,1.656146703,454.0102405,None,453.227136,None,1,2.027819292,454.4438179,None,453.227136,None,space,0.147630514,2.059392349,None,453.227136,None,453.227136,None,,,,,,,,,Jack Whitcomb-2nd,1,2022_Apr_07_1050,SAR-soap,2021.1.2,60.1561336Trial # 148,Group1-stimuli/group1-block1/fake-group2-b1/encoded_Group2_IMG_0355.jpg,0,encoded_Group2_IMG_0355.jpg,,,,,0,147,147,147,,,,,,,,,,,,,,,,,,,,,,,,,,,,,,,,,,,,,455.4614553,None,455.4614553,None,455.4614553,None,1,0.680650847,455.4614553,None,455.4614553,None,1,1.070540141,455.6955283,None,455.4614553,None,2,1.408475049,456.0945019,None,455.4614553,None,space,0.097045369,1.435540066,None,455.4614553,None,455.4614553,None,,,,,,,,,Jack Whitcomb-2nd,1,2022_Apr_07_1050,SAR-soap,2021.1.2,60.1561336Trial # 149,Group1-stimuli/group1-block1/real-group1-b1/Group1_IMG_9765.jpg,1,Group1_IMG_9765.jpg,,,,,0,148,148,148,,,,,,,,,,,,,,,,,,,,,,,,,,,,,,,,,,,,,457.0454948,None,457.0454948,None,457.0454948,None,3,0.794200942,457.0454948,None,457.0454948,None,4,1.149873703,457.37816,None,457.0454948,None,2,1.954559353,457.7444522,None,457.0454948,None,space,-0.314808169,1.980461071,None,457.0454948,None,457.0454948,None,,,,,,,,,Jack Whitcomb-2nd,1,2022_Apr_07_1050,SAR-soap,2021.1.2,60.1561336Trial # 150,Group1-stimuli/group1-block1/fake-group2-b1/encoded_Group2_IMG_1378.jpg,0,encoded_Group2_IMG_1378.jpg,,,,,0,149,149,149,,,,,,,,,,,,,,,,,,,,,,,,,,,,,,,,,,,,,459.0282378,None,459.0282378,None,459.0282378,None,4,1.113669188,459.0282378,None,459.0282378,None,3,2.070627777,459.6951244,None,459.0282378,None,2,2.742091212,460.6629975,None,459.0282378,None,space,-2.724555254,2.770450016,None,459.0282378,None,459.0282378,None,,,,,,,,,Jack Whitcomb-2nd,1,2022_Apr_07_1050,SAR-soap,2021.1.2,60.1561336Trial # 1,Group1-stimuli/group1-block2/fake-group2-b2/encoded_Group2_IMG_0155.jpg,0,encoded_Group2_IMG_0155.jpg,,,,,,,,,0,0,0,0,,,,,,,,,,,,,,,,,,,,,,,,,,,,,,,,,839.6637064,None,839.6637064,None,839.6637064,None,3,43.94287246,839.6637064,None,839.6637064,None,2,45.86594785,883.159946,None,839.6637064,None,3,48.40490741,885.093707,None,839.6637064,None,space,1.602289613,48.43741986,None,839.6637064,None,839.6637064,None,825.0794525,None,825.0794525,None,825.0794525,None,461.3132093,None,Jack Whitcomb-2nd,1,2022_Apr_07_1050,SAR-soap,2021.1.2,60.1561336Trial # 2,Group1-stimuli/group1-block2/real-group1-b2/Group1_IMG_0519.jpg,1,Group1_IMG_0519.jpg,,,,,,,,,0,1,1,1,,,,,,,,,,,,,,,,,,,,,,,,,,,,,,,,,889.7783287,None,889.7783287,None,889.7783287,None,2,3.10901211,889.7783287,None,889.7783287,None,2,5.031754282,892.4310076,None,889.7783287,None,4,7.13940274,894.3632845,None,889.7783287,None,space,1.393587073,6.261019402,None,889.7783287,None,889.7783287,None,,,,,,,,,Jack Whitcomb-2nd,1,2022_Apr_07_1050,SAR-soap,2021.1.2,60.1561336Trial # 3,Group1-stimuli/group1-block2/fake-group2-b2/encoded_Group2_IMG_0135.jpg,0,encoded_Group2_IMG_0135.jpg,,,,,,,,,0,2,2,2,,,,,,,,,,,,,,,,,,,,,,,,,,,,,,,,,897.4645793,None,897.4645793,None,897.4645793,None,1,2.8489988,897.4645793,None,897.4645793,None,1,3.806256557,899.8648987,None,897.4645793,None,1,4.912162597,900.832367,None,897.4645793,None,space,0.680538422,4.943052044,None,897.4645793,None,897.4645793,None,,,,,,,,,Jack Whitcomb-2nd,1,2022_Apr_07_1050,SAR-soap,2021.1.2,60.1561336Trial # 4,Group1-stimuli/group1-block2/real-group1-b2/Group1_IMG_5310.jpg,1,Group1_IMG_5310.jpg,,,,,,,,,0,3,3,3,,,,,,,,,,,,,,,,,,,,,,,,,,,,,,,,,903.1321845,None,903.1321845,None,903.1321845,None,3,4.733432773,903.1321845,None,903.1321845,None,2,9.723765014,907.4184613,None,903.1321845,None,4,10.63001856,909.885222,None,903.1321845,None,space,0.623005758,10.65934376,None,903.1321845,None,903.1321845,None,,,,,,,,,Jack Whitcomb-2nd,1,2022_Apr_07_1050,SAR-soap,2021.1.2,60.1561336Trial # 5,Group1-stimuli/group1-block2/real-group1-b2/Group1_IMG_0522.jpg,1,Group1_IMG_0522.jpg,,,,,,,,,0,4,4,4,,,,,,,,,,,,,,,,,,,,,,,,,,,,,,,,,914.4529699,None,914.4529699,None,914.4529699,None,3,4.264032819,914.4529699,None,914.4529699,None,2,5.920227039,918.2714384,None,914.4529699,None,3,8.194088746,919.9379602,None,914.4529699,None,space,0.608280284,7.821097584,None,914.4529699,None,914.4529699,None,,,,,,,,,Jack Whitcomb-2nd,1,2022_Apr_07_1050,SAR-soap,2021.1.2,60.1561336Trial # 6,Group1-stimuli/group1-block2/fake-group2-b2/encoded_Group2_IMG_0484.jpg,0,encoded_Group2_IMG_0484.jpg,,,,,,,,,0,5,5,5,,,,,,,,,,,,,,,,,,,,,,,,,,,,,,,,,922.9389177,None,922.9389177,None,922.9389177,None,1,1.964923309,922.9389177,None,922.9389177,None,1,2.52118265,924.4564061,None,922.9389177,None,1,3.061590079,925.02289,None,922.9389177,None,space,2.264857559,3.091376146,None,922.9389177,None,922.9389177,None,,,,,,,,,Jack Whitcomb-2nd,1,2022_Apr_07_1050,SAR-soap,2021.1.2,60.1561336Trial # 7,Group1-stimuli/group1-block2/fake-group2-b2/encoded_Group2_IMG_5948.jpg,0,encoded_Group2_IMG_5948.jpg,,,,,,,,,0,6,6,6,,,,,,,,,,,,,,,,,,,,,,,,,,,,,,,,,928.3065887,None,928.3065887,None,928.3065887,None,1,1.91317866,928.3065887,None,928.3065887,None,1,2.401472198,929.7751353,None,928.3065887,None,1,2.808410446,930.2735517,None,928.3065887,None,space,0.250872037,2.834430159,None,928.3065887,None,928.3065887,None,,,,,,,,,Jack Whitcomb-2nd,1,2022_Apr_07_1050,SAR-soap,2021.1.2,60.1561336Trial # 8,Group1-stimuli/group1-block2/fake-group2-b2/encoded_Group2_IMG_3591.jpg,0,encoded_Group2_IMG_3591.jpg,,,,,,,,,0,7,7,7,,,,,,,,,,,,,,,,,,,,,,,,,,,,,,,,,931.4418809,None,931.4418809,None,931.4418809,None,1,6.249443316,931.4418809,None,931.4418809,None,1,3.319897981,933.758633,None,931.4418809,None,1,3.925062313,934.3255833,None,931.4418809,None,space,2.63957966,3.955464853,None,931.4418809,None,931.4418809,None,,,,,,,,,Jack Whitcomb-2nd,1,2022_Apr_07_1050,SAR-soap,2021.1.2,60.1561336Trial # 9,Group1-stimuli/group1-block2/real-group1-b2/Group1_IMG_9835.jpg,1,Group1_IMG_9835.jpg,,,,,,,,,0,8,8,8,,,,,,,,,,,,,,,,,,,,,,,,,,,,,,,,,938.094024,None,938.094024,None,938.094024,None,1,1.652302117,938.094024,None,938.094024,None,1,2.875623446,939.2940324,None,938.094024,None,1,3.515771451,940.5286775,None,938.094024,None,space,0.340093006,3.549144931,None,938.094024,None,938.094024,None,,,,,,,,,Jack Whitcomb-2nd,1,2022_Apr_07_1050,SAR-soap,2021.1.2,60.1561336Trial # 10,Group1-stimuli/group1-block2/real-group1-b2/Group1_IMG_0556.jpg,1,Group1_IMG_0556.jpg,,,,,,,,,0,9,9,9,,,,,,,,,,,,,,,,,,,,,,,,,,,,,,,,,942.0281318,None,942.0281318,None,942.0281318,None,1,2.442615772,942.0281318,None,942.0281318,None,1,2.831924074,944.0122676,None,942.0281318,None,1,3.371232793,944.4117064,None,942.0281318,None,space,0.364687349,3.394646852,None,942.0281318,None,942.0281318,None,,,,,,,,,Jack Whitcomb-2nd,1,2022_Apr_07_1050,SAR-soap,2021.1.2,60.1561336Trial # 11,Group1-stimuli/group1-block2/fake-group2-b2/encoded_Group2_IMG_9736.jpg,0,encoded_Group2_IMG_9736.jpg,,,,,,,,,0,10,10,10,,,,,,,,,,,,,,,,,,,,,,,,,,,,,,,,,945.8123709,None,945.8123709,None,945.8123709,None,3,2.219253813,945.8123709,None,945.8123709,None,2,3.858342587,947.5805143,None,945.8123709,None,2,5.665872818,949.2302185,None,945.8123709,None,space,0.382484774,5.698183764,None,945.8123709,None,945.8123709,None,,,,,,,,,Jack Whitcomb-2nd,1,2022_Apr_07_1050,SAR-soap,2021.1.2,60.1561336Trial # 12,Group1-stimuli/group1-block2/real-group1-b2/Group1_IMG_9867.jpg,1,Group1_IMG_9867.jpg,,,,,,,,,0,11,11,11,,,,,,,,,,,,,,,,,,,,,,,,,,,,,,,,,951.9320316,None,951.9320316,None,951.9320316,None,1,1.666465926,951.9320316,None,951.9320316,None,1,2.405622034,953.1478683,None,951.9320316,None,1,2.745966334,953.8990563,None,951.9320316,None,space,0.158465391,2.776703865,None,951.9320316,None,951.9320316,None,,,,,,,,,Jack Whitcomb-2nd,1,2022_Apr_07_1050,SAR-soap,2021.1.2,60.1561336Trial # 13,Group1-stimuli/group1-block2/fake-group2-b2/encoded_Group2_IMG_9886.jpg,0,encoded_Group2_IMG_9886.jpg,,,,,,,,,0,12,12,12,,,,,,,,,,,,,,,,,,,,,,,,,,,,,,,,,954.8990312,None,954.8990312,None,954.8990312,None,1,2.126059635,954.8990312,None,954.8990312,None,1,2.581414842,956.5668999,None,954.8990312,None,1,3.054222989,957.0330661,None,954.8990312,None,space,0.786185177,3.075824084,None,954.8990312,None,954.8990312,None,,,,,,,,,Jack Whitcomb-2nd,1,2022_Apr_07_1050,SAR-soap,2021.1.2,60.1561336Trial # 14,Group1-stimuli/group1-block2/fake-group2-b2/encoded_Group2_IMG_2245.jpg,0,encoded_Group2_IMG_2245.jpg,,,,,,,,,0,13,13,13,,,,,,,,,,,,,,,,,,,,,,,,,,,,,,,,,958.7999321,None,958.7999321,None,958.7999321,None,3,2.676257555,958.7999321,None,958.7999321,None,1,4.43269638,961.018901,None,958.7999321,None,2,8.238941352,962.7853166,None,958.7999321,None,space,0.20319265,8.263876938,None,958.7999321,None,958.7999321,None,,,,,,,,,Jack Whitcomb-2nd,1,2022_Apr_07_1050,SAR-soap,2021.1.2,60.1561336Trial # 15,Group1-stimuli/group1-block2/fake-group2-b2/encoded_Group2_IMG_0507.jpg,0,encoded_Group2_IMG_0507.jpg,,,,,,,,,0,14,14,14,,,,,,,,,,,,,,,,,,,,,,,,,,,,,,,,,967.3189976,None,967.3189976,None,967.3189976,None,3,1.981930399,967.3189976,None,967.3189976,None,1,4.205692576,968.8527208,None,967.3189976,None,2,6.678907756,971.0873851,None,967.3189976,None,space,0.219567307,6.70792863,None,967.3189976,None,967.3189976,None,,,,,,,,,Jack Whitcomb-2nd,1,2022_Apr_07_1050,SAR-soap,2021.1.2,60.1561336Trial # 16,Group1-stimuli/group1-block2/fake-group2-b2/encoded_Group2_IMG_0338.jpg,0,encoded_Group2_IMG_0338.jpg,,,,,,,,,0,15,15,15,,,,,,,,,,,,,,,,,,,,,,,,,,,,,,,,,974.2879177,None,974.2879177,None,974.2879177,None,1,1.962494698,974.2879177,None,974.2879177,None,1,5.201502174,975.7901175,None,974.2879177,None,1,7.174634837,979.0394597,None,974.2879177,None,space,0.230142114,7.200757885,None,974.2879177,None,974.2879177,None,,,,,,,,,Jack Whitcomb-2nd,1,2022_Apr_07_1050,SAR-soap,2021.1.2,60.1561336Trial # 17,Group1-stimuli/group1-block2/real-group1-b2/Group1_IMG_0376.jpg,1,Group1_IMG_0376.jpg,,,,,,,,,0,16,16,16,,,,,,,,,,,,,,,,,,,,,,,,,,,,,,,,,981.7571109,None,981.7571109,None,981.7571109,None,1,2.094017046,981.7571109,None,981.7571109,None,1,2.983621649,983.3921039,None,981.7571109,None,1,3.621900663,984.2905741,None,981.7571109,None,space,0.281143356,3.645289795,None,981.7571109,None,981.7571109,None,,,,,,,,,Jack Whitcomb-2nd,1,2022_Apr_07_1050,SAR-soap,2021.1.2,60.1561336Trial # 18,Group1-stimuli/group1-block2/real-group1-b2/Group1_IMG_9821.jpg,1,Group1_IMG_9821.jpg,,,,,,,,,0,17,17,17,,,,,,,,,,,,,,,,,,,,,,,,,,,,,,,,,985.7413522,None,985.7413522,None,985.7413522,None,1,1.644728918,985.7413522,None,985.7413522,None,1,2.233631608,986.9268771,None,985.7413522,None,1,2.804847653,987.5250196,None,985.7413522,None,space,0.465954266,2.830074605,None,985.7413522,None,985.7413522,None,,,,,,,,,Jack Whitcomb-2nd,1,2022_Apr_07_1050,SAR-soap,2021.1.2,60.1561336Trial # 19,Group1-stimuli/group1-block2/fake-group2-b2/encoded_Group2_IMG_0388.jpg,0,encoded_Group2_IMG_0388.jpg,,,,,,,,,0,18,18,18,,,,,,,,,,,,,,,,,,,,,,,,,,,,,,,,,989.0588567,None,989.0588567,None,989.0588567,None,3,2.667347331,989.0588567,None,989.0588567,None,2,6.690204832,991.2783181,None,989.0588567,None,2,10.86268772,995.3114286,None,989.0588567,None,space,0.102221824,10.89472961,None,989.0588567,None,989.0588567,None,,,,,,,,,Jack Whitcomb-2nd,1,2022_Apr_07_1050,SAR-soap,2021.1.2,60.1561336Trial # 20,Group1-stimuli/group1-block2/fake-group2-b2/encoded_Group2_IMG_0222.jpg,0,encoded_Group2_IMG_0222.jpg,,,,,,,,,0,19,19,19,,,,,,,,,,,,,,,,,,,,,,,,,,,,,,,,,1000.128907,None,1000.128907,None,1000.128907,None,4,3.844696008,1000.128907,None,1000.128907,None,3,5.785065388,1002.481204,None,1000.128907,None,2,8.956373639,1005.4645,None,1000.128907,None,space,0.422274363,8.981701952,None,1000.128907,None,1000.128907,None,,,,,,,,,Jack Whitcomb-2nd,1,2022_Apr_07_1050,SAR-soap,2021.1.2,60.1561336Trial # 21,Group1-stimuli/group1-block2/fake-group2-b2/encoded_Group2_IMG_2215.jpg,0,encoded_Group2_IMG_2215.jpg,,,,,,,,,0,20,20,20,,,,,,,,,,,,,,,,,,,,,,,,,,,,,,,,,1009.565823,None,1009.565823,None,1009.565823,None,1,1.944385532,1009.565823,None,1009.565823,None,1,2.366759929,1011.0497,None,1009.565823,None,2,3.438444853,1011.483901,None,1009.565823,None,space,0.862863472,2.894952304,None,1009.565823,None,1009.565823,None,,,,,,,,,Jack Whitcomb-2nd,1,2022_Apr_07_1050,SAR-soap,2021.1.2,60.1561336Trial # 22,Group1-stimuli/group1-block2/real-group1-b2/Group1_IMG_9760.jpg,1,Group1_IMG_9760.jpg,,,,,,,,,0,21,21,21,,,,,,,,,,,,,,,,,,,,,,,,,,,,,,,,,1013.350477,None,1013.350477,None,1013.350477,None,3,2.152074803,1013.350477,None,1013.350477,None,3,5.641327104,1015.050536,None,1013.350477,None,2,7.514373521,1018.552088,None,1013.350477,None,space,0.155532413,7.547404023,None,1013.350477,None,1013.350477,None,,,,,,,,,Jack Whitcomb-2nd,1,2022_Apr_07_1050,SAR-soap,2021.1.2,60.1561336Trial # 23,Group1-stimuli/group1-block2/real-group1-b2/Group1_IMG_9897.jpg,1,Group1_IMG_9897.jpg,,,,,,,,,0,22,22,22,,,,,,,,,,,,,,,,,,,,,,,,,,,,,,,,,1021.086022,None,1021.086022,None,1021.086022,None,1,1.962827526,1021.086022,None,1021.086022,None,1,3.73494276,1022.603121,None,1021.086022,None,2,10.30916939,1024.387104,None,1021.086022,None,space,2.730880702,8.935207484,None,1021.086022,None,1021.086022,None,,,,,,,,,Jack Whitcomb-2nd,1,2022_Apr_07_1050,SAR-soap,2021.1.2,60.1561336Trial # 24,Group1-stimuli/group1-block2/real-group1-b2/Group1_IMG_4250.jpg,1,Group1_IMG_4250.jpg,,,,,,,,,0,23,23,23,,,,,,,,,,,,,,,,,,,,,,,,,,,,,,,,,1032.790016,None,1032.790016,None,1032.790016,None,4,3.029790336,1032.790016,None,1032.790016,None,4,4.803498522,1035.372608,None,1032.790016,None,1,12.17725115,1037.157392,None,1032.790016,None,space,5.801164579,7.203987603,None,1032.790016,None,1032.790016,None,,,,,,,,,Jack Whitcomb-2nd,1,2022_Apr_07_1050,SAR-soap,2021.1.2,60.1561336Trial # 25,Group1-stimuli/group1-block2/real-group1-b2/Group1_IMG_2244.jpg,1,Group1_IMG_2244.jpg,,,,,,,,,0,24,24,24,,,,,,,,,,,,,,,,,,,,,,,,,,,,,,,,,1045.843489,None,1045.843489,None,1045.843489,None,3,3.521603675,1045.843489,None,1045.843489,None,2,4.627387373,1048.343882,None,1045.843489,None,2,5.932740794,1050.044831,None,1045.843489,None,space,0.132351248,5.969015464,None,1045.843489,None,1045.843489,None,,,,,,,,,Jack Whitcomb-2nd,1,2022_Apr_07_1050,SAR-soap,2021.1.2,60.1561336Trial # 26,Group1-stimuli/group1-block2/fake-group2-b2/encoded_Group2_IMG_0501.jpg,0,encoded_Group2_IMG_0501.jpg,,,,,,,,,0,25,25,25,,,,,,,,,,,,,,,,,,,,,,,,,,,,,,,,,1051.978515,None,1051.978515,None,1051.978515,None,2,4.310252991,1051.978515,None,1051.978515,None,2,5.966272885,1055.830284,None,1051.978515,None,2,8.338300577,1057.49809,None,1051.978515,None,space,0.173663235,8.361382797,None,1051.978515,None,1051.978515,None,,,,,,,,,Jack Whitcomb-2nd,1,2022_Apr_07_1050,SAR-soap,2021.1.2,60.1561336Trial # 27,Group1-stimuli/group1-block2/real-group1-b2/Group1_IMG_9684.jpg,1,Group1_IMG_9684.jpg,,,,,,,,,0,26,26,26,,,,,,,,,,,,,,,,,,,,,,,,,,,,,,,,,1060.564931,None,1060.564931,None,1060.564931,None,1,1.710792937,1060.564931,None,1060.564931,None,1,2.365177045,1061.815183,None,1060.564931,None,1,3.037337511,1062.4821,None,1060.564931,None,space,0.241348817,3.061198996,None,1060.564931,None,1060.564931,None,,,,,,,,,Jack Whitcomb-2nd,1,2022_Apr_07_1050,SAR-soap,2021.1.2,60.1561336Trial # 28,Group1-stimuli/group1-block2/real-group1-b2/Group1_IMG_1039.jpg,1,Group1_IMG_1039.jpg,,,,,,,,,0,27,27,27,,,,,,,,,,,,,,,,,,,,,,,,,,,,,,,,,1063.932817,None,1063.932817,None,1063.932817,None,3,3.444016844,1063.932817,None,1063.932817,None,2,5.597885811,1066.534585,None,1063.932817,None,4,6.938225932,1069.083934,None,1063.932817,None,space,1.052740055,6.959203645,None,1063.932817,None,1063.932817,None,,,,,,,,,Jack Whitcomb-2nd,1,2022_Apr_07_1050,SAR-soap,2021.1.2,60.1561336Trial # 29,Group1-stimuli/group1-block2/fake-group2-b2/encoded_Group2_IMG_0251.jpg,0,encoded_Group2_IMG_0251.jpg,,,,,,,,,0,28,28,28,,,,,,,,,,,,,,,,,,,,,,,,,,,,,,,,,1071.968848,None,1071.968848,None,1071.968848,None,1,4.414368633,1071.968848,None,1071.968848,None,1,4.803779334,1075.936897,None,1071.968848,None,1,5.443545239,1076.336761,None,1071.968848,None,space,0.355826195,5.470121557,None,1071.968848,None,1071.968848,None,,,,,,,,,Jack Whitcomb-2nd,1,2022_Apr_07_1050,SAR-soap,2021.1.2,60.1561336Trial # 30,Group1-stimuli/group1-block2/real-group1-b2/Group1_IMG_9692.jpg,1,Group1_IMG_9692.jpg,,,,,,,,,0,29,29,29,,,,,,,,,,,,,,,,,,,,,,,,,,,,,,,,,1077.836627,None,1077.836627,None,1077.836627,None,1,2.243310187,1077.836627,None,1077.836627,None,1,2.766887369,1079.620447,None,1077.836627,None,1,3.338951238,1080.154416,None,1077.836627,None,space,0.540326163,3.362952696,None,1077.836627,None,1077.836627,None,,,,,,,,,Jack Whitcomb-2nd,1,2022_Apr_07_1050,SAR-soap,2021.1.2,60.1561336Trial # 31,Group1-stimuli/group1-block2/real-group1-b2/Group1_IMG_0512.jpg,1,Group1_IMG_0512.jpg,,,,,,,,,0,30,30,30,,,,,,,,,,,,,,,,,,,,,,,,,,,,,,,,,1081.789081,None,1081.789081,None,1081.789081,None,3,2.793579627,1081.789081,None,1081.789081,None,1,13.21920778,1084.121685,None,1081.789081,None,3,15.2931031,1091.424295,None,1081.789081,None,space,1.583413099,14.61747037,None,1081.789081,None,1081.789081,None,,,,,,,,,Jack Whitcomb-2nd,1,2022_Apr_07_1050,SAR-soap,2021.1.2,60.1561336Trial # 32,Group1-stimuli/group1-block2/fake-group2-b2/encoded_Group2_IMG_9673.jpg,0,encoded_Group2_IMG_9673.jpg,,,,,,,,,0,31,31,31,,,,,,,,,,,,,,,,,,,,,,,,,,,,,,,,,1098.026076,None,1098.026076,None,1098.026076,None,1,1.849666737,1098.026076,None,1098.026076,None,1,2.239102508,1099.427252,None,1098.026076,None,1,2.644401278,1099.827142,None,1098.026076,None,space,0.570737427,2.67550281,None,1098.026076,None,1098.026076,None,,,,,,,,,Jack Whitcomb-2nd,1,2022_Apr_07_1050,SAR-soap,2021.1.2,60.1561336Trial # 33,Group1-stimuli/group1-block2/fake-group2-b2/encoded_Group2_IMG_5135.jpg,0,encoded_Group2_IMG_5135.jpg,,,,,,,,,0,32,32,32,,,,,,,,,,,,,,,,,,,,,,,,,,,,,,,,,1101.328283,None,1101.328283,None,1101.328283,None,2,11.77564227,1101.328283,None,1101.328283,None,2,12.74798995,1104.094962,None,1101.328283,None,3,14.58749164,1113.631805,None,1101.328283,None,space,1.427401246,14.60880723,None,1101.328283,None,1101.328283,None,,,,,,,,,Jack Whitcomb-2nd,1,2022_Apr_07_1050,SAR-soap,2021.1.2,60.1561336Trial # 34,Group1-stimuli/group1-block2/real-group1-b2/Group1_IMG_0396.jpg,1,Group1_IMG_0396.jpg,,,,,,,,,0,33,33,33,,,,,,,,,,,,,,,,,,,,,,,,,,,,,,,,,1117.416453,None,1117.416453,None,1117.416453,None,3,8.090568852,1117.416453,None,1117.416453,None,2,9.213876999,1125.051425,None,1117.416453,None,1,11.28483182,1126.185312,None,1117.416453,None,space,0.98105602,10.60607797,None,1117.416453,None,1117.416453,None,,,,,,,,,Jack Whitcomb-2nd,1,2022_Apr_07_1050,SAR-soap,2021.1.2,60.1561336Trial # 35,Group1-stimuli/group1-block2/real-group1-b2/Group1_IMG_4919.jpg,1,Group1_IMG_4919.jpg,,,,,,,,,0,34,34,34,,,,,,,,,,,,,,,,,,,,,,,,,,,,,,,,,1129.052721,None,1129.052721,None,1129.052721,None,2,3.33020152,1129.052721,None,1129.052721,None,2,4.553059533,1131.9372,None,1129.052721,None,1,4.958088195,1133.170542,None,1129.052721,None,space,1.155911526,4.986235346,None,1129.052721,None,1129.052721,None,,,,,,,,,Jack Whitcomb-2nd,1,2022_Apr_07_1050,SAR-soap,2021.1.2,60.1561336Trial # 36,Group1-stimuli/group1-block2/real-group1-b2/Group1_IMG_0449.jpg,1,Group1_IMG_0449.jpg,,,,,,,,,0,35,35,35,,,,,,,,,,,,,,,,,,,,,,,,,,,,,,,,,1135.253996,None,1135.253996,None,1135.253996,None,3,3.662226346,1135.253996,None,1135.253996,None,2,4.617893528,1138.455213,None,1135.253996,None,1,5.524024705,1139.423194,None,1135.253996,None,space,1.171476633,5.549072267,None,1135.253996,None,1135.253996,None,,,,,,,,,Jack Whitcomb-2nd,1,2022_Apr_07_1050,SAR-soap,2021.1.2,60.1561336Trial # 37,Group1-stimuli/group1-block2/fake-group2-b2/encoded_Group2_IMG_0539.jpg,0,encoded_Group2_IMG_0539.jpg,,,,,,,,,0,36,36,36,,,,,,,,,,,,,,,,,,,,,,,,,,,,,,,,,1142.00716,None,1142.00716,None,1142.00716,None,1,2.17973145,1142.00716,None,1142.00716,None,1,2.535327349,1143.740645,None,1142.00716,None,1,2.940233706,1144.106692,None,1142.00716,None,space,0.434861471,2.968122928,None,1142.00716,None,1142.00716,None,,,,,,,,,Jack Whitcomb-2nd,1,2022_Apr_07_1050,SAR-soap,2021.1.2,60.1561336Trial # 38,Group1-stimuli/group1-block2/real-group1-b2/Group1_IMG_0453.jpg,1,Group1_IMG_0453.jpg,,,,,,,,,0,37,37,37,,,,,,,,,,,,,,,,,,,,,,,,,,,,,,,,,1145.474252,None,1145.474252,None,1145.474252,None,3,2.278957804,1145.474252,None,1145.474252,None,2,4.168864671,1147.293141,None,1145.474252,None,1,19.24353898,1149.191923,None,1145.474252,None,space,0.198724438,19.26948632,None,1145.474252,None,1145.474252,None,,,,,,,,,Jack Whitcomb-2nd,1,2022_Apr_07_1050,SAR-soap,2021.1.2,60.1561336Trial # 39,Group1-stimuli/group1-block2/fake-group2-b2/encoded_Group2_IMG_0318.jpg,0,encoded_Group2_IMG_0318.jpg,,,,,,,,,0,38,38,38,,,,,,,,,,,,,,,,,,,,,,,,,,,,,,,,,1164.980624,None,1164.980624,None,1164.980624,None,1,1.449304145,1164.980624,None,1164.980624,None,1,1.837897587,1165.981738,None,1164.980624,None,1,2.176336642,1166.381322,None,1164.980624,None,space,0.251242884,2.204256935,None,1164.980624,None,1164.980624,None,,,,,,,,,Jack Whitcomb-2nd,1,2022_Apr_07_1050,SAR-soap,2021.1.2,60.1561336Trial # 40,Group1-stimuli/group1-block2/real-group1-b2/Group1_IMG_1678.jpg,1,Group1_IMG_1678.jpg,,,,,,,,,0,39,39,39,,,,,,,,,,,,,,,,,,,,,,,,,,,,,,,,,1167.498378,None,1167.498378,None,1167.498378,None,1,1.594000698,1167.498378,None,1167.498378,None,1,1.916703157,1168.631307,None,1167.498378,None,1,2.221749684,1168.964924,None,1167.498378,None,space,0.428863188,2.2465285,None,1167.498378,None,1167.498378,None,,,,,,,,,Jack Whitcomb-2nd,1,2022_Apr_07_1050,SAR-soap,2021.1.2,60.1561336Trial # 41,Group1-stimuli/group1-block2/fake-group2-b2/encoded_Group2_IMG_0325.jpg,0,encoded_Group2_IMG_0325.jpg,,,,,,,,,0,40,40,40,,,,,,,,,,,,,,,,,,,,,,,,,,,,,,,,,1170.198777,None,1170.198777,None,1170.198777,None,1,1.806882719,1170.198777,None,1170.198777,None,1,2.262130125,1171.550449,None,1170.198777,None,1,2.600547005,1172.016607,None,1170.198777,None,space,0.240784229,2.621269702,None,1170.198777,None,1170.198777,None,,,,,,,,,Jack Whitcomb-2nd,1,2022_Apr_07_1050,SAR-soap,2021.1.2,60.1561336Trial # 42,Group1-stimuli/group1-block2/fake-group2-b2/encoded_Group2_IMG_9935.jpg,0,encoded_Group2_IMG_9935.jpg,,,,,,,,,0,41,41,41,,,,,,,,,,,,,,,,,,,,,,,,,,,,,,,,,1173.115876,None,1173.115876,None,1173.115876,None,1,1.535696429,1173.115876,None,1173.115876,None,1,1.858516881,1174.199396,None,1173.115876,None,1,2.195645681,1174.533039,None,1173.115876,None,space,0.307249689,2.230005732,None,1173.115876,None,1173.115876,None,,,,,,,,,Jack Whitcomb-2nd,1,2022_Apr_07_1050,SAR-soap,2021.1.2,60.1561336Trial # 43,Group1-stimuli/group1-block2/fake-group2-b2/encoded_Group2_IMG_0308.jpg,0,encoded_Group2_IMG_0308.jpg,,,,,,,,,0,42,42,42,,,,,,,,,,,,,,,,,,,,,,,,,,,,,,,,,1175.68424,None,1175.68424,None,1175.68424,None,4,4.714989071,1175.68424,None,1175.68424,None,2,7.021613082,1177.435307,None,1175.68424,None,3,8.393993145,1182.269718,None,1175.68424,None,space,0.241799452,8.421868735,None,1175.68424,None,1175.68424,None,,,,,,,,,Jack Whitcomb-2nd,1,2022_Apr_07_1050,SAR-soap,2021.1.2,60.1561336Trial # 44,Group1-stimuli/group1-block2/real-group1-b2/Group1_IMG_0467.jpg,1,Group1_IMG_0467.jpg,,,,,,,,,0,43,43,43,,,,,,,,,,,,,,,,,,,,,,,,,,,,,,,,,1184.402677,None,1184.402677,None,1184.402677,None,4,6.795715745,1184.402677,None,1184.402677,None,2,9.485770918,1190.73857,None,1184.402677,None,1,25.02818481,1193.439204,None,1184.402677,None,space,7.01481616,18.85151477,None,1184.402677,None,1184.402677,None,,,,,,,,,Jack Whitcomb-2nd,1,2022_Apr_07_1050,SAR-soap,2021.1.2,60.1561336Trial # 45,Group1-stimuli/group1-block2/fake-group2-b2/encoded_Group2_IMG_9839.jpg,0,encoded_Group2_IMG_9839.jpg,,,,,,,,,0,44,44,44,,,,,,,,,,,,,,,,,,,,,,,,,,,,,,,,,1210.343717,None,1210.343717,None,1210.343717,None,1,2.028692044,1210.343717,None,1210.343717,None,1,2.402222707,1211.89676,None,1210.343717,None,1,2.807771011,1212.294901,None,1210.343717,None,space,0.198312663,2.831142945,None,1210.343717,None,1210.343717,None,,,,,,,,,Jack Whitcomb-2nd,1,2022_Apr_07_1050,SAR-soap,2021.1.2,60.1561336