,Trial_num,image_path,ground_truth,image_name,demos.thisRepN,demos.thisTrialN,demos.thisN,demos.thisIndex,block1.thisRepN,block1.thisTrialN,block1.thisN,block1.thisIndex,block2.thisRepN,block2.thisTrialN,block2.thisN,block2.thisIndex,block1_rep2.thisRepN,block1_rep2.thisTrialN,block1_rep2.thisN,block1_rep2.thisIndex,block2_rep.thisRepN,block2_rep.thisTrialN,block2_rep.thisN,block2_rep.thisIndex,text_3.started,text_3.stopped,text_4.started,text_4.stopped,text.started,text.stopped,trail_num.started,trail_num.stopped,image_6.started,image_6.stopped,Judgement.keys,Judgement.rt,Judgement.started,Judgement.stopped,text_19.started,text_19.stopped,text_12.started,text_12.stopped,image.started,image.stopped,text_2.started,text_2.stopped,text_13.started,text_13.stopped,session,date,expName,psychopyVersion,frameRate,Unnamed: 54
0,Demo 1,demo/Demo_IMG_0974.jpg,demo,Demo_IMG_0974.jpg,0.0,0.0,0.0,0.0,,,,,,,,,,,,,,,,,14.535720468004,None,41.00192440801766,None,56.05712908200803,None,57.94018783300999,None,59.30706779001048,None,0,12.391625190997727,60.408309821010334,None,60.408309821010334,None,,,,,,,,,1,2022_Mar_25_1626,Real-fake-judgement-flashing-group1,2021.1.2,59.93349814924298,
1,Demo 2,demo/Demo_IMG_1024.jpg,demo,Demo_IMG_1024.jpg,0.0,1.0,1.0,1.0,,,,,,,,,,,,,,,,,,,,,,,72.82756562100258,None,74.17814886200358,None,1,1.5602937109943014,75.29563941500965,None,75.29563941500965,None,,,,,,,,,1,2022_Mar_25_1626,Real-fake-judgement-flashing-group1,2021.1.2,59.93349814924298,
2,Demo 3,demo/Demo_seed_80003.png,demo,Demo_seed_80003.png,0.0,2.0,2.0,2.0,,,,,,,,,,,,,,,,,,,,,,,76.87908837199211,None,78.22927397000603,None,1,1.6289667950186413,79.36296498801676,None,79.36296498801676,None,,,,,,,,,1,2022_Mar_25_1626,Real-fake-judgement-flashing-group1,2021.1.2,59.93349814924298,
3,Trial # 1,Group1-stimuli/group1-block1/real-group1-b1/Group1_IMG_0022.jpg,1,Group1_IMG_0022.jpg,,,,,0.0,0.0,0.0,0.0,,,,,,,,,,,,,,,,,,,89.83445512101753,None,,,1,3.058706582000013,92.31722301099217,None,92.31722301099217,None,81.48083750301157,None,91.15112675301498,None,,,,,1,2022_Mar_25_1626,Real-fake-judgement-flashing-group1,2021.1.2,59.93349814924298,
4,Trial # 2,Group1-stimuli/group1-block1/fake-group2-b1/encoded_Group2_IMG_0386.jpg,0,encoded_Group2_IMG_0386.jpg,,,,,0.0,1.0,1.0,1.0,,,,,,,,,,,,,,,,,,,95.4018722140172,None,,,0,2.002961902006064,97.8689732060011,None,97.8689732060011,None,,,96.70173879599317,None,,,,,1,2022_Mar_25_1626,Real-fake-judgement-flashing-group1,2021.1.2,59.93349814924298,
5,Trial # 3,Group1-stimuli/group1-block1/real-group1-b1/Group1_IMG_9704.jpg,1,Group1_IMG_9704.jpg,,,,,0.0,2.0,2.0,2.0,,,,,,,,,,,,,,,,,,,99.90411379301804,None,,,1,0.8931618279893883,102.38678349999827,None,102.38678349999827,None,,,101.20463561901124,None,,,,,1,2022_Mar_25_1626,Real-fake-judgement-flashing-group1,2021.1.2,59.93349814924298,
6,Trial # 4,Group1-stimuli/group1-block1/real-group1-b1/Group1_IMG_0406.jpg,1,Group1_IMG_0406.jpg,,,,,0.0,3.0,3.0,3.0,,,,,,,,,,,,,,,,,,,103.30361949300276,None,,,1,0.9320936469885056,105.77182848501252,None,105.77182848501252,None,,,104.60365915001604,None,,,,,1,2022_Mar_25_1626,Real-fake-judgement-flashing-group1,2021.1.2,59.93349814924298,
7,Trial # 5,Group1-stimuli/group1-block1/fake-group2-b1/encoded_Group2_IMG_0364.jpg,0,encoded_Group2_IMG_0364.jpg,,,,,0.0,4.0,4.0,4.0,,,,,,,,,,,,,,,,,,,106.72209480201128,None,,,0,1.706816997990245,109.18912034999812,None,109.18912034999812,None,,,108.02178981600446,None,,,,,1,2022_Mar_25_1626,Real-fake-judgement-flashing-group1,2021.1.2,59.93349814924298,
8,Trial # 6,Group1-stimuli/group1-block1/fake-group2-b1/encoded_Group2_IMG_0407.jpg,0,encoded_Group2_IMG_0407.jpg,,,,,0.0,5.0,5.0,5.0,,,,,,,,,,,,,,,,,,,110.9241358670115,None,,,0,1.017558513005497,113.39026447801734,None,113.39026447801734,None,,,112.2237310950004,None,,,,,1,2022_Mar_25_1626,Real-fake-judgement-flashing-group1,2021.1.2,59.93349814924298,
9,Trial # 7,Group1-stimuli/group1-block1/real-group1-b1/Group1_IMG_0428.jpg,1,Group1_IMG_0428.jpg,,,,,0.0,6.0,6.0,6.0,,,,,,,,,,,,,,,,,,,114.44013072000234,None,,,1,0.4997535579896066,116.90817437000806,None,116.90817437000806,None,,,115.74212734898902,None,,,,,1,2022_Mar_25_1626,Real-fake-judgement-flashing-group1,2021.1.2,59.93349814924298,
10,Trial # 8,Group1-stimuli/group1-block1/fake-group2-b1/encoded_Group2_IMG_0474.jpg,0,encoded_Group2_IMG_0474.jpg,,,,,0.0,7.0,7.0,7.0,,,,,,,,,,,,,,,,,,,117.42531352498918,None,,,1,2.874477184988791,119.90945768900563,None,119.90945768900563,None,,,118.72528939301264,None,,,,,1,2022_Mar_25_1626,Real-fake-judgement-flashing-group1,2021.1.2,59.93349814924298,
11,Trial # 9,Group1-stimuli/group1-block1/fake-group2-b1/encoded_Group2_IMG_1506.jpg,0,encoded_Group2_IMG_1506.jpg,,,,,0.0,8.0,8.0,8.0,,,,,,,,,,,,,,,,,,,122.80993100401248,None,,,0,0.6495357320236508,125.27840080700116,None,125.27840080700116,None,,,124.1102326399996,None,,,,,1,2022_Mar_25_1626,Real-fake-judgement-flashing-group1,2021.1.2,59.93349814924298,
12,Trial # 10,Group1-stimuli/group1-block1/real-group1-b1/Group1_IMG_9789.jpg,1,Group1_IMG_9789.jpg,,,,,0.0,9.0,9.0,9.0,,,,,,,,,,,,,,,,,,,125.94583037000848,None,,,0,1.1953613290097564,128.42845651501557,None,128.42845651501557,None,,,127.26129261299502,None,,,,,1,2022_Mar_25_1626,Real-fake-judgement-flashing-group1,2021.1.2,59.93349814924298,
13,Trial # 11,Group1-stimuli/group1-block1/real-group1-b1/Group1_IMG_9778.jpg,1,Group1_IMG_9778.jpg,,,,,0.0,10.0,10.0,10.0,,,,,,,,,,,,,,,,,,,129.64516129199183,None,,,1,0.5190444809850305,132.11289549799403,None,132.11289549799403,None,,,130.94679106998956,None,,,,,1,2022_Mar_25_1626,Real-fake-judgement-flashing-group1,2021.1.2,59.93349814924298,
14,Trial # 12,Group1-stimuli/group1-block1/real-group1-b1/Group1_IMG_9813.jpg,1,Group1_IMG_9813.jpg,,,,,0.0,11.0,11.0,11.0,,,,,,,,,,,,,,,,,,,132.66346770501696,None,,,1,1.7724925200163852,135.14744181800052,None,135.14744181800052,None,,,133.96291509098955,None,,,,,1,2022_Mar_25_1626,Real-fake-judgement-flashing-group1,2021.1.2,59.93349814924298,
15,Trial # 13,Group1-stimuli/group1-block1/real-group1-b1/Group1_IMG_0516.jpg,1,Group1_IMG_0516.jpg,,,,,0.0,12.0,12.0,12.0,,,,,,,,,,,,,,,,,,,136.9477097740164,None,,,1,1.3683734600199386,139.415489564999,None,139.415489564999,None,,,138.24817417899612,None,,,,,1,2022_Mar_25_1626,Real-fake-judgement-flashing-group1,2021.1.2,59.93349814924298,
16,Trial # 14,Group1-stimuli/group1-block1/fake-group2-b1/encoded_Group2_IMG_0038.jpg,0,encoded_Group2_IMG_0038.jpg,,,,,0.0,13.0,13.0,13.0,,,,,,,,,,,,,,,,,,,140.81592575999093,None,,,0,0.7252490310056601,143.28268403199036,None,143.28268403199036,None,,,142.11600915700546,None,,,,,1,2022_Mar_25_1626,Real-fake-judgement-flashing-group1,2021.1.2,59.93349814924298,
17,Trial # 15,Group1-stimuli/group1-block1/real-group1-b1/Group1_IMG_5984.jpg,1,Group1_IMG_5984.jpg,,,,,0.0,14.0,14.0,14.0,,,,,,,,,,,,,,,,,,,144.03364512100234,None,,,1,0.7062747559975833,146.50166495901067,None,146.50166495901067,None,,,145.33479652900132,None,,,,,1,2022_Mar_25_1626,Real-fake-judgement-flashing-group1,2021.1.2,59.93349814924298,
18,Trial # 16,Group1-stimuli/group1-block1/real-group1-b1/Group1_IMG_0383.jpg,1,Group1_IMG_0383.jpg,,,,,0.0,15.0,15.0,15.0,,,,,,,,,,,,,,,,,,,147.23443129999214,None,,,0,0.912327672005631,149.71960547601338,None,149.71960547601338,None,,,148.53436924301786,None,,,,,1,2022_Mar_25_1626,Real-fake-judgement-flashing-group1,2021.1.2,59.93349814924298,
19,Trial # 17,Group1-stimuli/group1-block1/fake-group2-b1/encoded_Group2_IMG_0456.jpg,0,encoded_Group2_IMG_0456.jpg,,,,,0.0,16.0,16.0,16.0,,,,,,,,,,,,,,,,,,,150.6530010419956,None,,,1,1.8965275499795096,153.11940653299098,None,153.11940653299098,None,,,151.95212637400255,None,,,,,1,2022_Mar_25_1626,Real-fake-judgement-flashing-group1,2021.1.2,59.93349814924298,
20,Trial # 18,Group1-stimuli/group1-block1/fake-group2-b1/encoded_Group2_IMG_8390.jpg,0,encoded_Group2_IMG_8390.jpg,,,,,0.0,17.0,17.0,17.0,,,,,,,,,,,,,,,,,,,155.03795024901046,None,,,1,1.3041417859785724,157.50378649999038,None,157.50378649999038,None,,,156.3376748439914,None,,,,,1,2022_Mar_25_1626,Real-fake-judgement-flashing-group1,2021.1.2,59.93349814924298,
21,Trial # 19,Group1-stimuli/group1-block1/real-group1-b1/Group1_IMG_0011.jpg,1,Group1_IMG_0011.jpg,,,,,0.0,18.0,18.0,18.0,,,,,,,,,,,,,,,,,,,158.8383442710037,None,,,1,0.6857195979973767,161.30620896801702,None,161.30620896801702,None,,,160.13916574799805,None,,,,,1,2022_Mar_25_1626,Real-fake-judgement-flashing-group1,2021.1.2,59.93349814924298,
22,Trial # 20,Group1-stimuli/group1-block1/fake-group2-b1/encoded_Group2_IMG_0328.jpg,0,encoded_Group2_IMG_0328.jpg,,,,,0.0,19.0,19.0,19.0,,,,,,,,,,,,,,,,,,,162.02199820399983,None,,,0,0.4304760119994171,164.48945877101505,None,164.48945877101505,None,,,163.32242555799894,None,,,,,1,2022_Mar_25_1626,Real-fake-judgement-flashing-group1,2021.1.2,59.93349814924298,
23,Trial # 21,Group1-stimuli/group1-block1/fake-group2-b1/encoded_Group2_IMG_0163.jpg,0,encoded_Group2_IMG_0163.jpg,,,,,0.0,20.0,20.0,20.0,,,,,,,,,,,,,,,,,,,164.94076520900126,None,,,0,0.4254464789992198,167.39047928599757,None,167.39047928599757,None,,,166.22440286699566,None,,,,,1,2022_Mar_25_1626,Real-fake-judgement-flashing-group1,2021.1.2,59.93349814924298,
24,Trial # 22,Group1-stimuli/group1-block1/real-group1-b1/Group1_IMG_9862.jpg,1,Group1_IMG_9862.jpg,,,,,0.0,21.0,21.0,21.0,,,,,,,,,,,,,,,,,,,167.84175269500702,None,,,0,0.5306646139943041,170.30926795999403,None,170.30926795999403,None,,,169.1405009739974,None,,,,,1,2022_Mar_25_1626,Real-fake-judgement-flashing-group1,2021.1.2,59.93349814924298,
25,Trial # 23,Group1-stimuli/group1-block1/fake-group2-b1/encoded_Group2_IMG_0296.jpg,0,encoded_Group2_IMG_0296.jpg,,,,,0.0,22.0,22.0,22.0,,,,,,,,,,,,,,,,,,,170.85807768598897,None,,,1,0.3456913959817029,173.3262281010102,None,173.3262281010102,None,,,172.1581143969961,None,,,,,1,2022_Mar_25_1626,Real-fake-judgement-flashing-group1,2021.1.2,59.93349814924298,
26,Trial # 24,Group1-stimuli/group1-block1/fake-group2-b1/encoded_Group2_IMG_0503.jpg,0,encoded_Group2_IMG_0503.jpg,,,,,0.0,23.0,23.0,23.0,,,,,,,,,,,,,,,,,,,173.6924824960006,None,,,1,0.6796333689999301,176.1442949360062,None,176.1442949360062,None,,,174.97646173401154,None,,,,,1,2022_Mar_25_1626,Real-fake-judgement-flashing-group1,2021.1.2,59.93349814924298,
27,Trial # 25,Group1-stimuli/group1-block1/fake-group2-b1/encoded_Group2_IMG_9804.jpg,0,encoded_Group2_IMG_9804.jpg,,,,,0.0,24.0,24.0,24.0,,,,,,,,,,,,,,,,,,,176.84824604101595,None,,,0,0.3771532969840336,179.31078140198952,None,179.31078140198952,None,,,178.14359175699065,None,,,,,1,2022_Mar_25_1626,Real-fake-judgement-flashing-group1,2021.1.2,59.93349814924298,
28,Trial # 26,Group1-stimuli/group1-block1/real-group1-b1/Group1_IMG_0391.jpg,1,Group1_IMG_0391.jpg,,,,,0.0,25.0,25.0,25.0,,,,,,,,,,,,,,,,,,,179.71227689599618,None,,,1,0.8136197080020793,182.1783177590114,None,182.1783177590114,None,,,181.01164995,None,,,,,1,2022_Mar_25_1626,Real-fake-judgement-flashing-group1,2021.1.2,59.93349814924298,
29,Trial # 27,Group1-stimuli/group1-block1/fake-group2-b1/encoded_Group2_IMG_3584.jpg,0,encoded_Group2_IMG_3584.jpg,,,,,0.0,26.0,26.0,26.0,,,,,,,,,,,,,,,,,,,183.0116171539994,None,,,1,1.8955265160184356,185.48038813800667,None,185.48038813800667,None,,,184.3122775779921,None,,,,,1,2022_Mar_25_1626,Real-fake-judgement-flashing-group1,2021.1.2,59.93349814924298,
30,Trial # 28,Group1-stimuli/group1-block1/fake-group2-b1/encoded_Group2_IMG_0434.jpg,0,encoded_Group2_IMG_0434.jpg,,,,,0.0,27.0,27.0,27.0,,,,,,,,,,,,,,,,,,,187.39708176301792,None,,,0,0.7267259260115679,189.86520710101468,None,189.86520710101468,None,,,188.69671473599735,None,,,,,1,2022_Mar_25_1626,Real-fake-judgement-flashing-group1,2021.1.2,59.93349814924298,
31,Trial # 29,Group1-stimuli/group1-block1/fake-group2-b1/encoded_Group2_IMG_9575.jpg,0,encoded_Group2_IMG_9575.jpg,,,,,0.0,28.0,28.0,28.0,,,,,,,,,,,,,,,,,,,190.61565933801467,None,,,0,0.8462368689943105,193.0816880490165,None,193.0816880490165,None,,,191.9146309469943,None,,,,,1,2022_Mar_25_1626,Real-fake-judgement-flashing-group1,2021.1.2,59.93349814924298,
32,Trial # 30,Group1-stimuli/group1-block1/fake-group2-b1/encoded_Group2_IMG_1025.jpg,0,encoded_Group2_IMG_1025.jpg,,,,,0.0,29.0,29.0,29.0,,,,,,,,,,,,,,,,,,,193.94818621801096,None,,,0,0.8621880979917478,196.4337367489934,None,196.4337367489934,None,,,195.2500290640164,None,,,,,1,2022_Mar_25_1626,Real-fake-judgement-flashing-group1,2021.1.2,59.93349814924298,
33,Trial # 31,Group1-stimuli/group1-block1/real-group1-b1/Group1_IMG_0502.jpg,1,Group1_IMG_0502.jpg,,,,,0.0,30.0,30.0,30.0,,,,,,,,,,,,,,,,,,,197.3164058960101,None,,,1,1.4076087760040537,199.78431740798987,None,199.78431740798987,None,,,198.6163181780139,None,,,,,1,2022_Mar_25_1626,Real-fake-judgement-flashing-group1,2021.1.2,59.93349814924298,
34,Trial # 32,Group1-stimuli/group1-block1/real-group1-b1/Group1_IMG_0182.jpg,1,Group1_IMG_0182.jpg,,,,,0.0,31.0,31.0,31.0,,,,,,,,,,,,,,,,,,,201.2180153859954,None,,,1,0.4269477599882521,203.6850252909935,None,203.6850252909935,None,,,202.51854845599155,None,,,,,1,2022_Mar_25_1626,Real-fake-judgement-flashing-group1,2021.1.2,59.93349814924298,
35,Trial # 33,Group1-stimuli/group1-block1/fake-group2-b1/encoded_Group2_IMG_2728.jpg,0,encoded_Group2_IMG_2728.jpg,,,,,0.0,32.0,32.0,32.0,,,,,,,,,,,,,,,,,,,204.13504384900443,None,,,0,0.0447306249989196,206.619193526014,None,206.619193526014,None,,,205.4364796729933,None,,,,,1,2022_Mar_25_1626,Real-fake-judgement-flashing-group1,2021.1.2,59.93349814924298,
36,Trial # 34,Group1-stimuli/group1-block1/fake-group2-b1/encoded_Group2_IMG_4867.jpg,0,encoded_Group2_IMG_4867.jpg,,,,,0.0,33.0,33.0,33.0,,,,,,,,,,,,,,,,,,,206.68582505901577,None,,,0,0.3992865420004818,209.1526594560128,None,209.1526594560128,None,,,207.98603110501423,None,,,,,1,2022_Mar_25_1626,Real-fake-judgement-flashing-group1,2021.1.2,59.93349814924298,
37,Trial # 35,Group1-stimuli/group1-block1/real-group1-b1/Group1_IMG_9894.jpg,1,Group1_IMG_9894.jpg,,,,,0.0,34.0,34.0,34.0,,,,,,,,,,,,,,,,,,,209.56970748200547,None,,,1,0.2664674920088146,212.03747093401037,None,212.03747093401037,None,,,210.8707484609913,None,,,,,1,2022_Mar_25_1626,Real-fake-judgement-flashing-group1,2021.1.2,59.93349814924298,
38,Trial # 36,Group1-stimuli/group1-block1/fake-group2-b1/encoded_Group2_IMG_0444.jpg,0,encoded_Group2_IMG_0444.jpg,,,,,0.0,35.0,35.0,35.0,,,,,,,,,,,,,,,,,,,212.32096717201057,None,,,0,0.5704198720050044,214.78950804201304,None,214.78950804201304,None,,,213.6212833850004,None,,,,,1,2022_Mar_25_1626,Real-fake-judgement-flashing-group1,2021.1.2,59.93349814924298,
39,Trial # 37,Group1-stimuli/group1-block1/real-group1-b1/Group1_IMG_2656.jpg,1,Group1_IMG_2656.jpg,,,,,0.0,36.0,36.0,36.0,,,,,,,,,,,,,,,,,,,215.38978840599884,None,,,0,1.1111660650058184,217.85676026000877,None,217.85676026000877,None,,,216.6889352040016,None,,,,,1,2022_Mar_25_1626,Real-fake-judgement-flashing-group1,2021.1.2,59.93349814924298,
40,Trial # 38,Group1-stimuli/group1-block1/real-group1-b1/Group1_IMG_0207.jpg,1,Group1_IMG_0207.jpg,,,,,0.0,37.0,37.0,37.0,,,,,,,,,,,,,,,,,,,218.98963231299425,None,,,0,0.4935357689973898,221.45838951101177,None,221.45838951101177,None,,,220.29112343900488,None,,,,,1,2022_Mar_25_1626,Real-fake-judgement-flashing-group1,2021.1.2,59.93349814924298,
41,Trial # 39,Group1-stimuli/group1-block1/real-group1-b1/Group1_IMG_9638.jpg,1,Group1_IMG_9638.jpg,,,,,0.0,38.0,38.0,38.0,,,,,,,,,,,,,,,,,,,221.9737008289958,None,,,1,0.2144583050103392,224.4414365300036,None,224.4414365300036,None,,,223.274096987996,None,,,,,1,2022_Mar_25_1626,Real-fake-judgement-flashing-group1,2021.1.2,59.93349814924298,
42,Trial # 40,Group1-stimuli/group1-block1/real-group1-b1/Group1_IMG_0148.jpg,1,Group1_IMG_0148.jpg,,,,,0.0,39.0,39.0,39.0,,,,,,,,,,,,,,,,,,,224.67532051799932,None,,,1,0.9699018799874466,227.1420153090148,None,227.1420153090148,None,,,225.97523046899005,None,,,,,1,2022_Mar_25_1626,Real-fake-judgement-flashing-group1,2021.1.2,59.93349814924298,
43,Trial # 41,Group1-stimuli/group1-block1/real-group1-b1/Group1_IMG_2891.jpg,1,Group1_IMG_2891.jpg,,,,,0.0,40.0,40.0,40.0,,,,,,,,,,,,,,,,,,,228.1427515539981,None,,,0,0.1815359389875084,230.61037523898997,None,230.61037523898997,None,,,229.442889744998,None,,,,,1,2022_Mar_25_1626,Real-fake-judgement-flashing-group1,2021.1.2,59.93349814924298,
44,Trial # 42,Group1-stimuli/group1-block1/real-group1-b1/Group1_IMG_0157.jpg,1,Group1_IMG_0157.jpg,,,,,0.0,41.0,41.0,41.0,,,,,,,,,,,,,,,,,,,230.81052984000416,None,,,1,0.4104882219980936,233.27746526600092,None,233.27746526600092,None,,,232.1102225900104,None,,,,,1,2022_Mar_25_1626,Real-fake-judgement-flashing-group1,2021.1.2,59.93349814924298,
45,Trial # 43,Group1-stimuli/group1-block1/real-group1-b1/Group1_IMG_9833.jpg,1,Group1_IMG_9833.jpg,,,,,0.0,42.0,42.0,42.0,,,,,,,,,,,,,,,,,,,233.71050917901448,None,,,0,0.0764106080168858,236.17951017001175,None,236.17951017001175,None,,,235.0115675269917,None,,,,,1,2022_Mar_25_1626,Real-fake-judgement-flashing-group1,2021.1.2,59.93349814924298,
46,Trial # 44,Group1-stimuli/group1-block1/fake-group2-b1/encoded_Group2_IMG_2230.jpg,0,encoded_Group2_IMG_2230.jpg,,,,,0.0,43.0,43.0,43.0,,,,,,,,,,,,,,,,,,,236.27974610798992,None,,,0,0.6140958099858835,238.74579497199736,None,238.74579497199736,None,,,237.57868096599125,None,,,,,1,2022_Mar_25_1626,Real-fake-judgement-flashing-group1,2021.1.2,59.93349814924298,
47,Trial # 45,Group1-stimuli/group1-block1/real-group1-b1/Group1_IMG_9966.jpg,1,Group1_IMG_9966.jpg,,,,,0.0,44.0,44.0,44.0,,,,,,,,,,,,,,,,,,,239.3788969849993,None,,,1,0.3447432589891832,241.8471823699947,None,241.8471823699947,None,,,240.68085381999845,None,,,,,1,2022_Mar_25_1626,Real-fake-judgement-flashing-group1,2021.1.2,59.93349814924298,
48,Trial # 46,Group1-stimuli/group1-block1/real-group1-b1/Group1_IMG_0239.jpg,1,Group1_IMG_0239.jpg,,,,,0.0,45.0,45.0,45.0,,,,,,,,,,,,,,,,,,,242.21344456099905,None,,,0,0.3751586000144016,244.68076853000093,None,244.68076853000093,None,,,243.51380669500213,None,,,,,1,2022_Mar_25_1626,Real-fake-judgement-flashing-group1,2021.1.2,59.93349814924298,
49,Trial # 47,Group1-stimuli/group1-block1/fake-group2-b1/encoded_Group2_IMG_0536.jpg,0,encoded_Group2_IMG_0536.jpg,,,,,0.0,46.0,46.0,46.0,,,,,,,,,,,,,,,,,,,245.08259230101248,None,,,0,0.0353984490211587,247.548564680008,None,247.548564680008,None,,,246.38272663901444,None,,,,,1,2022_Mar_25_1626,Real-fake-judgement-flashing-group1,2021.1.2,59.93349814924298,
50,Trial # 48,Group1-stimuli/group1-block1/fake-group2-b1/encoded_Group2_IMG_0521.jpg,0,encoded_Group2_IMG_0521.jpg,,,,,0.0,47.0,47.0,47.0,,,,,,,,,,,,,,,,,,,247.61470902501603,None,,,1,0.7414939560112543,250.06643357599387,None,250.06643357599387,None,,,248.8988908570027,None,,,,,1,2022_Mar_25_1626,Real-fake-judgement-flashing-group1,2021.1.2,59.93349814924298,
51,Trial # 49,Group1-stimuli/group1-block1/fake-group2-b1/encoded_Group2_IMG_9924.jpg,0,encoded_Group2_IMG_9924.jpg,,,,,0.0,48.0,48.0,48.0,,,,,,,,,,,,,,,,,,,250.8343316930113,None,,,0,1.22699913798715,253.31697757099755,None,253.31697757099755,None,,,252.14979446999496,None,,,,,1,2022_Mar_25_1626,Real-fake-judgement-flashing-group1,2021.1.2,59.93349814924298,
52,Trial # 50,Group1-stimuli/group1-block1/real-group1-b1/Group1_IMG_9730.jpg,1,Group1_IMG_9730.jpg,,,,,0.0,49.0,49.0,49.0,,,,,,,,,,,,,,,,,,,254.5676523449947,None,,,0,0.5642921219987329,257.051626586006,None,257.051626586006,None,,,255.8688693559961,None,,,,,1,2022_Mar_25_1626,Real-fake-judgement-flashing-group1,2021.1.2,59.93349814924298,
53,Trial # 51,Group1-stimuli/group1-block1/real-group1-b1/Group1_IMG_0053.jpg,1,Group1_IMG_0053.jpg,,,,,0.0,50.0,50.0,50.0,,,,,,,,,,,,,,,,,,,257.63503043400124,None,,,1,0.7281461250095163,260.10377851699013,None,260.10377851699013,None,,,258.9351875229913,None,,,,,1,2022_Mar_25_1626,Real-fake-judgement-flashing-group1,2021.1.2,59.93349814924298,
54,Trial # 52,Group1-stimuli/group1-block1/real-group1-b1/Group1_IMG_9698.jpg,1,Group1_IMG_9698.jpg,,,,,0.0,51.0,51.0,51.0,,,,,,,,,,,,,,,,,,,260.85396945200046,None,,,0,0.663232741993852,263.3366944930167,None,263.3366944930167,None,,,262.16980168700684,None,,,,,1,2022_Mar_25_1626,Real-fake-judgement-flashing-group1,2021.1.2,59.93349814924298,
55,Trial # 53,Group1-stimuli/group1-block1/fake-group2-b1/encoded_Group2_IMG_0553.jpg,0,encoded_Group2_IMG_0553.jpg,,,,,0.0,52.0,52.0,52.0,,,,,,,,,,,,,,,,,,,264.0205419799895,None,,,1,5.727205125993351,266.48872179101454,None,266.48872179101454,None,,,265.3217911020038,None,,,,,1,2022_Mar_25_1626,Real-fake-judgement-flashing-group1,2021.1.2,59.93349814924298,
56,Trial # 54,Group1-stimuli/group1-block1/fake-group2-b1/encoded_Group2_IMG_9758.jpg,0,encoded_Group2_IMG_9758.jpg,,,,,0.0,53.0,53.0,53.0,,,,,,,,,,,,,,,,,,,272.2394102970138,None,,,0,0.1411729289975483,274.7067520680139,None,274.7067520680139,None,,,273.5397695970023,None,,,,,1,2022_Mar_25_1626,Real-fake-judgement-flashing-group1,2021.1.2,59.93349814924298,
57,Trial # 55,Group1-stimuli/group1-block1/fake-group2-b1/encoded_Group2_IMG_0339.jpg,0,encoded_Group2_IMG_0339.jpg,,,,,0.0,54.0,54.0,54.0,,,,,,,,,,,,,,,,,,,274.87406783000915,None,,,0,0.0578589849756099,277.3420638620155,None,277.3420638620155,None,,,276.1751513700001,None,,,,,1,2022_Mar_25_1626,Real-fake-judgement-flashing-group1,2021.1.2,59.93349814924298,
58,Trial # 56,Group1-stimuli/group1-block1/real-group1-b1/Group1_IMG_0314.jpg,1,Group1_IMG_0314.jpg,,,,,0.0,55.0,55.0,55.0,,,,,,,,,,,,,,,,,,,277.4244774710096,None,,,1,0.5310539400088601,279.8928853670077,None,279.8928853670077,None,,,278.72467155201593,None,,,,,1,2022_Mar_25_1626,Real-fake-judgement-flashing-group1,2021.1.2,59.93349814924298,
59,Trial # 57,Group1-stimuli/group1-block1/fake-group2-b1/encoded_Group2_IMG_0532.jpg,0,encoded_Group2_IMG_0532.jpg,,,,,0.0,56.0,56.0,56.0,,,,,,,,,,,,,,,,,,,280.44248417700874,None,,,1,0.6426650889916345,282.9092609109939,None,282.9092609109939,None,,,281.7269906839938,None,,,,,1,2022_Mar_25_1626,Real-fake-judgement-flashing-group1,2021.1.2,59.93349814924298,
60,Trial # 58,Group1-stimuli/group1-block1/fake-group2-b1/encoded_Group2_IMG_0462.jpg,0,encoded_Group2_IMG_0462.jpg,,,,,0.0,57.0,57.0,57.0,,,,,,,,,,,,,,,,,,,283.57642992201727,None,,,0,2.7950254830066115,286.04490066101425,None,286.04490066101425,None,,,284.8777196829906,None,,,,,1,2022_Mar_25_1626,Real-fake-judgement-flashing-group1,2021.1.2,59.93349814924298,
61,Trial # 59,Group1-stimuli/group1-block1/real-group1-b1/Group1_IMG_0172.jpg,1,Group1_IMG_0172.jpg,,,,,0.0,58.0,58.0,58.0,,,,,,,,,,,,,,,,,,,288.8664303050027,None,,,1,2.278209218988195,291.3297277090023,None,291.3297277090023,None,,,290.16274308098946,None,,,,,1,2022_Mar_25_1626,Real-fake-judgement-flashing-group1,2021.1.2,59.93349814924298,
62,Trial # 60,Group1-stimuli/group1-block1/real-group1-b1/Group1_IMG_4841.jpg,1,Group1_IMG_4841.jpg,,,,,0.0,59.0,59.0,59.0,,,,,,,,,,,,,,,,,,,293.6294036869949,None,,,0,0.4053495529806241,296.114578164008,None,296.114578164008,None,,,294.930941928993,None,,,,,1,2022_Mar_25_1626,Real-fake-judgement-flashing-group1,2021.1.2,59.93349814924298,
63,Trial # 61,Group1-stimuli/group1-block1/fake-group2-b1/encoded_Group2_IMG_0352.jpg,0,encoded_Group2_IMG_0352.jpg,,,,,0.0,60.0,60.0,60.0,,,,,,,,,,,,,,,,,,,296.54687627599924,None,,,0,0.481665065017296,299.01429305400234,None,299.01429305400234,None,,,297.8474688369897,None,,,,,1,2022_Mar_25_1626,Real-fake-judgement-flashing-group1,2021.1.2,59.93349814924298,
64,Trial # 62,Group1-stimuli/group1-block1/fake-group2-b1/encoded_Group2_IMG_9726.jpg,0,encoded_Group2_IMG_9726.jpg,,,,,0.0,61.0,61.0,61.0,,,,,,,,,,,,,,,,,,,299.5146965979948,None,,,1,0.3617396100016776,301.9821856780036,None,301.9821856780036,None,,,300.8159634640033,None,,,,,1,2022_Mar_25_1626,Real-fake-judgement-flashing-group1,2021.1.2,59.93349814924298,
65,Trial # 63,Group1-stimuli/group1-block1/fake-group2-b1/encoded_Group2_IMG_9785.jpg,0,encoded_Group2_IMG_9785.jpg,,,,,0.0,62.0,62.0,62.0,,,,,,,,,,,,,,,,,,,302.3654505090089,None,,,0,0.1660228789842222,304.83389704299043,None,304.83389704299043,None,,,303.6657670249988,None,,,,,1,2022_Mar_25_1626,Real-fake-judgement-flashing-group1,2021.1.2,59.93349814924298,
66,Trial # 64,Group1-stimuli/group1-block1/fake-group2-b1/encoded_Group2_IMG_0440.jpg,0,encoded_Group2_IMG_0440.jpg,,,,,0.0,63.0,63.0,63.0,,,,,,,,,,,,,,,,,,,305.0165106659988,None,,,0,1.5235800289956387,307.500348674017,None,307.500348674017,None,,,306.31791098200483,None,,,,,1,2022_Mar_25_1626,Real-fake-judgement-flashing-group1,2021.1.2,59.93349814924298,
67,Trial # 65,Group1-stimuli/group1-block1/fake-group2-b1/encoded_Group2_IMG_1695.jpg,0,encoded_Group2_IMG_1695.jpg,,,,,0.0,64.0,64.0,64.0,,,,,,,,,,,,,,,,,,,309.0514077410044,None,,,0,0.3303421679884195,311.50164925699937,None,311.50164925699937,None,,,310.33459208600107,None,,,,,1,2022_Mar_25_1626,Real-fake-judgement-flashing-group1,2021.1.2,59.93349814924298,
68,Trial # 66,Group1-stimuli/group1-block1/real-group1-b1/Group1_IMG_0552.jpg,1,Group1_IMG_0552.jpg,,,,,0.0,65.0,65.0,65.0,,,,,,,,,,,,,,,,,,,311.8518406570074,None,,,0,0.9286140089971012,314.3193098389893,None,314.3193098389893,None,,,313.1519096239936,None,,,,,1,2022_Mar_25_1626,Real-fake-judgement-flashing-group1,2021.1.2,59.93349814924298,
69,Trial # 67,Group1-stimuli/group1-block1/real-group1-b1/Group1_IMG_1029.jpg,1,Group1_IMG_1029.jpg,,,,,0.0,66.0,66.0,66.0,,,,,,,,,,,,,,,,,,,315.2707914240018,None,,,0,0.1190486790146678,317.7368790320179,None,317.7368790320179,None,,,316.56992230800097,None,,,,,1,2022_Mar_25_1626,Real-fake-judgement-flashing-group1,2021.1.2,59.93349814924298,
70,Trial # 68,Group1-stimuli/group1-block1/fake-group2-b1/encoded_Group2_IMG_6517.jpg,0,encoded_Group2_IMG_6517.jpg,,,,,0.0,67.0,67.0,67.0,,,,,,,,,,,,,,,,,,,317.8867784560134,None,,,1,0.2931474490032997,320.3547852959892,None,320.3547852959892,None,,,319.1705084870045,None,,,,,1,2022_Mar_25_1626,Real-fake-judgement-flashing-group1,2021.1.2,59.93349814924298,
71,Trial # 69,Group1-stimuli/group1-block1/fake-group2-b1/encoded_Group2_IMG_0002.jpg,0,encoded_Group2_IMG_0002.jpg,,,,,0.0,68.0,68.0,68.0,,,,,,,,,,,,,,,,,,,320.6721835100034,None,,,1,0.358285608002916,323.121641086007,None,323.121641086007,None,,,321.95449893100886,None,,,,,1,2022_Mar_25_1626,Real-fake-judgement-flashing-group1,2021.1.2,59.93349814924298,
72,Trial # 70,Group1-stimuli/group1-block1/real-group1-b1/Group1_IMG_0495.jpg,1,Group1_IMG_0495.jpg,,,,,0.0,69.0,69.0,69.0,,,,,,,,,,,,,,,,,,,323.505637313996,None,,,0,0.8332199380092788,325.9907181530143,None,325.9907181530143,None,,,324.80673372000456,None,,,,,1,2022_Mar_25_1626,Real-fake-judgement-flashing-group1,2021.1.2,59.93349814924298,
73,Trial # 71,Group1-stimuli/group1-block1/real-group1-b1/Group1_IMG_1391.jpg,1,Group1_IMG_1391.jpg,,,,,0.0,70.0,70.0,70.0,,,,,,,,,,,,,,,,,,,326.8408025440003,None,,,0,1.1889315849984996,329.30699638600345,None,329.30699638600345,None,,,328.1405732819985,None,,,,,1,2022_Mar_25_1626,Real-fake-judgement-flashing-group1,2021.1.2,59.93349814924298,
74,Trial # 72,Group1-stimuli/group1-block1/real-group1-b1/Group1_IMG_0343.jpg,1,Group1_IMG_0343.jpg,,,,,0.0,71.0,71.0,71.0,,,,,,,,,,,,,,,,,,,330.5253535649972,None,,,1,3.287793875002535,333.00813210301567,None,333.00813210301567,None,,,331.82559954799945,None,,,,,1,2022_Mar_25_1626,Real-fake-judgement-flashing-group1,2021.1.2,59.93349814924298,
75,Trial # 73,Group1-stimuli/group1-block1/fake-group2-b1/encoded_Group2_IMG_9810.jpg,0,encoded_Group2_IMG_9810.jpg,,,,,0.0,72.0,72.0,72.0,,,,,,,,,,,,,,,,,,,336.3270819390018,None,,,0,2.006781953998143,338.79314587800764,None,338.79314587800764,None,,,337.6427853569912,None,,,,,1,2022_Mar_25_1626,Real-fake-judgement-flashing-group1,2021.1.2,59.93349814924298,
76,Trial # 74,Group1-stimuli/group1-block1/fake-group2-b1/encoded_Group2_IMG_5900.jpg,0,encoded_Group2_IMG_5900.jpg,,,,,0.0,73.0,73.0,73.0,,,,,,,,,,,,,,,,,,,340.82734750901,None,,,1,1.185313990019495,343.29461402399465,None,343.29461402399465,None,,,342.1275150460133,None,,,,,1,2022_Mar_25_1626,Real-fake-judgement-flashing-group1,2021.1.2,59.93349814924298,
77,Trial # 75,Group1-stimuli/group1-block1/real-group1-b1/Group1_IMG_9679.jpg,1,Group1_IMG_9679.jpg,,,,,0.0,74.0,74.0,74.0,,,,,,,,,,,,,,,,,,,344.51167327800067,None,,,0,1.146998517011525,346.996893042,None,346.996893042,None,,,345.81337858800543,None,,,,,1,2022_Mar_25_1626,Real-fake-judgement-flashing-group1,2021.1.2,59.93349814924298,
78,Trial # 76,Group1-stimuli/group1-block1/fake-group2-b1/encoded_Group2_IMG_4249.jpg,0,encoded_Group2_IMG_4249.jpg,,,,,0.0,75.0,75.0,75.0,,,,,,,,,,,,,,,,,,,348.16335633100243,None,,,0,0.807639567006845,350.6482859560056,None,350.6482859560056,None,,,349.46250036900165,None,,,,,1,2022_Mar_25_1626,Real-fake-judgement-flashing-group1,2021.1.2,59.93349814924298,
79,Trial # 77,Group1-stimuli/group1-block1/fake-group2-b1/encoded_Group2_IMG_0174.jpg,0,encoded_Group2_IMG_0174.jpg,,,,,0.0,76.0,76.0,76.0,,,,,,,,,,,,,,,,,,,351.4816914900148,None,,,1,0.6358878679748159,353.9480396400031,None,353.9480396400031,None,,,352.7808905919956,None,,,,,1,2022_Mar_25_1626,Real-fake-judgement-flashing-group1,2021.1.2,59.93349814924298,
80,Trial # 78,Group1-stimuli/group1-block1/fake-group2-b1/encoded_Group2_IMG_0475.jpg,0,encoded_Group2_IMG_0475.jpg,,,,,0.0,77.0,77.0,77.0,,,,,,,,,,,,,,,,,,,354.6153310300142,None,,,0,1.868854645988904,357.09907207699143,None,357.09907207699143,None,,,355.9166755370097,None,,,,,1,2022_Mar_25_1626,Real-fake-judgement-flashing-group1,2021.1.2,59.93349814924298,
81,Trial # 79,Group1-stimuli/group1-block1/fake-group2-b1/encoded_Group2_IMG_9751.jpg,0,encoded_Group2_IMG_9751.jpg,,,,,0.0,78.0,78.0,78.0,,,,,,,,,,,,,,,,,,,358.99991783400765,None,,,1,1.75608945597196,361.46775611600606,None,361.46775611600606,None,,,360.3012864210177,None,,,,,1,2022_Mar_25_1626,Real-fake-judgement-flashing-group1,2021.1.2,59.93349814924298,
82,Trial # 80,Group1-stimuli/group1-block1/fake-group2-b1/encoded_Group2_IMG_0492.jpg,0,encoded_Group2_IMG_0492.jpg,,,,,0.0,79.0,79.0,79.0,,,,,,,,,,,,,,,,,,,363.2509745330026,None,,,0,0.1842334100219886,365.7196373410116,None,365.7196373410116,None,,,364.5507156449894,None,,,,,1,2022_Mar_25_1626,Real-fake-judgement-flashing-group1,2021.1.2,59.93349814924298,
83,Trial # 81,Group1-stimuli/group1-block1/real-group1-b1/Group1_IMG_0535.jpg,1,Group1_IMG_0535.jpg,,,,,0.0,80.0,80.0,80.0,,,,,,,,,,,,,,,,,,,365.9351208170119,None,,,1,0.3893522369908169,368.402575657994,None,368.402575657994,None,,,367.2353931440157,None,,,,,1,2022_Mar_25_1626,Real-fake-judgement-flashing-group1,2021.1.2,59.93349814924298,
84,Trial # 82,Group1-stimuli/group1-block1/real-group1-b1/Group1_IMG_0077.jpg,1,Group1_IMG_0077.jpg,,,,,0.0,81.0,81.0,81.0,,,,,,,,,,,,,,,,,,,368.81971017399337,None,,,1,0.2159259740146808,371.2880118970061,None,371.2880118970061,None,,,370.1207566980156,None,,,,,1,2022_Mar_25_1626,Real-fake-judgement-flashing-group1,2021.1.2,59.93349814924298,
85,Trial # 83,Group1-stimuli/group1-block1/fake-group2-b1/encoded_Group2_IMG_9702.jpg,0,encoded_Group2_IMG_9702.jpg,,,,,0.0,82.0,82.0,82.0,,,,,,,,,,,,,,,,,,,371.5206729480124,None,,,0,0.0204833000025246,373.9874438040133,None,373.9874438040133,None,,,372.82017264401657,None,,,,,1,2022_Mar_25_1626,Real-fake-judgement-flashing-group1,2021.1.2,59.93349814924298,
86,Trial # 84,Group1-stimuli/group1-block1/real-group1-b1/Group1_IMG_0357.jpg,1,Group1_IMG_0357.jpg,,,,,0.0,83.0,83.0,83.0,,,,,,,,,,,,,,,,,,,374.0373504050076,None,,,1,0.1500506589945871,376.52180482499534,None,376.52180482499534,None,,,375.33870991299045,None,,,,,1,2022_Mar_25_1626,Real-fake-judgement-flashing-group1,2021.1.2,59.93349814924298,
87,Trial # 85,Group1-stimuli/group1-block1/real-group1-b1/Group1_IMG_9772.jpg,1,Group1_IMG_9772.jpg,,,,,0.0,84.0,84.0,84.0,,,,,,,,,,,,,,,,,,,376.7047925450024,None,,,1,0.3229172409919556,379.1890108420048,None,379.1890108420048,None,,,378.0055626739922,None,,,,,1,2022_Mar_25_1626,Real-fake-judgement-flashing-group1,2021.1.2,59.93349814924298,
88,Trial # 86,Group1-stimuli/group1-block1/real-group1-b1/Group1_IMG_0482.jpg,1,Group1_IMG_0482.jpg,,,,,0.0,85.0,85.0,85.0,,,,,,,,,,,,,,,,,,,379.5392329500173,None,,,1,1.7053284010034986,382.0065986140107,None,382.0065986140107,None,,,380.8406505399908,None,,,,,1,2022_Mar_25_1626,Real-fake-judgement-flashing-group1,2021.1.2,59.93349814924298,
89,Trial # 87,Group1-stimuli/group1-block1/real-group1-b1/Group1_IMG_0299.jpg,1,Group1_IMG_0299.jpg,,,,,0.0,86.0,86.0,86.0,,,,,,,,,,,,,,,,,,,383.7400018569897,None,,,1,0.5423405620094854,386.2255950309918,None,386.2255950309918,None,,,385.0418211639917,None,,,,,1,2022_Mar_25_1626,Real-fake-judgement-flashing-group1,2021.1.2,59.93349814924298,
90,Trial # 88,Group1-stimuli/group1-block1/fake-group2-b1/encoded_Group2_IMG_0301.jpg,0,encoded_Group2_IMG_0301.jpg,,,,,0.0,87.0,87.0,87.0,,,,,,,,,,,,,,,,,,,386.7914195280173,None,,,0,0.4217980350076686,389.2421301770082,None,389.2421301770082,None,,,388.0749088459997,None,,,,,1,2022_Mar_25_1626,Real-fake-judgement-flashing-group1,2021.1.2,59.93349814924298,
91,Trial # 89,Group1-stimuli/group1-block1/fake-group2-b1/encoded_Group2_IMG_5136.jpg,0,encoded_Group2_IMG_5136.jpg,,,,,0.0,88.0,88.0,88.0,,,,,,,,,,,,,,,,,,,389.6925413749996,None,,,0,0.8003781459992751,392.1595886909927,None,392.1595886909927,None,,,390.993708982016,None,,,,,1,2022_Mar_25_1626,Real-fake-judgement-flashing-group1,2021.1.2,59.93349814924298,
92,Trial # 90,Group1-stimuli/group1-block1/real-group1-b1/Group1_IMG_0460.jpg,1,Group1_IMG_0460.jpg,,,,,0.0,89.0,89.0,89.0,,,,,,,,,,,,,,,,,,,392.9768237230018,None,,,1,0.3702733050158713,395.4456542090047,None,395.4456542090047,None,,,394.2768357619934,None,,,,,1,2022_Mar_25_1626,Real-fake-judgement-flashing-group1,2021.1.2,59.93349814924298,
93,Trial # 91,Group1-stimuli/group1-block1/fake-group2-b1/encoded_Group2_IMG_0068.jpg,0,encoded_Group2_IMG_0068.jpg,,,,,0.0,90.0,90.0,90.0,,,,,,,,,,,,,,,,,,,395.8447065720102,None,,,1,0.4646082680264953,398.3113080050098,None,398.3113080050098,None,,,397.1447127010033,None,,,,,1,2022_Mar_25_1626,Real-fake-judgement-flashing-group1,2021.1.2,59.93349814924298,
94,Trial # 92,Group1-stimuli/group1-block1/real-group1-b1/Group1_IMG_0337.jpg,1,Group1_IMG_0337.jpg,,,,,0.0,91.0,91.0,91.0,,,,,,,,,,,,,,,,,,,398.7956309709989,None,,,1,0.3047977199894376,401.2631293890008,None,401.2631293890008,None,,,400.0961081160058,None,,,,,1,2022_Mar_25_1626,Real-fake-judgement-flashing-group1,2021.1.2,59.93349814924298,
95,Trial # 93,Group1-stimuli/group1-block1/fake-group2-b1/encoded_Group2_IMG_0346.jpg,0,encoded_Group2_IMG_0346.jpg,,,,,0.0,92.0,92.0,92.0,,,,,,,,,,,,,,,,,,,401.5962800430134,None,,,1,0.3204511869989801,404.0634458200075,None,404.0634458200075,None,,,402.89627629399183,None,,,,,1,2022_Mar_25_1626,Real-fake-judgement-flashing-group1,2021.1.2,59.93349814924298,
96,Trial # 94,Group1-stimuli/group1-block1/real-group1-b1/Group1_IMG_4253.jpg,1,Group1_IMG_4253.jpg,,,,,0.0,93.0,93.0,93.0,,,,,,,,,,,,,,,,,,,404.41352741300943,None,,,1,0.3026933530054521,406.88119828898925,None,406.88119828898925,None,,,405.7150543000025,None,,,,,1,2022_Mar_25_1626,Real-fake-judgement-flashing-group1,2021.1.2,59.93349814924298,
97,Trial # 95,Group1-stimuli/group1-block1/fake-group2-b1/encoded_Group2_IMG_9280.jpg,0,encoded_Group2_IMG_9280.jpg,,,,,0.0,94.0,94.0,94.0,,,,,,,,,,,,,,,,,,,407.2146850439895,None,,,1,0.4221627910155803,409.68176480801776,None,409.68176480801776,None,,,408.514656571002,None,,,,,1,2022_Mar_25_1626,Real-fake-judgement-flashing-group1,2021.1.2,59.93349814924298,
98,Trial # 96,Group1-stimuli/group1-block1/real-group1-b1/Group1_IMG_0417.jpg,1,Group1_IMG_0417.jpg,,,,,0.0,95.0,95.0,95.0,,,,,,,,,,,,,,,,,,,410.1333445589989,None,,,1,0.5283910409780219,412.59953420600505,None,412.59953420600505,None,,,411.4333875449957,None,,,,,1,2022_Mar_25_1626,Real-fake-judgement-flashing-group1,2021.1.2,59.93349814924298,
99,Trial # 97,Group1-stimuli/group1-block1/fake-group2-b1/encoded_Group2_IMG_9695.jpg,0,encoded_Group2_IMG_9695.jpg,,,,,0.0,96.0,96.0,96.0,,,,,,,,,,,,,,,,,,,413.1498331220064,None,,,0,0.1655073729925789,415.6184287180077,None,415.6184287180077,None,,,414.4328515600064,None,,,,,1,2022_Mar_25_1626,Real-fake-judgement-flashing-group1,2021.1.2,59.93349814924298,
100,Trial # 98,Group1-stimuli/group1-block1/real-group1-b1/Group1_IMG_1160.jpg,1,Group1_IMG_1160.jpg,,,,,0.0,97.0,97.0,97.0,,,,,,,,,,,,,,,,,,,415.80101936199935,None,,,1,0.4840379579982254,418.26783452599193,None,418.26783452599193,None,,,417.1006620179978,None,,,,,1,2022_Mar_25_1626,Real-fake-judgement-flashing-group1,2021.1.2,59.93349814924298,
101,Trial # 99,Group1-stimuli/group1-block1/real-group1-b1/Group1_IMG_0448.jpg,1,Group1_IMG_0448.jpg,,,,,0.0,98.0,98.0,98.0,,,,,,,,,,,,,,,,,,,418.7848217099963,None,,,0,0.2672700579860247,421.2526872759918,None,421.2526872759918,None,,,420.0863231900148,None,,,,,1,2022_Mar_25_1626,Real-fake-judgement-flashing-group1,2021.1.2,59.93349814924298,
102,Trial # 100,Group1-stimuli/group1-block1/fake-group2-b1/encoded_Group2_IMG_0393.jpg,0,encoded_Group2_IMG_0393.jpg,,,,,0.0,99.0,99.0,99.0,,,,,,,,,,,,,,,,,,,421.535588461993,None,,,1,0.3167707299871836,424.00313757700496,None,424.00313757700496,None,,,422.836186288012,None,,,,,1,2022_Mar_25_1626,Real-fake-judgement-flashing-group1,2021.1.2,59.93349814924298,
103,Trial # 101,Group1-stimuli/group1-block1/real-group1-b1/Group1_IMG_0090.jpg,1,Group1_IMG_0090.jpg,,,,,0.0,100.0,100.0,100.0,,,,,,,,,,,,,,,,,,,424.3364517370064,None,,,1,0.612000633002026,426.8039363459975,None,426.8039363459975,None,,,425.6380432189908,None,,,,,1,2022_Mar_25_1626,Real-fake-judgement-flashing-group1,2021.1.2,59.93349814924298,
104,Trial # 102,Group1-stimuli/group1-block1/real-group1-b1/Group1_IMG_0310.jpg,1,Group1_IMG_0310.jpg,,,,,0.0,101.0,101.0,101.0,,,,,,,,,,,,,,,,,,,427.4374208810041,None,,,1,1.4307096579868812,429.9052298559982,None,429.9052298559982,None,,,428.7376884330006,None,,,,,1,2022_Mar_25_1626,Real-fake-judgement-flashing-group1,2021.1.2,59.93349814924298,
105,Trial # 103,Group1-stimuli/group1-block1/fake-group2-b1/encoded_Group2_IMG_0528.jpg,0,encoded_Group2_IMG_0528.jpg,,,,,0.0,102.0,102.0,102.0,,,,,,,,,,,,,,,,,,,431.35682498299866,None,,,0,0.4808585300052073,433.823104953015,None,433.823104953015,None,,,432.6555897640064,None,,,,,1,2022_Mar_25_1626,Real-fake-judgement-flashing-group1,2021.1.2,59.93349814924298,
106,Trial # 104,Group1-stimuli/group1-block1/fake-group2-b1/encoded_Group2_IMG_1975.jpg,0,encoded_Group2_IMG_1975.jpg,,,,,0.0,103.0,103.0,103.0,,,,,,,,,,,,,,,,,,,434.3222407629946,None,,,0,0.4335681440134067,436.7902535390167,None,436.7902535390167,None,,,435.6243065349991,None,,,,,1,2022_Mar_25_1626,Real-fake-judgement-flashing-group1,2021.1.2,59.93349814924298,
107,Trial # 105,Group1-stimuli/group1-block1/fake-group2-b1/encoded_Group2_IMG_0052.jpg,0,encoded_Group2_IMG_0052.jpg,,,,,0.0,104.0,104.0,104.0,,,,,,,,,,,,,,,,,,,437.2572552880156,None,,,0,0.522998161992291,439.7249286180013,None,439.7249286180013,None,,,438.5576982430066,None,,,,,1,2022_Mar_25_1626,Real-fake-judgement-flashing-group1,2021.1.2,59.93349814924298,
108,Trial # 106,Group1-stimuli/group1-block1/fake-group2-b1/encoded_Group2_IMG_0225.jpg,0,encoded_Group2_IMG_0225.jpg,,,,,0.0,105.0,105.0,105.0,,,,,,,,,,,,,,,,,,,440.27615331101697,None,,,1,0.4338502440077718,442.7420015879906,None,442.7420015879906,None,,,441.575780550018,None,,,,,1,2022_Mar_25_1626,Real-fake-judgement-flashing-group1,2021.1.2,59.93349814924298,
109,Trial # 107,Group1-stimuli/group1-block1/real-group1-b1/Group1_IMG_2231.jpg,1,Group1_IMG_2231.jpg,,,,,0.0,106.0,106.0,106.0,,,,,,,,,,,,,,,,,,,443.20900785698905,None,,,1,0.259047739993548,445.6768774620141,None,445.6768774620141,None,,,444.5091453920177,None,,,,,1,2022_Mar_25_1626,Real-fake-judgement-flashing-group1,2021.1.2,59.93349814924298,
110,Trial # 108,Group1-stimuli/group1-block1/real-group1-b1/Group1_IMG_0217.jpg,1,Group1_IMG_0217.jpg,,,,,0.0,107.0,107.0,107.0,,,,,,,,,,,,,,,,,,,445.960095314018,None,,,1,0.4448521719896234,448.4271234569897,None,448.4271234569897,None,,,447.2602767100034,None,,,,,1,2022_Mar_25_1626,Real-fake-judgement-flashing-group1,2021.1.2,59.93349814924298,
111,Trial # 109,Group1-stimuli/group1-block1/real-group1-b1/Group1_IMG_0264.jpg,1,Group1_IMG_0264.jpg,,,,,0.0,108.0,108.0,108.0,,,,,,,,,,,,,,,,,,,448.8941938590142,None,,,0,0.3573343369935173,451.3625901709893,None,451.3625901709893,None,,,450.1955216900096,None,,,,,1,2022_Mar_25_1626,Real-fake-judgement-flashing-group1,2021.1.2,59.93349814924298,
112,Trial # 110,Group1-stimuli/group1-block1/fake-group2-b1/encoded_Group2_IMG_0254.jpg,0,encoded_Group2_IMG_0254.jpg,,,,,0.0,109.0,109.0,109.0,,,,,,,,,,,,,,,,,,,451.7454946869984,None,,,0,0.3313927570125088,454.2124558170035,None,454.2124558170035,None,,,453.0454129819991,None,,,,,1,2022_Mar_25_1626,Real-fake-judgement-flashing-group1,2021.1.2,59.93349814924298,
113,Trial # 111,Group1-stimuli/group1-block1/fake-group2-b1/encoded_Group2_IMG_5433.jpg,0,encoded_Group2_IMG_5433.jpg,,,,,0.0,110.0,110.0,110.0,,,,,,,,,,,,,,,,,,,454.5626763589971,None,,,0,0.2900305110088084,457.0298967559938,None,457.0298967559938,None,,,455.8638998210081,None,,,,,1,2022_Mar_25_1626,Real-fake-judgement-flashing-group1,2021.1.2,59.93349814924298,
114,Trial # 112,Group1-stimuli/group1-block1/real-group1-b1/Group1_IMG_0252.jpg,1,Group1_IMG_0252.jpg,,,,,0.0,111.0,111.0,111.0,,,,,,,,,,,,,,,,,,,457.3465817050019,None,,,1,0.2645679359848145,459.815380628017,None,459.815380628017,None,,,458.6468330459902,None,,,,,1,2022_Mar_25_1626,Real-fake-judgement-flashing-group1,2021.1.2,59.93349814924298,
115,Trial # 113,Group1-stimuli/group1-block1/real-group1-b1/Group1_IMG_9720.jpg,1,Group1_IMG_9720.jpg,,,,,0.0,112.0,112.0,112.0,,,,,,,,,,,,,,,,,,,460.0987892170088,None,,,1,1.5229666889936198,462.5649614279973,None,462.5649614279973,None,,,461.3977588269918,None,,,,,1,2022_Mar_25_1626,Real-fake-judgement-flashing-group1,2021.1.2,59.93349814924298,
116,Trial # 114,Group1-stimuli/group1-block1/fake-group2-b1/encoded_Group2_IMG_0550.jpg,0,encoded_Group2_IMG_0550.jpg,,,,,0.0,113.0,113.0,113.0,,,,,,,,,,,,,,,,,,,464.11563990300056,None,,,0,0.3431437429971993,466.6007842269901,None,466.6007842269901,None,,,465.4168360070034,None,,,,,1,2022_Mar_25_1626,Real-fake-judgement-flashing-group1,2021.1.2,59.93349814924298,
117,Trial # 115,Group1-stimuli/group1-block1/real-group1-b1/Group1_IMG_9915.jpg,1,Group1_IMG_9915.jpg,,,,,0.0,114.0,114.0,114.0,,,,,,,,,,,,,,,,,,,466.9662139189895,None,,,1,0.5822612389747519,469.4336615159991,None,469.4336615159991,None,,,468.26715637301095,None,,,,,1,2022_Mar_25_1626,Real-fake-judgement-flashing-group1,2021.1.2,59.93349814924298,
118,Trial # 116,Group1-stimuli/group1-block1/real-group1-b1/Group1_IMG_9850.jpg,1,Group1_IMG_9850.jpg,,,,,0.0,115.0,115.0,115.0,,,,,,,,,,,,,,,,,,,470.03501129799406,None,,,1,0.3145148569892626,472.5013369109947,None,472.5013369109947,None,,,471.3355826140032,None,,,,,1,2022_Mar_25_1626,Real-fake-judgement-flashing-group1,2021.1.2,59.93349814924298,
119,Trial # 117,Group1-stimuli/group1-block1/real-group1-b1/Group1_IMG_3579.jpg,1,Group1_IMG_3579.jpg,,,,,0.0,116.0,116.0,116.0,,,,,,,,,,,,,,,,,,,472.8348604089988,None,,,1,0.2892788689932786,475.3026477230014,None,475.3026477230014,None,,,474.1352156060166,None,,,,,1,2022_Mar_25_1626,Real-fake-judgement-flashing-group1,2021.1.2,59.93349814924298,
120,Trial # 118,Group1-stimuli/group1-block1/fake-group2-b1/encoded_Group2_IMG_0377.jpg,0,encoded_Group2_IMG_0377.jpg,,,,,0.0,117.0,117.0,117.0,,,,,,,,,,,,,,,,,,,475.6202446699899,None,,,0,0.4813705050037242,478.0864871579979,None,478.0864871579979,None,,,476.9192035390006,None,,,,,1,2022_Mar_25_1626,Real-fake-judgement-flashing-group1,2021.1.2,59.93349814924298,
121,Trial # 119,Group1-stimuli/group1-block1/real-group1-b1/Group1_IMG_0469.jpg,1,Group1_IMG_0469.jpg,,,,,0.0,118.0,118.0,118.0,,,,,,,,,,,,,,,,,,,478.5870745790016,None,,,0,0.401718676002929,481.0542096350109,None,481.0542096350109,None,,,479.8879851149977,None,,,,,1,2022_Mar_25_1626,Real-fake-judgement-flashing-group1,2021.1.2,59.93349814924298,
122,Trial # 120,Group1-stimuli/group1-block1/fake-group2-b1/encoded_Group2_IMG_0100.jpg,0,encoded_Group2_IMG_0100.jpg,,,,,0.0,119.0,119.0,119.0,,,,,,,,,,,,,,,,,,,481.4882768529933,None,,,0,0.1491951129864901,483.9547447609948,None,483.9547447609948,None,,,482.7878005870152,None,,,,,1,2022_Mar_25_1626,Real-fake-judgement-flashing-group1,2021.1.2,59.93349814924298,
123,Trial # 121,Group1-stimuli/group1-block1/real-group1-b1/Group1_IMG_5359.jpg,1,Group1_IMG_5359.jpg,,,,,0.0,120.0,120.0,120.0,,,,,,,,,,,,,,,,,,,484.121800177003,None,,,1,0.2502163280150853,486.60565857600886,None,486.60565857600886,None,,,485.42320117901545,None,,,,,1,2022_Mar_25_1626,Real-fake-judgement-flashing-group1,2021.1.2,59.93349814924298,
124,Trial # 122,Group1-stimuli/group1-block1/fake-group2-b1/encoded_Group2_IMG_0304.jpg,0,encoded_Group2_IMG_0304.jpg,,,,,0.0,121.0,121.0,121.0,,,,,,,,,,,,,,,,,,,486.8731123630132,None,,,1,1.1082434059935622,489.3396827510151,None,489.3396827510151,None,,,488.1726786509971,None,,,,,1,2022_Mar_25_1626,Real-fake-judgement-flashing-group1,2021.1.2,59.93349814924298,
125,Trial # 123,Group1-stimuli/group1-block1/real-group1-b1/Group1_IMG_0306.jpg,1,Group1_IMG_0306.jpg,,,,,0.0,122.0,122.0,122.0,,,,,,,,,,,,,,,,,,,490.4748201080074,None,,,1,0.3068818080064375,492.94109115799074,None,492.94109115799074,None,,,491.7737955609919,None,,,,,1,2022_Mar_25_1626,Real-fake-judgement-flashing-group1,2021.1.2,59.93349814924298,
126,Trial # 124,Group1-stimuli/group1-block1/real-group1-b1/Group1_IMG_0224.jpg,1,Group1_IMG_0224.jpg,,,,,0.0,123.0,123.0,123.0,,,,,,,,,,,,,,,,,,,493.2742747080047,None,,,1,0.4097288360062521,495.7421963720117,None,495.7421963720117,None,,,494.57423922099406,None,,,,,1,2022_Mar_25_1626,Real-fake-judgement-flashing-group1,2021.1.2,59.93349814924298,
127,Trial # 125,Group1-stimuli/group1-block1/real-group1-b1/Group1_IMG_9889.jpg,1,Group1_IMG_9889.jpg,,,,,0.0,124.0,124.0,124.0,,,,,,,,,,,,,,,,,,,496.1767540090077,None,,,1,1.244541088992264,498.6593549879908,None,498.6593549879908,None,,,497.492382196011,None,,,,,1,2022_Mar_25_1626,Real-fake-judgement-flashing-group1,2021.1.2,59.93349814924298,
128,Trial # 126,Group1-stimuli/group1-block1/real-group1-b1/Group1_IMG_0293.jpg,1,Group1_IMG_0293.jpg,,,,,0.0,125.0,125.0,125.0,,,,,,,,,,,,,,,,,,,499.9279035280051,None,,,1,0.4382375520071946,502.39368900301633,None,502.39368900301633,None,,,501.2270665089891,None,,,,,1,2022_Mar_25_1626,Real-fake-judgement-flashing-group1,2021.1.2,59.93349814924298,
129,Trial # 127,Group1-stimuli/group1-block1/fake-group2-b1/encoded_Group2_IMG_0321.jpg,0,encoded_Group2_IMG_0321.jpg,,,,,0.0,126.0,126.0,126.0,,,,,,,,,,,,,,,,,,,502.860906766,None,,,0,0.3188596430118195,505.3290650859999,None,505.3290650859999,None,,,504.1607454470068,None,,,,,1,2022_Mar_25_1626,Real-fake-judgement-flashing-group1,2021.1.2,59.93349814924298,
130,Trial # 128,Group1-stimuli/group1-block1/fake-group2-b1/encoded_Group2_IMG_0400.jpg,0,encoded_Group2_IMG_0400.jpg,,,,,0.0,127.0,127.0,127.0,,,,,,,,,,,,,,,,,,,505.6786971710098,None,,,0,1.3101559240021745,508.145792152005,None,508.145792152005,None,,,506.978597615991,None,,,,,1,2022_Mar_25_1626,Real-fake-judgement-flashing-group1,2021.1.2,59.93349814924298,
131,Trial # 129,Group1-stimuli/group1-block1/fake-group2-b1/encoded_Group2_IMG_0443.jpg,0,encoded_Group2_IMG_0443.jpg,,,,,0.0,128.0,128.0,128.0,,,,,,,,,,,,,,,,,,,509.4798789510096,None,,,1,0.5811119050194975,511.9468397060118,None,511.9468397060118,None,,,510.7800187240064,None,,,,,1,2022_Mar_25_1626,Real-fake-judgement-flashing-group1,2021.1.2,59.93349814924298,
132,Trial # 130,Group1-stimuli/group1-block1/fake-group2-b1/encoded_Group2_IMG_0542.jpg,0,encoded_Group2_IMG_0542.jpg,,,,,0.0,129.0,129.0,129.0,,,,,,,,,,,,,,,,,,,512.5479733170068,None,,,0,0.3362566389841959,515.0157209169993,None,515.0157209169993,None,,,513.8472437369928,None,,,,,1,2022_Mar_25_1626,Real-fake-judgement-flashing-group1,2021.1.2,59.93349814924298,
133,Trial # 131,Group1-stimuli/group1-block1/real-group1-b1/Group1_IMG_0885.jpg,1,Group1_IMG_0885.jpg,,,,,0.0,130.0,130.0,130.0,,,,,,,,,,,,,,,,,,,515.3817815390066,None,,,1,0.2953828030149452,517.8485437199997,None,517.8485437199997,None,,,516.6816495739913,None,,,,,1,2022_Mar_25_1626,Real-fake-judgement-flashing-group1,2021.1.2,59.93349814924298,
134,Trial # 132,Group1-stimuli/group1-block1/real-group1-b1/Group1_IMG_0375.jpg,1,Group1_IMG_0375.jpg,,,,,0.0,131.0,131.0,131.0,,,,,,,,,,,,,,,,,,,518.1652224890131,None,,,1,0.430678014003206,520.6332683060027,None,520.6332683060027,None,,,519.465729256015,None,,,,,1,2022_Mar_25_1626,Real-fake-judgement-flashing-group1,2021.1.2,59.93349814924298,
135,Trial # 133,Group1-stimuli/group1-block1/fake-group2-b1/encoded_Group2_IMG_7351.jpg,0,encoded_Group2_IMG_7351.jpg,,,,,0.0,132.0,132.0,132.0,,,,,,,,,,,,,,,,,,,521.0843032959965,None,,,1,0.473413512983825,523.5505138419976,None,523.5505138419976,None,,,522.4005757980049,None,,,,,1,2022_Mar_25_1626,Real-fake-judgement-flashing-group1,2021.1.2,59.93349814924298,
136,Trial # 134,Group1-stimuli/group1-block1/fake-group2-b1/encoded_Group2_IMG_0416.jpg,0,encoded_Group2_IMG_0416.jpg,,,,,0.0,133.0,133.0,133.0,,,,,,,,,,,,,,,,,,,524.0508009100158,None,,,0,0.2494437950081192,526.5184921750042,None,526.5184921750042,None,,,525.3520736290084,None,,,,,1,2022_Mar_25_1626,Real-fake-judgement-flashing-group1,2021.1.2,59.93349814924298,
137,Trial # 135,Group1-stimuli/group1-block1/fake-group2-b1/encoded_Group2_IMG_0139.jpg,0,encoded_Group2_IMG_0139.jpg,,,,,0.0,134.0,134.0,134.0,,,,,,,,,,,,,,,,,,,526.7848292019917,None,,,0,0.2916941050207242,529.2522310189961,None,529.2522310189961,None,,,528.0850934119953,None,,,,,1,2022_Mar_25_1626,Real-fake-judgement-flashing-group1,2021.1.2,59.93349814924298,
138,Trial # 136,Group1-stimuli/group1-block1/real-group1-b1/Group1_IMG_9677.jpg,1,Group1_IMG_9677.jpg,,,,,0.0,135.0,135.0,135.0,,,,,,,,,,,,,,,,,,,529.5690479259938,None,,,1,0.4434485349920578,532.0364762920071,None,532.0364762920071,None,,,530.8704969510145,None,,,,,1,2022_Mar_25_1626,Real-fake-judgement-flashing-group1,2021.1.2,59.93349814924298,
139,Trial # 137,Group1-stimuli/group1-block1/fake-group2-b1/encoded_Group2_IMG_5982.jpg,0,encoded_Group2_IMG_5982.jpg,,,,,0.0,136.0,136.0,136.0,,,,,,,,,,,,,,,,,,,532.504428218992,None,,,0,0.7407385630067438,534.9711877040099,None,534.9711877040099,None,,,533.8034562770044,None,,,,,1,2022_Mar_25_1626,Real-fake-judgement-flashing-group1,2021.1.2,59.93349814924298,
140,Trial # 138,Group1-stimuli/group1-block1/fake-group2-b1/encoded_Group2_IMG_1144.jpg,0,encoded_Group2_IMG_1144.jpg,,,,,0.0,137.0,137.0,137.0,,,,,,,,,,,,,,,,,,,535.7389015270164,None,,,0,0.2917874600098002,538.1881370710034,None,538.1881370710034,None,,,537.0215387170028,None,,,,,1,2022_Mar_25_1626,Real-fake-judgement-flashing-group1,2021.1.2,59.93349814924298,
141,Trial # 139,Group1-stimuli/group1-block1/fake-group2-b1/encoded_Group2_IMG_0315.jpg,0,encoded_Group2_IMG_0315.jpg,,,,,0.0,138.0,138.0,138.0,,,,,,,,,,,,,,,,,,,538.5052041579911,None,,,0,0.369971781008644,540.9739555740089,None,540.9739555740089,None,,,539.8047324210056,None,,,,,1,2022_Mar_25_1626,Real-fake-judgement-flashing-group1,2021.1.2,59.93349814924298,
142,Trial # 140,Group1-stimuli/group1-block1/real-group1-b1/Group1_IMG_130.jpg,1,Group1_IMG_130.jpg,,,,,0.0,139.0,139.0,139.0,,,,,,,,,,,,,,,,,,,541.3738339029951,None,,,1,0.4066793759993743,543.8732459029998,None,543.8732459029998,None,,,542.6896134010167,None,,,,,1,2022_Mar_25_1626,Real-fake-judgement-flashing-group1,2021.1.2,59.93349814924298,
143,Trial # 141,Group1-stimuli/group1-block1/real-group1-b1/Group1_IMG_0024.jpg,1,Group1_IMG_0024.jpg,,,,,0.0,140.0,140.0,140.0,,,,,,,,,,,,,,,,,,,544.3062996969966,None,,,1,0.3215896409819834,546.7743379170133,None,546.7743379170133,None,,,545.6076705759915,None,,,,,1,2022_Mar_25_1626,Real-fake-judgement-flashing-group1,2021.1.2,59.93349814924298,
144,Trial # 142,Group1-stimuli/group1-block1/fake-group2-b1/encoded_Group2_IMG_5012.jpg,0,encoded_Group2_IMG_5012.jpg,,,,,0.0,141.0,141.0,141.0,,,,,,,,,,,,,,,,,,,547.1245588840102,None,,,0,0.3281782589911017,549.5917488510022,None,549.5917488510022,None,,,548.4246659170021,None,,,,,1,2022_Mar_25_1626,Real-fake-judgement-flashing-group1,2021.1.2,59.93349814924298,
145,Trial # 143,Group1-stimuli/group1-block1/fake-group2-b1/encoded_Group2_IMG_0209.jpg,0,encoded_Group2_IMG_0209.jpg,,,,,0.0,142.0,142.0,142.0,,,,,,,,,,,,,,,,,,,549.9425630320038,None,,,0,0.3026733589940704,552.40928015401,None,552.40928015401,None,,,551.2433162060042,None,,,,,1,2022_Mar_25_1626,Real-fake-judgement-flashing-group1,2021.1.2,59.93349814924298,
146,Trial # 144,Group1-stimuli/group1-block1/real-group1-b1/Group1_IMG_0373.jpg,1,Group1_IMG_0373.jpg,,,,,0.0,143.0,143.0,143.0,,,,,,,,,,,,,,,,,,,552.7429188390088,None,,,1,0.3331969180144369,555.210726958001,None,555.210726958001,None,,,554.0431010250177,None,,,,,1,2022_Mar_25_1626,Real-fake-judgement-flashing-group1,2021.1.2,59.93349814924298,
147,Trial # 145,Group1-stimuli/group1-block1/real-group1-b1/Group1_IMG_5899.jpg,1,Group1_IMG_5899.jpg,,,,,0.0,144.0,144.0,144.0,,,,,,,,,,,,,,,,,,,555.5608383259969,None,,,1,0.2682088860019576,558.0276878770092,None,558.0276878770092,None,,,556.8605960549903,None,,,,,1,2022_Mar_25_1626,Real-fake-judgement-flashing-group1,2021.1.2,59.93349814924298,
148,Trial # 146,Group1-stimuli/group1-block1/real-group1-b1/Group1_IMG_0162.jpg,1,Group1_IMG_0162.jpg,,,,,0.0,145.0,145.0,145.0,,,,,,,,,,,,,,,,,,,558.3277260409959,None,,,1,1.0761306779750155,560.7957949099946,None,560.7957949099946,None,,,559.6281374249957,None,,,,,1,2022_Mar_25_1626,Real-fake-judgement-flashing-group1,2021.1.2,59.93349814924298,
149,Trial # 147,Group1-stimuli/group1-block1/real-group1-b1/Group1_IMG_0543.jpg,1,Group1_IMG_0543.jpg,,,,,0.0,146.0,146.0,146.0,,,,,,,,,,,,,,,,,,,561.8955253500026,None,,,1,0.9809918489772826,564.3629340179905,None,564.3629340179905,None,,,563.1964094540162,None,,,,,1,2022_Mar_25_1626,Real-fake-judgement-flashing-group1,2021.1.2,59.93349814924298,
150,Trial # 148,Group1-stimuli/group1-block1/fake-group2-b1/encoded_Group2_IMG_0355.jpg,0,encoded_Group2_IMG_0355.jpg,,,,,0.0,147.0,147.0,147.0,,,,,,,,,,,,,,,,,,,565.364593478007,None,,,0,0.4012371420103591,567.8306149200071,None,567.8306149200071,None,,,566.6650424039981,None,,,,,1,2022_Mar_25_1626,Real-fake-judgement-flashing-group1,2021.1.2,59.93349814924298,
151,Trial # 149,Group1-stimuli/group1-block1/real-group1-b1/Group1_IMG_9765.jpg,1,Group1_IMG_9765.jpg,,,,,0.0,148.0,148.0,148.0,,,,,,,,,,,,,,,,,,,568.2641732720076,None,,,1,0.9388436340086628,570.7330835089961,None,570.7330835089961,None,,,569.5646817850065,None,,,,,1,2022_Mar_25_1626,Real-fake-judgement-flashing-group1,2021.1.2,59.93349814924298,
152,Trial # 150,Group1-stimuli/group1-block1/fake-group2-b1/encoded_Group2_IMG_1378.jpg,0,encoded_Group2_IMG_1378.jpg,,,,,0.0,149.0,149.0,149.0,,,,,,,,,,,,,,,,,,,571.6987350920099,None,,,0,0.8416961110197008,574.1662306229991,None,574.1662306229991,None,,,572.9986555330106,None,,,,,1,2022_Mar_25_1626,Real-fake-judgement-flashing-group1,2021.1.2,59.93349814924298,
153,Trial # 1,Group1-stimuli/group1-block2/fake-group2-b2/encoded_Group2_IMG_0155.jpg,0,encoded_Group2_IMG_0155.jpg,,,,,,,,,0.0,0.0,0.0,0.0,,,,,,,,,,,,,,,586.353629227,None,,,0,1.3166248929919675,588.7873081100115,None,588.7873081100115,None,579.0005749709962,None,587.6201015629922,None,575.0333840739913,None,,,1,2022_Mar_25_1626,Real-fake-judgement-flashing-group1,2021.1.2,59.93349814924298,
154,Trial # 2,Group1-stimuli/group1-block2/real-group1-b2/Group1_IMG_0519.jpg,1,Group1_IMG_0519.jpg,,,,,,,,,0.0,1.0,1.0,1.0,,,,,,,,,,,,,,,590.1225076529954,None,,,1,0.5315941919980105,592.5882576440054,None,592.5882576440054,None,,,591.4225703240081,None,,,,,1,2022_Mar_25_1626,Real-fake-judgement-flashing-group1,2021.1.2,59.93349814924298,
155,Trial # 3,Group1-stimuli/group1-block2/fake-group2-b2/encoded_Group2_IMG_0135.jpg,0,encoded_Group2_IMG_0135.jpg,,,,,,,,,0.0,2.0,2.0,2.0,,,,,,,,,,,,,,,593.1388413200038,None,,,0,0.4255022909783292,595.6064116329944,None,595.6064116329944,None,,,594.4389608209895,None,,,,,1,2022_Mar_25_1626,Real-fake-judgement-flashing-group1,2021.1.2,59.93349814924298,
156,Trial # 4,Group1-stimuli/group1-block2/real-group1-b2/Group1_IMG_5310.jpg,1,Group1_IMG_5310.jpg,,,,,,,,,0.0,3.0,3.0,3.0,,,,,,,,,,,,,,,596.0561475529976,None,,,1,0.3724737279990222,598.5234536110074,None,598.5234536110074,None,,,597.3562365070102,None,,,,,1,2022_Mar_25_1626,Real-fake-judgement-flashing-group1,2021.1.2,59.93349814924298,
157,Trial # 5,Group1-stimuli/group1-block2/real-group1-b2/Group1_IMG_0522.jpg,1,Group1_IMG_0522.jpg,,,,,,,,,0.0,4.0,4.0,4.0,,,,,,,,,,,,,,,598.9237256339984,None,,,1,0.5275343859975692,601.3924422429991,None,601.3924422429991,None,,,600.2252801530121,None,,,,,1,2022_Mar_25_1626,Real-fake-judgement-flashing-group1,2021.1.2,59.93349814924298,
158,Trial # 6,Group1-stimuli/group1-block2/fake-group2-b2/encoded_Group2_IMG_0484.jpg,0,encoded_Group2_IMG_0484.jpg,,,,,,,,,0.0,5.0,5.0,5.0,,,,,,,,,,,,,,,601.9423436039942,None,,,0,0.1991440260026138,604.4087949620152,None,604.4087949620152,None,,,603.2416867720021,None,,,,,1,2022_Mar_25_1626,Real-fake-judgement-flashing-group1,2021.1.2,59.93349814924298,
159,Trial # 7,Group1-stimuli/group1-block2/fake-group2-b2/encoded_Group2_IMG_5948.jpg,0,encoded_Group2_IMG_5948.jpg,,,,,,,,,0.0,6.0,6.0,6.0,,,,,,,,,,,,,,,604.6253973660059,None,,,0,0.3545477559964638,607.1093580670131,None,607.1093580670131,None,,,605.9270195919962,None,,,,,1,2022_Mar_25_1626,Real-fake-judgement-flashing-group1,2021.1.2,59.93349814924298,
160,Trial # 8,Group1-stimuli/group1-block2/fake-group2-b2/encoded_Group2_IMG_3591.jpg,0,encoded_Group2_IMG_3591.jpg,,,,,,,,,0.0,7.0,7.0,7.0,,,,,,,,,,,,,,,607.4936441080063,None,,,1,0.3350907959975302,609.9608374460076,None,609.9608374460076,None,,,608.7934807430138,None,,,,,1,2022_Mar_25_1626,Real-fake-judgement-flashing-group1,2021.1.2,59.93349814924298,
161,Trial # 9,Group1-stimuli/group1-block2/real-group1-b2/Group1_IMG_9835.jpg,1,Group1_IMG_9835.jpg,,,,,,,,,0.0,8.0,8.0,8.0,,,,,,,,,,,,,,,610.3276160350069,None,,,0,0.1967479870072566,612.811177614989,None,612.811177614989,None,,,611.6277216720046,None,,,,,1,2022_Mar_25_1626,Real-fake-judgement-flashing-group1,2021.1.2,59.93349814924298,
162,Trial # 10,Group1-stimuli/group1-block2/real-group1-b2/Group1_IMG_0556.jpg,1,Group1_IMG_0556.jpg,,,,,,,,,0.0,9.0,9.0,9.0,,,,,,,,,,,,,,,613.0292404679931,None,,,1,0.5998785749834497,615.4960601089988,None,615.4960601089988,None,,,614.3449270669953,None,,,,,1,2022_Mar_25_1626,Real-fake-judgement-flashing-group1,2021.1.2,59.93349814924298,
163,Trial # 11,Group1-stimuli/group1-block2/fake-group2-b2/encoded_Group2_IMG_9736.jpg,0,encoded_Group2_IMG_9736.jpg,,,,,,,,,0.0,10.0,10.0,10.0,,,,,,,,,,,,,,,616.1137002079922,None,,,0,0.3313773150148336,618.5964648770168,None,618.5964648770168,None,,,617.4293920769996,None,,,,,1,2022_Mar_25_1626,Real-fake-judgement-flashing-group1,2021.1.2,59.93349814924298,
164,Trial # 12,Group1-stimuli/group1-block2/real-group1-b2/Group1_IMG_9867.jpg,1,Group1_IMG_9867.jpg,,,,,,,,,0.0,11.0,11.0,11.0,,,,,,,,,,,,,,,618.9464842120069,None,,,0,0.5925748589797877,621.4153744979994,None,621.4153744979994,None,,,620.2474250489904,None,,,,,1,2022_Mar_25_1626,Real-fake-judgement-flashing-group1,2021.1.2,59.93349814924298,
165,Trial # 13,Group1-stimuli/group1-block2/fake-group2-b2/encoded_Group2_IMG_9886.jpg,0,encoded_Group2_IMG_9886.jpg,,,,,,,,,0.0,12.0,12.0,12.0,,,,,,,,,,,,,,,622.0314183710143,None,,,1,0.1417733039997983,624.4981532990059,None,624.4981532990059,None,,,623.3312146959943,None,,,,,1,2022_Mar_25_1626,Real-fake-judgement-flashing-group1,2021.1.2,59.93349814924298,
166,Trial # 14,Group1-stimuli/group1-block2/fake-group2-b2/encoded_Group2_IMG_2245.jpg,0,encoded_Group2_IMG_2245.jpg,,,,,,,,,0.0,13.0,13.0,13.0,,,,,,,,,,,,,,,624.6642426570179,None,,,1,0.3553556460246909,627.1325708980148,None,627.1325708980148,None,,,625.9662868280138,None,,,,,1,2022_Mar_25_1626,Real-fake-judgement-flashing-group1,2021.1.2,59.93349814924298,
167,Trial # 15,Group1-stimuli/group1-block2/fake-group2-b2/encoded_Group2_IMG_0507.jpg,0,encoded_Group2_IMG_0507.jpg,,,,,,,,,0.0,14.0,14.0,14.0,,,,,,,,,,,,,,,627.5166831160022,None,,,0,0.5760463770129718,629.967880037002,None,629.967880037002,None,,,628.799702482007,None,,,,,1,2022_Mar_25_1626,Real-fake-judgement-flashing-group1,2021.1.2,59.93349814924298,
168,Trial # 16,Group1-stimuli/group1-block2/fake-group2-b2/encoded_Group2_IMG_0338.jpg,0,encoded_Group2_IMG_0338.jpg,,,,,,,,,0.0,15.0,15.0,15.0,,,,,,,,,,,,,,,630.5673059580149,None,,,0,0.4219445190101396,633.0339832949976,None,633.0339832949976,None,,,631.8683872910042,None,,,,,1,2022_Mar_25_1626,Real-fake-judgement-flashing-group1,2021.1.2,59.93349814924298,
169,Trial # 17,Group1-stimuli/group1-block2/real-group1-b2/Group1_IMG_0376.jpg,1,Group1_IMG_0376.jpg,,,,,,,,,0.0,16.0,16.0,16.0,,,,,,,,,,,,,,,633.4852763370145,None,,,1,0.5748848929943051,635.9530407270067,None,635.9530407270067,None,,,634.7854246220086,None,,,,,1,2022_Mar_25_1626,Real-fake-judgement-flashing-group1,2021.1.2,59.93349814924298,
170,Trial # 18,Group1-stimuli/group1-block2/real-group1-b2/Group1_IMG_9821.jpg,1,Group1_IMG_9821.jpg,,,,,,,,,0.0,17.0,17.0,17.0,,,,,,,,,,,,,,,636.5520245009975,None,,,1,0.3803498460038099,639.0195762630028,None,639.0195762630028,None,,,637.852277886006,None,,,,,1,2022_Mar_25_1626,Real-fake-judgement-flashing-group1,2021.1.2,59.93349814924298,
171,Trial # 19,Group1-stimuli/group1-block2/fake-group2-b2/encoded_Group2_IMG_0388.jpg,0,encoded_Group2_IMG_0388.jpg,,,,,,,,,0.0,18.0,18.0,18.0,,,,,,,,,,,,,,,639.4195860819891,None,,,1,1.688826847996097,641.8871228439966,None,641.8871228439966,None,,,640.7209503100021,None,,,,,1,2022_Mar_25_1626,Real-fake-judgement-flashing-group1,2021.1.2,59.93349814924298,
172,Trial # 20,Group1-stimuli/group1-block2/fake-group2-b2/encoded_Group2_IMG_0222.jpg,0,encoded_Group2_IMG_0222.jpg,,,,,,,,,0.0,19.0,19.0,19.0,,,,,,,,,,,,,,,643.6048176140175,None,,,0,0.4314120959897991,646.0724523090175,None,646.0724523090175,None,,,644.9057901710039,None,,,,,1,2022_Mar_25_1626,Real-fake-judgement-flashing-group1,2021.1.2,59.93349814924298,
173,Trial # 21,Group1-stimuli/group1-block2/fake-group2-b2/encoded_Group2_IMG_2215.jpg,0,encoded_Group2_IMG_2215.jpg,,,,,,,,,0.0,20.0,20.0,20.0,,,,,,,,,,,,,,,646.5232346260163,None,,,1,0.6346517069905531,648.9892246230156,None,648.9892246230156,None,,,647.8222444549901,None,,,,,1,2022_Mar_25_1626,Real-fake-judgement-flashing-group1,2021.1.2,59.93349814924298,
174,Trial # 22,Group1-stimuli/group1-block2/real-group1-b2/Group1_IMG_9760.jpg,1,Group1_IMG_9760.jpg,,,,,,,,,0.0,21.0,21.0,21.0,,,,,,,,,,,,,,,649.6554701839923,None,,,1,0.7636400740011595,652.1402911269979,None,652.1402911269979,None,,,650.9574920820014,None,,,,,1,2022_Mar_25_1626,Real-fake-judgement-flashing-group1,2021.1.2,59.93349814924298,
175,Trial # 23,Group1-stimuli/group1-block2/real-group1-b2/Group1_IMG_9897.jpg,1,Group1_IMG_9897.jpg,,,,,,,,,0.0,22.0,22.0,22.0,,,,,,,,,,,,,,,652.9241717729892,None,,,1,0.8484814249968622,655.3913729210035,None,655.3913729210035,None,,,654.2238676190027,None,,,,,1,2022_Mar_25_1626,Real-fake-judgement-flashing-group1,2021.1.2,59.93349814924298,
176,Trial # 24,Group1-stimuli/group1-block2/real-group1-b2/Group1_IMG_4250.jpg,1,Group1_IMG_4250.jpg,,,,,,,,,0.0,23.0,23.0,23.0,,,,,,,,,,,,,,,656.2592386619945,None,,,1,0.3540503619879018,658.7258752580092,None,658.7258752580092,None,,,657.5584516939998,None,,,,,1,2022_Mar_25_1626,Real-fake-judgement-flashing-group1,2021.1.2,59.93349814924298,
177,Trial # 25,Group1-stimuli/group1-block2/real-group1-b2/Group1_IMG_2244.jpg,1,Group1_IMG_2244.jpg,,,,,,,,,0.0,24.0,24.0,24.0,,,,,,,,,,,,,,,659.1086597380054,None,,,1,0.655506165989209,661.5764212080103,None,661.5764212080103,None,,,660.4105599079921,None,,,,,1,2022_Mar_25_1626,Real-fake-judgement-flashing-group1,2021.1.2,59.93349814924298,
178,Trial # 26,Group1-stimuli/group1-block2/fake-group2-b2/encoded_Group2_IMG_0501.jpg,0,encoded_Group2_IMG_0501.jpg,,,,,,,,,0.0,25.0,25.0,25.0,,,,,,,,,,,,,,,662.2605049980048,None,,,0,0.3525171979854349,664.7273425559979,None,664.7273425559979,None,,,663.560355041991,None,,,,,1,2022_Mar_25_1626,Real-fake-judgement-flashing-group1,2021.1.2,59.93349814924298,
179,Trial # 27,Group1-stimuli/group1-block2/real-group1-b2/Group1_IMG_9684.jpg,1,Group1_IMG_9684.jpg,,,,,,,,,0.0,26.0,26.0,26.0,,,,,,,,,,,,,,,665.1114901890105,None,,,1,0.757840739999665,667.5780872000032,None,667.5780872000032,None,,,666.4123910909984,None,,,,,1,2022_Mar_25_1626,Real-fake-judgement-flashing-group1,2021.1.2,59.93349814924298,
180,Trial # 28,Group1-stimuli/group1-block2/real-group1-b2/Group1_IMG_1039.jpg,1,Group1_IMG_1039.jpg,,,,,,,,,0.0,27.0,27.0,27.0,,,,,,,,,,,,,,,668.3628966330143,None,,,1,0.5533848670020234,670.8305426070001,None,670.8305426070001,None,,,669.6619911430171,None,,,,,1,2022_Mar_25_1626,Real-fake-judgement-flashing-group1,2021.1.2,59.93349814924298,
181,Trial # 29,Group1-stimuli/group1-block2/fake-group2-b2/encoded_Group2_IMG_0251.jpg,0,encoded_Group2_IMG_0251.jpg,,,,,,,,,0.0,28.0,28.0,28.0,,,,,,,,,,,,,,,671.4142044970067,None,,,1,0.4944622259936295,673.913463378005,None,673.913463378005,None,,,672.7295639420045,None,,,,,1,2022_Mar_25_1626,Real-fake-judgement-flashing-group1,2021.1.2,59.93349814924298,
182,Trial # 30,Group1-stimuli/group1-block2/real-group1-b2/Group1_IMG_9692.jpg,1,Group1_IMG_9692.jpg,,,,,,,,,0.0,29.0,29.0,29.0,,,,,,,,,,,,,,,674.4306027629937,None,,,1,0.3729135830071755,676.899012290989,None,676.899012290989,None,,,675.7319855590176,None,,,,,1,2022_Mar_25_1626,Real-fake-judgement-flashing-group1,2021.1.2,59.93349814924298,
183,Trial # 31,Group1-stimuli/group1-block2/real-group1-b2/Group1_IMG_0512.jpg,1,Group1_IMG_0512.jpg,,,,,,,,,0.0,30.0,30.0,30.0,,,,,,,,,,,,,,,677.2984889810032,None,,,1,2.194750530004967,679.7651877909957,None,679.7651877909957,None,,,678.5980318550137,None,,,,,1,2022_Mar_25_1626,Real-fake-judgement-flashing-group1,2021.1.2,59.93349814924298,
184,Trial # 32,Group1-stimuli/group1-block2/fake-group2-b2/encoded_Group2_IMG_9673.jpg,0,encoded_Group2_IMG_9673.jpg,,,,,,,,,0.0,31.0,31.0,31.0,,,,,,,,,,,,,,,681.9828372689954,None,,,0,10.253966258023866,684.4499041470117,None,684.4499041470117,None,,,683.2830880089896,None,,,,,1,2022_Mar_25_1626,Real-fake-judgement-flashing-group1,2021.1.2,59.93349814924298,
185,Trial # 33,Group1-stimuli/group1-block2/fake-group2-b2/encoded_Group2_IMG_5135.jpg,0,encoded_Group2_IMG_5135.jpg,,,,,,,,,0.0,32.0,32.0,32.0,,,,,,,,,,,,,,,694.7362790119951,None,,,1,0.5559537009976339,697.2039726829971,None,697.2039726829971,None,,,696.038228570018,None,,,,,1,2022_Mar_25_1626,Real-fake-judgement-flashing-group1,2021.1.2,59.93349814924298,
186,Trial # 34,Group1-stimuli/group1-block2/real-group1-b2/Group1_IMG_0396.jpg,1,Group1_IMG_0396.jpg,,,,,,,,,0.0,33.0,33.0,33.0,,,,,,,,,,,,,,,697.7876810070011,None,,,1,0.1847199760086368,700.255143938004,None,700.255143938004,None,,,699.088149238989,None,,,,,1,2022_Mar_25_1626,Real-fake-judgement-flashing-group1,2021.1.2,59.93349814924298,
187,Trial # 35,Group1-stimuli/group1-block2/real-group1-b2/Group1_IMG_4919.jpg,1,Group1_IMG_4919.jpg,,,,,,,,,0.0,34.0,34.0,34.0,,,,,,,,,,,,,,,700.4729161520081,None,,,1,0.317068944015773,702.9388840289903,None,702.9388840289903,None,,,701.771878716012,None,,,,,1,2022_Mar_25_1626,Real-fake-judgement-flashing-group1,2021.1.2,59.93349814924298,
188,Trial # 36,Group1-stimuli/group1-block2/real-group1-b2/Group1_IMG_0449.jpg,1,Group1_IMG_0449.jpg,,,,,,,,,0.0,35.0,35.0,35.0,,,,,,,,,,,,,,,703.2725256989943,None,,,1,0.6986071130086202,705.7413150680077,None,705.7413150680077,None,,,704.57244979401,None,,,,,1,2022_Mar_25_1626,Real-fake-judgement-flashing-group1,2021.1.2,59.93349814924298,
189,Trial # 37,Group1-stimuli/group1-block2/fake-group2-b2/encoded_Group2_IMG_0539.jpg,0,encoded_Group2_IMG_0539.jpg,,,,,,,,,0.0,36.0,36.0,36.0,,,,,,,,,,,,,,,706.4580490539956,None,,,0,0.1395555899944156,708.924411281012,None,708.924411281012,None,,,707.7574316530081,None,,,,,1,2022_Mar_25_1626,Real-fake-judgement-flashing-group1,2021.1.2,59.93349814924298,
190,Trial # 38,Group1-stimuli/group1-block2/real-group1-b2/Group1_IMG_0453.jpg,1,Group1_IMG_0453.jpg,,,,,,,,,0.0,37.0,37.0,37.0,,,,,,,,,,,,,,,709.0906758730125,None,,,0,0.4881560929934494,711.5597949060029,None,711.5597949060029,None,,,710.3926679569995,None,,,,,1,2022_Mar_25_1626,Real-fake-judgement-flashing-group1,2021.1.2,59.93349814924298,
191,Trial # 39,Group1-stimuli/group1-block2/fake-group2-b2/encoded_Group2_IMG_0318.jpg,0,encoded_Group2_IMG_0318.jpg,,,,,,,,,0.0,38.0,38.0,38.0,,,,,,,,,,,,,,,712.0754781870055,None,,,0,0.1209905590221751,714.5429437840066,None,714.5429437840066,None,,,713.375707544008,None,,,,,1,2022_Mar_25_1626,Real-fake-judgement-flashing-group1,2021.1.2,59.93349814924298,
192,Trial # 40,Group1-stimuli/group1-block2/real-group1-b2/Group1_IMG_1678.jpg,1,Group1_IMG_1678.jpg,,,,,,,,,0.0,39.0,39.0,39.0,,,,,,,,,,,,,,,714.6923140360159,None,,,0,0.0863716999883763,717.1615551729919,None,717.1615551729919,None,,,715.9942922260088,None,,,,,1,2022_Mar_25_1626,Real-fake-judgement-flashing-group1,2021.1.2,59.93349814924298,
193,Trial # 41,Group1-stimuli/group1-block2/fake-group2-b2/encoded_Group2_IMG_0325.jpg,0,encoded_Group2_IMG_0325.jpg,,,,,,,,,0.0,40.0,40.0,40.0,,,,,,,,,,,,,,,717.2770884080091,None,,,0,0.1755112819955684,719.7444134610123,None,719.7444134610123,None,,,718.5772977890156,None,,,,,1,2022_Mar_25_1626,Real-fake-judgement-flashing-group1,2021.1.2,59.93349814924298,
194,Trial # 42,Group1-stimuli/group1-block2/fake-group2-b2/encoded_Group2_IMG_9935.jpg,0,encoded_Group2_IMG_9935.jpg,,,,,,,,,0.0,41.0,41.0,41.0,,,,,,,,,,,,,,,719.9447523299896,None,,,1,0.4512067690084222,722.4286540909961,None,722.4286540909961,None,,,721.2459753290168,None,,,,,1,2022_Mar_25_1626,Real-fake-judgement-flashing-group1,2021.1.2,59.93349814924298,
195,Trial # 43,Group1-stimuli/group1-block2/fake-group2-b2/encoded_Group2_IMG_0308.jpg,0,encoded_Group2_IMG_0308.jpg,,,,,,,,,0.0,42.0,42.0,42.0,,,,,,,,,,,,,,,722.9119405650126,None,,,1,0.7639190920162946,725.3800283400051,None,725.3800283400051,None,,,724.2124050960119,None,,,,,1,2022_Mar_25_1626,Real-fake-judgement-flashing-group1,2021.1.2,59.93349814924298,
196,Trial # 44,Group1-stimuli/group1-block2/real-group1-b2/Group1_IMG_0467.jpg,1,Group1_IMG_0467.jpg,,,,,,,,,0.0,43.0,43.0,43.0,,,,,,,,,,,,,,,726.1633892969985,None,,,1,0.2092653099971357,728.6305496470013,None,728.6305496470013,None,,,727.4633977659978,None,,,,,1,2022_Mar_25_1626,Real-fake-judgement-flashing-group1,2021.1.2,59.93349814924298,
197,Trial # 45,Group1-stimuli/group1-block2/fake-group2-b2/encoded_Group2_IMG_9839.jpg,0,encoded_Group2_IMG_9839.jpg,,,,,,,,,0.0,44.0,44.0,44.0,,,,,,,,,,,,,,,728.863911604014,None,,,0,2.083136130007915,731.3327355500078,None,731.3327355500078,None,,,730.1654303139949,None,,,,,1,2022_Mar_25_1626,Real-fake-judgement-flashing-group1,2021.1.2,59.93349814924298,
198,Trial # 46,Group1-stimuli/group1-block2/fake-group2-b2/encoded_Group2_IMG_9681.jpg,0,encoded_Group2_IMG_9681.jpg,,,,,,,,,0.0,45.0,45.0,45.0,,,,,,,,,,,,,,,733.4487139309931,None,,,0,0.3553215750143863,735.9166070120118,None,735.9166070120118,None,,,734.7491310549958,None,,,,,1,2022_Mar_25_1626,Real-fake-judgement-flashing-group1,2021.1.2,59.93349814924298,
199,Trial # 47,Group1-stimuli/group1-block2/fake-group2-b2/encoded_Group2_IMG_0458.jpg,0,encoded_Group2_IMG_0458.jpg,,,,,,,,,0.0,46.0,46.0,46.0,,,,,,,,,,,,,,,736.3008173459966,None,,,1,0.3528672110114712,738.7670605400053,None,738.7670605400053,None,,,737.599717567995,None,,,,,1,2022_Mar_25_1626,Real-fake-judgement-flashing-group1,2021.1.2,59.93349814924298,
200,Trial # 48,Group1-stimuli/group1-block2/real-group1-b2/Group1_IMG_1095.jpg,1,Group1_IMG_1095.jpg,,,,,,,,,0.0,47.0,47.0,47.0,,,,,,,,,,,,,,,739.1501528840163,None,,,1,1.6688813469954766,741.6190543870034,None,741.6190543870034,None,,,740.4519205040124,None,,,,,1,2022_Mar_25_1626,Real-fake-judgement-flashing-group1,2021.1.2,59.93349814924298,
201,Trial # 49,Group1-stimuli/group1-block2/fake-group2-b2/encoded_Group2_IMG_9710.jpg,0,encoded_Group2_IMG_9710.jpg,,,,,,,,,0.0,48.0,48.0,48.0,,,,,,,,,,,,,,,743.3180361940176,None,,,1,1.3093354209850077,745.7865728719917,None,745.7865728719917,None,,,744.61820954,None,,,,,1,2022_Mar_25_1626,Real-fake-judgement-flashing-group1,2021.1.2,59.93349814924298,
202,Trial # 50,Group1-stimuli/group1-block2/fake-group2-b2/encoded_Group2_IMG_9819.jpg,0,encoded_Group2_IMG_9819.jpg,,,,,,,,,0.0,49.0,49.0,49.0,,,,,,,,,,,,,,,747.1194102719892,None,,,0,0.1328700129815843,749.5870041809976,None,749.5870041809976,None,,,748.41979734099,None,,,,,1,2022_Mar_25_1626,Real-fake-judgement-flashing-group1,2021.1.2,59.93349814924298,
203,Trial # 51,Group1-stimuli/group1-block2/real-group1-b2/Group1_IMG_0064.jpg,1,Group1_IMG_0064.jpg,,,,,,,,,0.0,50.0,50.0,50.0,,,,,,,,,,,,,,,749.7371445150056,None,,,1,1.2665237759938464,752.2053378449928,None,752.2053378449928,None,,,751.0385492430069,None,,,,,1,2022_Mar_25_1626,Real-fake-judgement-flashing-group1,2021.1.2,59.93349814924298,
204,Trial # 52,Group1-stimuli/group1-block2/fake-group2-b2/encoded_Group2_IMG_9756.jpg,0,encoded_Group2_IMG_9756.jpg,,,,,,,,,0.0,51.0,51.0,51.0,,,,,,,,,,,,,,,753.5048883650161,None,,,0,0.3308284769882448,755.9730658789922,None,755.9730658789922,None,,,754.8050698610023,None,,,,,1,2022_Mar_25_1626,Real-fake-judgement-flashing-group1,2021.1.2,59.93349814924298,
205,Trial # 53,Group1-stimuli/group1-block2/fake-group2-b2/encoded_Group2_IMG_5888.jpg,0,encoded_Group2_IMG_5888.jpg,,,,,,,,,0.0,52.0,52.0,52.0,,,,,,,,,,,,,,,756.3236635630019,None,,,0,0.7054012739972677,758.8064594420139,None,758.8064594420139,None,,,757.6394203900127,None,,,,,1,2022_Mar_25_1626,Real-fake-judgement-flashing-group1,2021.1.2,59.93349814924298,
206,Trial # 54,Group1-stimuli/group1-block2/real-group1-b2/Group1_IMG_1476.jpg,1,Group1_IMG_1476.jpg,,,,,,,,,0.0,53.0,53.0,53.0,,,,,,,,,,,,,,,759.5401524720073,None,,,1,0.9753335299901664,762.0086137480102,None,762.0086137480102,None,,,760.8411269609933,None,,,,,1,2022_Mar_25_1626,Real-fake-judgement-flashing-group1,2021.1.2,59.93349814924298,
207,Trial # 55,Group1-stimuli/group1-block2/real-group1-b2/Group1_IMG_1917.jpg,1,Group1_IMG_1917.jpg,,,,,,,,,0.0,54.0,54.0,54.0,,,,,,,,,,,,,,,763.007527987007,None,,,1,0.1801944129983894,765.4757295410091,None,765.4757295410091,None,,,764.3081154919928,None,,,,,1,2022_Mar_25_1626,Real-fake-judgement-flashing-group1,2021.1.2,59.93349814924298,
208,Trial # 56,Group1-stimuli/group1-block2/real-group1-b2/Group1_IMG_0413.jpg,1,Group1_IMG_0413.jpg,,,,,,,,,0.0,55.0,55.0,55.0,,,,,,,,,,,,,,,765.676786955999,None,,,1,0.5214525680057704,768.1424726179976,None,768.1424726179976,None,,,766.97565914999,None,,,,,1,2022_Mar_25_1626,Real-fake-judgement-flashing-group1,2021.1.2,59.93349814924298,
209,Trial # 57,Group1-stimuli/group1-block2/real-group1-b2/Group1_IMG_1001.jpg,1,Group1_IMG_1001.jpg,,,,,,,,,0.0,56.0,56.0,56.0,,,,,,,,,,,,,,,768.6931831580005,None,,,1,0.9185498759907204,771.1613469680015,None,771.1613469680015,None,,,769.99416728699,None,,,,,1,2022_Mar_25_1626,Real-fake-judgement-flashing-group1,2021.1.2,59.93349814924298,
210,Trial # 58,Group1-stimuli/group1-block2/fake-group2-b2/encoded_Group2_IMG_0441.jpg,0,encoded_Group2_IMG_0441.jpg,,,,,,,,,0.0,57.0,57.0,57.0,,,,,,,,,,,,,,,772.1111554210074,None,,,0,4.222520818002522,774.5614062840177,None,774.5614062840177,None,,,773.3943051010137,None,,,,,1,2022_Mar_25_1626,Real-fake-judgement-flashing-group1,2021.1.2,59.93349814924298,
211,Trial # 59,Group1-stimuli/group1-block2/real-group1-b2/Group1_IMG_9774.jpg,1,Group1_IMG_9774.jpg,,,,,,,,,0.0,58.0,58.0,58.0,,,,,,,,,,,,,,,778.8133934910002,None,,,0,0.3907119059877004,781.2812120110029,None,781.2812120110029,None,,,780.1141364389914,None,,,,,1,2022_Mar_25_1626,Real-fake-judgement-flashing-group1,2021.1.2,59.93349814924298,
212,Trial # 60,Group1-stimuli/group1-block2/fake-group2-b2/encoded_Group2_IMG_2751.jpg,0,encoded_Group2_IMG_2751.jpg,,,,,,,,,0.0,59.0,59.0,59.0,,,,,,,,,,,,,,,781.6975357299962,None,,,0,0.0598548109992407,784.1641052890045,None,784.1641052890045,None,,,782.9972342629917,None,,,,,1,2022_Mar_25_1626,Real-fake-judgement-flashing-group1,2021.1.2,59.93349814924298,
213,Trial # 61,Group1-stimuli/group1-block2/fake-group2-b2/encoded_Group2_IMG_0409.jpg,0,encoded_Group2_IMG_0409.jpg,,,,,,,,,0.0,60.0,60.0,60.0,,,,,,,,,,,,,,,784.2478006250167,None,,,1,0.1087091950175818,786.715215395001,None,786.715215395001,None,,,785.5490219049971,None,,,,,1,2022_Mar_25_1626,Real-fake-judgement-flashing-group1,2021.1.2,59.93349814924298,
214,Trial # 62,Group1-stimuli/group1-block2/real-group1-b2/Group1_IMG_1346.jpg,1,Group1_IMG_1346.jpg,,,,,,,,,0.0,61.0,61.0,61.0,,,,,,,,,,,,,,,786.8494769580138,None,,,1,0.252072118979413,789.3158548279898,None,789.3158548279898,None,,,788.1487012979924,None,,,,,1,2022_Mar_25_1626,Real-fake-judgement-flashing-group1,2021.1.2,59.93349814924298,
215,Trial # 63,Group1-stimuli/group1-block2/real-group1-b2/Group1_IMG_0481.jpg,1,Group1_IMG_0481.jpg,,,,,,,,,0.0,62.0,62.0,62.0,,,,,,,,,,,,,,,789.5991508479929,None,,,1,0.4044886509946082,792.067437035992,None,792.067437035992,None,,,790.9008937390172,None,,,,,1,2022_Mar_25_1626,Real-fake-judgement-flashing-group1,2021.1.2,59.93349814924298,
216,Trial # 64,Group1-stimuli/group1-block2/fake-group2-b2/encoded_Group2_IMG_4718.jpg,0,encoded_Group2_IMG_4718.jpg,,,,,,,,,0.0,63.0,63.0,63.0,,,,,,,,,,,,,,,792.5001511489972,None,,,1,0.7190711240109522,794.968863667018,None,794.968863667018,None,,,793.8006714440126,None,,,,,1,2022_Mar_25_1626,Real-fake-judgement-flashing-group1,2021.1.2,59.93349814924298,
217,Trial # 65,Group1-stimuli/group1-block2/real-group1-b2/Group1_IMG_0540.jpg,1,Group1_IMG_0540.jpg,,,,,,,,,0.0,64.0,64.0,64.0,,,,,,,,,,,,,,,795.7190641619964,None,,,1,0.1906115640013013,798.1853207620152,None,798.1853207620152,None,,,797.0183249399997,None,,,,,1,2022_Mar_25_1626,Real-fake-judgement-flashing-group1,2021.1.2,59.93349814924298,
218,Trial # 66,Group1-stimuli/group1-block2/fake-group2-b2/encoded_Group2_IMG_0166.jpg,0,encoded_Group2_IMG_0166.jpg,,,,,,,,,0.0,65.0,65.0,65.0,,,,,,,,,,,,,,,798.4021544319985,None,,,0,0.169749231019523,800.8701724619896,None,800.8701724619896,None,,,799.7023833139974,None,,,,,1,2022_Mar_25_1626,Real-fake-judgement-flashing-group1,2021.1.2,59.93349814924298,
219,Trial # 67,Group1-stimuli/group1-block2/fake-group2-b2/encoded_Group2_IMG_0412.jpg,0,encoded_Group2_IMG_0412.jpg,,,,,,,,,0.0,66.0,66.0,66.0,,,,,,,,,,,,,,,801.0706601440033,None,,,1,0.6381657179736067,803.5536931230163,None,803.5536931230163,None,,,802.3865659809962,None,,,,,1,2022_Mar_25_1626,Real-fake-judgement-flashing-group1,2021.1.2,59.93349814924298,
220,Trial # 68,Group1-stimuli/group1-block2/real-group1-b2/Group1_IMG_0485.jpg,1,Group1_IMG_0485.jpg,,,,,,,,,0.0,67.0,67.0,67.0,,,,,,,,,,,,,,,804.2202789150178,None,,,0,1.4387492109963205,806.6891788140056,None,806.6891788140056,None,,,805.5208893259987,None,,,,,1,2022_Mar_25_1626,Real-fake-judgement-flashing-group1,2021.1.2,59.93349814924298,
221,Trial # 69,Group1-stimuli/group1-block2/fake-group2-b2/encoded_Group2_IMG_1495.jpg,0,encoded_Group2_IMG_1495.jpg,,,,,,,,,0.0,68.0,68.0,68.0,,,,,,,,,,,,,,,808.154907218006,None,,,0,2.409060903999489,810.6229002070031,None,810.6229002070031,None,,,809.455600915011,None,,,,,1,2022_Mar_25_1626,Real-fake-judgement-flashing-group1,2021.1.2,59.93349814924298,
222,Trial # 70,Group1-stimuli/group1-block2/real-group1-b2/Group1_IMG_0426.jpg,1,Group1_IMG_0426.jpg,,,,,,,,,0.0,69.0,69.0,69.0,,,,,,,,,,,,,,,813.0564645720006,None,,,1,0.3231208919896744,815.5248025440087,None,815.5248025440087,None,,,814.3566262380045,None,,,,,1,2022_Mar_25_1626,Real-fake-judgement-flashing-group1,2021.1.2,59.93349814924298,
223,Trial # 71,Group1-stimuli/group1-block2/real-group1-b2/Group1_IMG_0349.jpg,1,Group1_IMG_0349.jpg,,,,,,,,,0.0,70.0,70.0,70.0,,,,,,,,,,,,,,,815.8752793690073,None,,,1,0.2185395919950679,818.3413872109959,None,818.3413872109959,None,,,817.1741997670033,None,,,,,1,2022_Mar_25_1626,Real-fake-judgement-flashing-group1,2021.1.2,59.93349814924298,
224,Trial # 72,Group1-stimuli/group1-block2/real-group1-b2/Group1_IMG_0414.jpg,1,Group1_IMG_0414.jpg,,,,,,,,,0.0,71.0,71.0,71.0,,,,,,,,,,,,,,,818.5915471290064,None,,,1,0.260594327992294,821.0593335840094,None,821.0593335840094,None,,,819.8910717040126,None,,,,,1,2022_Mar_25_1626,Real-fake-judgement-flashing-group1,2021.1.2,59.93349814924298,
225,Trial # 73,Group1-stimuli/group1-block2/fake-group2-b2/encoded_Group2_IMG_9856.jpg,0,encoded_Group2_IMG_9856.jpg,,,,,,,,,0.0,72.0,72.0,72.0,,,,,,,,,,,,,,,821.3435279609985,None,,,0,0.0784104790072888,823.8095633670164,None,823.8095633670164,None,,,822.64256075499,None,,,,,1,2022_Mar_25_1626,Real-fake-judgement-flashing-group1,2021.1.2,59.93349814924298,
226,Trial # 74,Group1-stimuli/group1-block2/fake-group2-b2/encoded_Group2_IMG_5313.jpg,0,encoded_Group2_IMG_5313.jpg,,,,,,,,,0.0,73.0,73.0,73.0,,,,,,,,,,,,,,,823.9098386790138,None,,,0,0.3172951259766705,826.378631405998,None,826.378631405998,None,,,825.2106994189962,None,,,,,1,2022_Mar_25_1626,Real-fake-judgement-flashing-group1,2021.1.2,59.93349814924298,
227,Trial # 75,Group1-stimuli/group1-block2/fake-group2-b2/encoded_Group2_IMG_0421.jpg,0,encoded_Group2_IMG_0421.jpg,,,,,,,,,0.0,74.0,74.0,74.0,,,,,,,,,,,,,,,826.7273329989985,None,,,0,0.0607029149832669,829.2112265609903,None,829.2112265609903,None,,,828.0278238390165,None,,,,,1,2022_Mar_25_1626,Real-fake-judgement-flashing-group1,2021.1.2,59.93349814924298,
228,Trial # 76,Group1-stimuli/group1-block2/fake-group2-b2/encoded_Group2_IMG_0446.jpg,0,encoded_Group2_IMG_0446.jpg,,,,,,,,,0.0,75.0,75.0,75.0,,,,,,,,,,,,,,,829.2945758720161,None,,,1,0.4128392499987967,831.77908475601,None,831.77908475601,None,,,830.5960148930026,None,,,,,1,2022_Mar_25_1626,Real-fake-judgement-flashing-group1,2021.1.2,59.93349814924298,
229,Trial # 77,Group1-stimuli/group1-block2/real-group1-b2/Group1_IMG_5999.jpg,1,Group1_IMG_5999.jpg,,,,,,,,,0.0,76.0,76.0,76.0,,,,,,,,,,,,,,,832.2129477430135,None,,,0,0.2721187139977701,834.6798159400059,None,834.6798159400059,None,,,833.5125679869961,None,,,,,1,2022_Mar_25_1626,Real-fake-judgement-flashing-group1,2021.1.2,59.93349814924298,
230,Trial # 78,Group1-stimuli/group1-block2/real-group1-b2/Group1_IMG_0107.jpg,1,Group1_IMG_0107.jpg,,,,,,,,,0.0,77.0,77.0,77.0,,,,,,,,,,,,,,,834.9801513970015,None,,,1,0.6000077240169048,837.4639323480078,None,837.4639323480078,None,,,836.2814490750025,None,,,,,1,2022_Mar_25_1626,Real-fake-judgement-flashing-group1,2021.1.2,59.93349814924298,
231,Trial # 79,Group1-stimuli/group1-block2/fake-group2-b2/encoded_Group2_IMG_0322.jpg,0,encoded_Group2_IMG_0322.jpg,,,,,,,,,0.0,78.0,78.0,78.0,,,,,,,,,,,,,,,838.0817172449897,None,,,0,1.7466773420164827,840.549250319018,None,840.549250319018,None,,,839.380968086014,None,,,,,1,2022_Mar_25_1626,Real-fake-judgement-flashing-group1,2021.1.2,59.93349814924298,
232,Trial # 80,Group1-stimuli/group1-block2/fake-group2-b2/encoded_Group2_IMG_4255.jpg,0,encoded_Group2_IMG_4255.jpg,,,,,,,,,0.0,79.0,79.0,79.0,,,,,,,,,,,,,,,842.3153713030042,None,,,0,1.848739109991584,844.7831446930068,None,844.7831446930068,None,,,843.6160724630172,None,,,,,1,2022_Mar_25_1626,Real-fake-judgement-flashing-group1,2021.1.2,59.93349814924298,
233,Trial # 81,Group1-stimuli/group1-block2/fake-group2-b2/encoded_Group2_IMG_0219.jpg,0,encoded_Group2_IMG_0219.jpg,,,,,,,,,0.0,80.0,80.0,80.0,,,,,,,,,,,,,,,846.6507136430009,None,,,1,1.514242486999137,849.1177148839924,None,849.1177148839924,None,,,847.9503924279998,None,,,,,1,2022_Mar_25_1626,Real-fake-judgement-flashing-group1,2021.1.2,59.93349814924298,
234,Trial # 82,Group1-stimuli/group1-block2/real-group1-b2/Group1_IMG_0548.jpg,1,Group1_IMG_0548.jpg,,,,,,,,,0.0,81.0,81.0,81.0,,,,,,,,,,,,,,,850.6525491270004,None,,,1,5.289293771988014,853.1186318770051,None,853.1186318770051,None,,,851.9519245279953,None,,,,,1,2022_Mar_25_1626,Real-fake-judgement-flashing-group1,2021.1.2,59.93349814924298,
235,Trial # 83,Group1-stimuli/group1-block2/real-group1-b2/Group1_IMG_0229.jpg,1,Group1_IMG_0229.jpg,,,,,,,,,0.0,82.0,82.0,82.0,,,,,,,,,,,,,,,858.4370466360124,None,,,1,1.1346893390000332,860.9051707480103,None,860.9051707480103,None,,,859.7374411610072,None,,,,,1,2022_Mar_25_1626,Real-fake-judgement-flashing-group1,2021.1.2,59.93349814924298,
236,Trial # 84,Group1-stimuli/group1-block2/fake-group2-b2/encoded_Group2_IMG_0365.jpg,0,encoded_Group2_IMG_0365.jpg,,,,,,,,,0.0,83.0,83.0,83.0,,,,,,,,,,,,,,,862.0725849500159,None,,,1,4.260579318011878,864.5393515299947,None,864.5393515299947,None,,,863.3720822390169,None,,,,,1,2022_Mar_25_1626,Real-fake-judgement-flashing-group1,2021.1.2,59.93349814924298,
237,Trial # 85,Group1-stimuli/group1-block2/real-group1-b2/Group1_IMG_9822.jpg,1,Group1_IMG_9822.jpg,,,,,,,,,0.0,84.0,84.0,84.0,,,,,,,,,,,,,,,868.8238969450176,None,,,1,0.6761665979865938,871.2917616170016,None,871.2917616170016,None,,,870.1250414940005,None,,,,,1,2022_Mar_25_1626,Real-fake-judgement-flashing-group1,2021.1.2,59.93349814924298,
238,Trial # 86,Group1-stimuli/group1-block2/fake-group2-b2/encoded_Group2_IMG_0195.jpg,0,encoded_Group2_IMG_0195.jpg,,,,,,,,,0.0,85.0,85.0,85.0,,,,,,,,,,,,,,,871.9926422540157,None,,,0,5.148967435990926,874.4589587679948,None,874.4589587679948,None,,,873.2748248680145,None,,,,,1,2022_Mar_25_1626,Real-fake-judgement-flashing-group1,2021.1.2,59.93349814924298,
239,Trial # 87,Group1-stimuli/group1-block2/fake-group2-b2/encoded_Group2_IMG_0494.jpg,0,encoded_Group2_IMG_0494.jpg,,,,,,,,,0.0,86.0,86.0,86.0,,,,,,,,,,,,,,,879.6277302789968,None,,,0,0.1775277169945184,882.0943999860028,None,882.0943999860028,None,,,880.9286231810111,None,,,,,1,2022_Mar_25_1626,Real-fake-judgement-flashing-group1,2021.1.2,59.93349814924298,
240,Trial # 88,Group1-stimuli/group1-block2/real-group1-b2/Group1_IMG_0509.jpg,1,Group1_IMG_0509.jpg,,,,,,,,,0.0,87.0,87.0,87.0,,,,,,,,,,,,,,,882.2949280200119,None,,,0,0.830526945006568,884.7613939150178,None,884.7613939150178,None,,,883.5949895050144,None,,,,,1,2022_Mar_25_1626,Real-fake-judgement-flashing-group1,2021.1.2,59.93349814924298,
241,Trial # 89,Group1-stimuli/group1-block2/fake-group2-b2/encoded_Group2_IMG_8924.jpg,0,encoded_Group2_IMG_8924.jpg,,,,,,,,,0.0,88.0,88.0,88.0,,,,,,,,,,,,,,,885.6135676440026,None,,,0,0.6241950420080684,888.0797304860025,None,888.0797304860025,None,,,886.9125434329908,None,,,,,1,2022_Mar_25_1626,Real-fake-judgement-flashing-group1,2021.1.2,59.93349814924298,
242,Trial # 90,Group1-stimuli/group1-block2/real-group1-b2/Group1_IMG_0360.jpg,1,Group1_IMG_0360.jpg,,,,,,,,,0.0,89.0,89.0,89.0,,,,,,,,,,,,,,,888.7296419480117,None,,,1,0.561296335014049,891.1986289689958,None,891.1986289689958,None,,,890.0307872150152,None,,,,,1,2022_Mar_25_1626,Real-fake-judgement-flashing-group1,2021.1.2,59.93349814924298,
243,Trial # 91,Group1-stimuli/group1-block2/fake-group2-b2/encoded_Group2_IMG_0523.jpg,0,encoded_Group2_IMG_0523.jpg,,,,,,,,,0.0,90.0,90.0,90.0,,,,,,,,,,,,,,,891.782371926005,None,,,1,1.2071652459853794,894.2647630950087,None,894.2647630950087,None,,,893.0977133960114,None,,,,,1,2022_Mar_25_1626,Real-fake-judgement-flashing-group1,2021.1.2,59.93349814924298,
244,Trial # 92,Group1-stimuli/group1-block2/real-group1-b2/Group1_IMG_0518.jpg,1,Group1_IMG_0518.jpg,,,,,,,,,0.0,91.0,91.0,91.0,,,,,,,,,,,,,,,895.4991454739938,None,,,1,0.2648517919878941,897.9670681199932,None,897.9670681199932,None,,,896.7990802949935,None,,,,,1,2022_Mar_25_1626,Real-fake-judgement-flashing-group1,2021.1.2,59.93349814924298,
245,Trial # 93,Group1-stimuli/group1-block2/fake-group2-b2/encoded_Group2_IMG_0372.jpg,0,encoded_Group2_IMG_0372.jpg,,,,,,,,,0.0,92.0,92.0,92.0,,,,,,,,,,,,,,,898.2491722080158,None,,,1,0.4977502409892622,900.7181930720108,None,900.7181930720108,None,,,899.5499815570074,None,,,,,1,2022_Mar_25_1626,Real-fake-judgement-flashing-group1,2021.1.2,59.93349814924298,
246,Trial # 94,Group1-stimuli/group1-block2/fake-group2-b2/encoded_Group2_IMG_9761.jpg,0,encoded_Group2_IMG_9761.jpg,,,,,,,,,0.0,93.0,93.0,93.0,,,,,,,,,,,,,,,901.2349099059938,None,,,0,0.0187641350203193,903.7011632029898,None,903.7011632029898,None,,,902.5340282510152,None,,,,,1,2022_Mar_25_1626,Real-fake-judgement-flashing-group1,2021.1.2,59.93349814924298,
247,Trial # 95,Group1-stimuli/group1-block2/real-group1-b2/Group1_IMG_2690.jpg,1,Group1_IMG_2690.jpg,,,,,,,,,0.0,94.0,94.0,94.0,,,,,,,,,,,,,,,903.751422135014,None,,,0,0.0690242150158155,906.2188836089916,None,906.2188836089916,None,,,905.0526206060022,None,,,,,1,2022_Mar_25_1626,Real-fake-judgement-flashing-group1,2021.1.2,59.93349814924298,
248,Trial # 96,Group1-stimuli/group1-block2/real-group1-b2/Group1_IMG_9855.jpg,1,Group1_IMG_9855.jpg,,,,,,,,,0.0,95.0,95.0,95.0,,,,,,,,,,,,,,,906.3199525680102,None,,,1,0.2374503540049772,908.7864801459946,None,908.7864801459946,None,,,907.6192196780175,None,,,,,1,2022_Mar_25_1626,Real-fake-judgement-flashing-group1,2021.1.2,59.93349814924298,
249,Trial # 97,Group1-stimuli/group1-block2/fake-group2-b2/encoded_Group2_IMG_0470.jpg,0,encoded_Group2_IMG_0470.jpg,,,,,,,,,0.0,96.0,96.0,96.0,,,,,,,,,,,,,,,909.0528169230092,None,,,0,0.0302848030114546,911.5215715620144,None,911.5215715620144,None,,,910.3543521139944,None,,,,,1,2022_Mar_25_1626,Real-fake-judgement-flashing-group1,2021.1.2,59.93349814924298,
250,Trial # 98,Group1-stimuli/group1-block2/fake-group2-b2/encoded_Group2_IMG_1191.jpg,0,encoded_Group2_IMG_1191.jpg,,,,,,,,,0.0,97.0,97.0,97.0,,,,,,,,,,,,,,,911.571813823015,None,,,0,0.2021008360025007,914.0538267660012,None,914.0538267660012,None,,,912.8708063260128,None,,,,,1,2022_Mar_25_1626,Real-fake-judgement-flashing-group1,2021.1.2,59.93349814924298,
251,Trial # 99,Group1-stimuli/group1-block2/real-group1-b2/Group1_IMG_9937.jpg,1,Group1_IMG_9937.jpg,,,,,,,,,0.0,98.0,98.0,98.0,,,,,,,,,,,,,,,914.2882782719972,None,,,1,0.3485219620051794,916.7554102720168,None,916.7554102720168,None,,,915.588359315996,None,,,,,1,2022_Mar_25_1626,Real-fake-judgement-flashing-group1,2021.1.2,59.93349814924298,
252,Trial # 100,Group1-stimuli/group1-block2/fake-group2-b2/encoded_Group2_IMG_0106.jpg,0,encoded_Group2_IMG_0106.jpg,,,,,,,,,0.0,99.0,99.0,99.0,,,,,,,,,,,,,,,917.1223877349984,None,,,0,3.61048582100193,919.589439678006,None,919.589439678006,None,,,918.4224279560148,None,,,,,1,2022_Mar_25_1626,Real-fake-judgement-flashing-group1,2021.1.2,59.93349814924298,
253,Trial # 101,Group1-stimuli/group1-block2/real-group1-b2/Group1_IMG_2790.jpg,1,Group1_IMG_2790.jpg,,,,,,,,,0.0,100.0,100.0,100.0,,,,,,,,,,,,,,,923.2236666720128,None,,,0,0.2679097770014778,925.6920039780088,None,925.6920039780088,None,,,924.5238152859964,None,,,,,1,2022_Mar_25_1626,Real-fake-judgement-flashing-group1,2021.1.2,59.93349814924298,
254,Trial # 102,Group1-stimuli/group1-block2/real-group1-b2/Group1_IMG_9792.jpg,1,Group1_IMG_9792.jpg,,,,,,,,,0.0,101.0,101.0,101.0,,,,,,,,,,,,,,,925.991874164989,None,,,0,0.8043698080000468,928.475557725993,None,928.475557725993,None,,,927.2914951330168,None,,,,,1,2022_Mar_25_1626,Real-fake-judgement-flashing-group1,2021.1.2,59.93349814924298,
255,Trial # 103,Group1-stimuli/group1-block2/real-group1-b2/Group1_IMG_1640.jpg,1,Group1_IMG_1640.jpg,,,,,,,,,0.0,102.0,102.0,102.0,,,,,,,,,,,,,,,929.308885431994,None,,,0,3.9181539970159065,931.7777207840118,None,931.7777207840118,None,,,930.6106401440048,None,,,,,1,2022_Mar_25_1626,Real-fake-judgement-flashing-group1,2021.1.2,59.93349814924298,
256,Trial # 104,Group1-stimuli/group1-block2/real-group1-b2/Group1_IMG_0033.jpg,1,Group1_IMG_0033.jpg,,,,,,,,,0.0,103.0,103.0,103.0,,,,,,,,,,,,,,,935.7291936050168,None,,,0,0.0760688669979572,938.211857257993,None,938.211857257993,None,,,937.0445751849912,None,,,,,1,2022_Mar_25_1626,Real-fake-judgement-flashing-group1,2021.1.2,59.93349814924298,
257,Trial # 105,Group1-stimuli/group1-block2/real-group1-b2/Group1_IMG_0079.jpg,1,Group1_IMG_0079.jpg,,,,,,,,,0.0,104.0,104.0,104.0,,,,,,,,,,,,,,,938.3121030539914,None,,,1,1.8917287990043403,940.780197407992,None,940.780197407992,None,,,939.6119581400126,None,,,,,1,2022_Mar_25_1626,Real-fake-judgement-flashing-group1,2021.1.2,59.93349814924298,
258,Trial # 106,Group1-stimuli/group1-block2/fake-group2-b2/encoded_Group2_IMG_9909.jpg,0,encoded_Group2_IMG_9909.jpg,,,,,,,,,0.0,105.0,105.0,105.0,,,,,,,,,,,,,,,942.696466327994,None,,,0,0.38759255601326,945.1483348220064,None,945.1483348220064,None,,,943.9803420760144,None,,,,,1,2022_Mar_25_1626,Real-fake-judgement-flashing-group1,2021.1.2,59.93349814924298,
259,Trial # 107,Group1-stimuli/group1-block2/fake-group2-b2/encoded_Group2_IMG_0398.jpg,0,encoded_Group2_IMG_0398.jpg,,,,,,,,,0.0,106.0,106.0,106.0,,,,,,,,,,,,,,,945.5650803229946,None,,,0,0.0557022700086236,948.0482238010154,None,948.0482238010154,None,,,946.8645059050176,None,,,,,1,2022_Mar_25_1626,Real-fake-judgement-flashing-group1,2021.1.2,59.93349814924298,
260,Trial # 108,Group1-stimuli/group1-block2/real-group1-b2/Group1_IMG_4268.jpg,1,Group1_IMG_4268.jpg,,,,,,,,,0.0,107.0,107.0,107.0,,,,,,,,,,,,,,,948.1317295570044,None,,,1,0.8148974089999683,950.6169567200122,None,950.6169567200122,None,,,949.431402126007,None,,,,,1,2022_Mar_25_1626,Real-fake-judgement-flashing-group1,2021.1.2,59.93349814924298,
261,Trial # 109,Group1-stimuli/group1-block2/fake-group2-b2/encoded_Group2_IMG_9321.jpg,0,encoded_Group2_IMG_9321.jpg,,,,,,,,,0.0,108.0,108.0,108.0,,,,,,,,,,,,,,,951.4506941050058,None,,,1,0.1301168409991078,953.9338175689918,None,953.9338175689918,None,,,952.7663365789922,None,,,,,1,2022_Mar_25_1626,Real-fake-judgement-flashing-group1,2021.1.2,59.93349814924298,
262,Trial # 110,Group1-stimuli/group1-block2/fake-group2-b2/encoded_Group2_IMG_9964.jpg,0,encoded_Group2_IMG_9964.jpg,,,,,,,,,0.0,109.0,109.0,109.0,,,,,,,,,,,,,,,954.083092662011,None,,,0,0.2164755220001097,956.5513841020002,None,956.5513841020002,None,,,955.3843355780118,None,,,,,1,2022_Mar_25_1626,Real-fake-judgement-flashing-group1,2021.1.2,59.93349814924298,
263,Trial # 111,Group1-stimuli/group1-block2/real-group1-b2/Group1_IMG_0329.jpg,1,Group1_IMG_0329.jpg,,,,,,,,,0.0,110.0,110.0,110.0,,,,,,,,,,,,,,,956.8009124959935,None,,,1,0.419482967001386,959.268429215008,None,959.268429215008,None,,,958.1014031030064,None,,,,,1,2022_Mar_25_1626,Real-fake-judgement-flashing-group1,2021.1.2,59.93349814924298,
264,Trial # 112,Group1-stimuli/group1-block2/fake-group2-b2/encoded_Group2_IMG_0534.jpg,0,encoded_Group2_IMG_0534.jpg,,,,,,,,,0.0,111.0,111.0,111.0,,,,,,,,,,,,,,,959.7191283800056,None,,,1,1.2054177579993848,962.2025103319902,None,962.2025103319902,None,,,961.020056672016,None,,,,,1,2022_Mar_25_1626,Real-fake-judgement-flashing-group1,2021.1.2,59.93349814924298,
265,Trial # 113,Group1-stimuli/group1-block2/fake-group2-b2/encoded_Group2_IMG_0054.jpg,0,encoded_Group2_IMG_0054.jpg,,,,,,,,,0.0,112.0,112.0,112.0,,,,,,,,,,,,,,,963.4362559209984,None,,,0,1.390581927000312,965.9213452610128,None,965.9213452610128,None,,,964.7367938529932,None,,,,,1,2022_Mar_25_1626,Real-fake-judgement-flashing-group1,2021.1.2,59.93349814924298,
266,Trial # 114,Group1-stimuli/group1-block2/real-group1-b2/Group1_IMG_9979.jpg,1,Group1_IMG_9979.jpg,,,,,,,,,0.0,113.0,113.0,113.0,,,,,,,,,,,,,,,967.3374154299964,None,,,1,0.3068738540168851,969.8050539620162,None,969.8050539620162,None,,,968.6377544449932,None,,,,,1,2022_Mar_25_1626,Real-fake-judgement-flashing-group1,2021.1.2,59.93349814924298,
267,Trial # 115,Group1-stimuli/group1-block2/real-group1-b2/Group1_IMG_0170.jpg,1,Group1_IMG_0170.jpg,,,,,,,,,0.0,114.0,114.0,114.0,,,,,,,,,,,,,,,970.1390108749912,None,,,0,0.4819713290198706,972.6059492389904,None,972.6059492389904,None,,,971.4398647840136,None,,,,,1,2022_Mar_25_1626,Real-fake-judgement-flashing-group1,2021.1.2,59.93349814924298,
268,Trial # 116,Group1-stimuli/group1-block2/fake-group2-b2/encoded_Group2_IMG_0007.jpg,0,encoded_Group2_IMG_0007.jpg,,,,,,,,,0.0,115.0,115.0,115.0,,,,,,,,,,,,,,,973.1060014709948,None,,,0,2.4018496699864045,975.5740777100144,None,975.5740777100144,None,,,974.4060673470084,None,,,,,1,2022_Mar_25_1626,Real-fake-judgement-flashing-group1,2021.1.2,59.93349814924298,
269,Trial # 117,Group1-stimuli/group1-block2/real-group1-b2/Group1_IMG_0192.jpg,1,Group1_IMG_0192.jpg,,,,,,,,,0.0,116.0,116.0,116.0,,,,,,,,,,,,,,,978.0074695110088,None,,,1,0.0366080579988192,980.4753838859906,None,980.4753838859906,None,,,979.3073546460072,None,,,,,1,2022_Mar_25_1626,Real-fake-judgement-flashing-group1,2021.1.2,59.93349814924298,
270,Trial # 118,Group1-stimuli/group1-block2/real-group1-b2/Group1_IMG_9786.jpg,1,Group1_IMG_9786.jpg,,,,,,,,,0.0,117.0,117.0,117.0,,,,,,,,,,,,,,,980.5419699269988,None,,,0,0.1351767239975743,983.0086971200072,None,983.0086971200072,None,,,981.8431670879944,None,,,,,1,2022_Mar_25_1626,Real-fake-judgement-flashing-group1,2021.1.2,59.93349814924298,
271,Trial # 119,Group1-stimuli/group1-block2/real-group1-b2/Group1_IMG_0187.jpg,1,Group1_IMG_0187.jpg,,,,,,,,,0.0,118.0,118.0,118.0,,,,,,,,,,,,,,,983.1752023519948,None,,,0,0.7561929150251672,985.6437352510112,None,985.6437352510112,None,,,984.4761768160096,None,,,,,1,2022_Mar_25_1626,Real-fake-judgement-flashing-group1,2021.1.2,59.93349814924298,
272,Trial # 120,Group1-stimuli/group1-block2/fake-group2-b2/encoded_Group2_IMG_0249.jpg,0,encoded_Group2_IMG_0249.jpg,,,,,,,,,0.0,119.0,119.0,119.0,,,,,,,,,,,,,,,986.4270518980048,None,,,0,1.209628045995487,988.8942968019984,None,988.8942968019984,None,,,987.7271426829976,None,,,,,1,2022_Mar_25_1626,Real-fake-judgement-flashing-group1,2021.1.2,59.93349814924298,
273,Trial # 121,Group1-stimuli/group1-block2/fake-group2-b2/encoded_Group2_IMG_0074.jpg,0,encoded_Group2_IMG_0074.jpg,,,,,,,,,0.0,120.0,120.0,120.0,,,,,,,,,,,,,,,990.1292294570012,None,,,1,0.7969225329870824,992.595004080009,None,992.595004080009,None,,,991.4292380159897,None,,,,,1,2022_Mar_25_1626,Real-fake-judgement-flashing-group1,2021.1.2,59.93349814924298,
274,Trial # 122,Group1-stimuli/group1-block2/real-group1-b2/Group1_IMG_0243.jpg,1,Group1_IMG_0243.jpg,,,,,,,,,0.0,121.0,121.0,121.0,,,,,,,,,,,,,,,993.4127456879942,None,,,1,7.8310544039995875,995.880871094996,None,995.880871094996,None,,,994.7124502710068,None,,,,,1,2022_Mar_25_1626,Real-fake-judgement-flashing-group1,2021.1.2,59.93349814924298,
275,Trial # 123,Group1-stimuli/group1-block2/real-group1-b2/Group1_IMG_0130.jpg,1,Group1_IMG_0130.jpg,,,,,,,,,0.0,122.0,122.0,122.0,,,,,,,,,,,,,,,1003.732249018998,None,,,0,0.2393157570040784,1006.2166119760076,None,1006.2166119760076,None,,,1005.0341408769892,None,,,,,1,2022_Mar_25_1626,Real-fake-judgement-flashing-group1,2021.1.2,59.93349814924298,
276,Trial # 124,Group1-stimuli/group1-block2/real-group1-b2/Group1_IMG_0298.jpg,1,Group1_IMG_0298.jpg,,,,,,,,,0.0,123.0,123.0,123.0,,,,,,,,,,,,,,,1006.4840388169978,None,,,0,0.6574124030012172,1008.9505142270064,None,1008.9505142270064,None,,,1007.7829189019976,None,,,,,1,2022_Mar_25_1626,Real-fake-judgement-flashing-group1,2021.1.2,59.93349814924298,
277,Trial # 125,Group1-stimuli/group1-block2/real-group1-b2/Group1_IMG_5871.jpg,1,Group1_IMG_5871.jpg,,,,,,,,,0.0,124.0,124.0,124.0,,,,,,,,,,,,,,,1009.6339826860058,None,,,1,0.4426971420180052,1012.1012342039904,None,1012.1012342039904,None,,,1010.9351962959918,None,,,,,1,2022_Mar_25_1626,Real-fake-judgement-flashing-group1,2021.1.2,59.93349814924298,
278,Trial # 126,Group1-stimuli/group1-block2/fake-group2-b2/encoded_Group2_IMG_0479.jpg,0,encoded_Group2_IMG_0479.jpg,,,,,,,,,0.0,125.0,125.0,125.0,,,,,,,,,,,,,,,1012.5679414109908,None,,,1,3.882995066989679,1015.0369206530158,None,1015.0369206530158,None,,,1013.8686566920078,None,,,,,1,2022_Mar_25_1626,Real-fake-judgement-flashing-group1,2021.1.2,59.93349814924298,
