,Trial_num,image_path,ground_truth,image_name,demos.thisRepN,demos.thisTrialN,demos.thisN,demos.thisIndex,block1.thisRepN,block1.thisTrialN,block1.thisN,block1.thisIndex,block2.thisRepN,block2.thisTrialN,block2.thisN,block2.thisIndex,block1_rep2.thisRepN,block1_rep2.thisTrialN,block1_rep2.thisN,block1_rep2.thisIndex,block2_rep.thisRepN,block2_rep.thisTrialN,block2_rep.thisN,block2_rep.thisIndex,text_3.started,text_3.stopped,text_4.started,text_4.stopped,text.started,text.stopped,trail_num.started,trail_num.stopped,image_6.started,image_6.stopped,Judgement.keys,Judgement.rt,Judgement.started,Judgement.stopped,text_19.started,text_19.stopped,text_12.started,text_12.stopped,image.started,image.stopped,text_2.started,text_2.stopped,text_13.started,text_13.stopped,text_16.started,text_16.stopped,session,date,expName,psychopyVersion,frameRate
0,Demo 1,demo/Demo_IMG_0974.jpg,demo,Demo_IMG_0974.jpg,0.0,0.0,0.0,0.0,,,,,,,,,,,,,,,,,24.66029995,None,29.87807892,None,42.91625184,None,45.71600266,None,47.08311151,None,1,6.096509408,48.16798986,None,48.16798986,None,,,,,,,,,,,1,2022_Mar_23_1432,Real-fake-judgement-flashing-group1,2021.1.2,60.00468781
1,Demo 2,demo/Demo_IMG_1024.jpg,demo,Demo_IMG_1024.jpg,0.0,1.0,1.0,1.0,,,,,,,,,,,,,,,,,,,,,,,54.28672476,None,55.65240553,None,1,2.143164808,56.76933377,None,56.76933377,None,,,,,,,,,,,1,2022_Mar_23_1432,Real-fake-judgement-flashing-group1,2021.1.2,60.00468781
2,Demo 3,demo/Demo_seed_80003.png,demo,Demo_seed_80003.png,0.0,2.0,2.0,2.0,,,,,,,,,,,,,,,,,,,,,,,58.9372941,None,60.28815927,None,1,3.251501005,61.42093381,None,61.42093381,None,,,,,,,,,,,1,2022_Mar_23_1432,Real-fake-judgement-flashing-group1,2021.1.2,60.00468781
3,Trial # 1,Group1-stimuli/group1-block1/real-group1-b1/Group1_IMG_0022.jpg,1,Group1_IMG_0022.jpg,,,,,0.0,0.0,0.0,0.0,,,,,,,,,,,,,,,,,,,108.7202092,None,,,1,0.846182752,111.1863169,None,111.1863169,None,65.18857697,None,110.0526116,None,,,,,,,1,2022_Mar_23_1432,Real-fake-judgement-flashing-group1,2021.1.2,60.00468781
4,Trial # 2,Group1-stimuli/group1-block1/fake-group2-b1/encoded_Group2_IMG_0386.jpg,0,encoded_Group2_IMG_0386.jpg,,,,,0.0,1.0,1.0,1.0,,,,,,,,,,,,,,,,,,,112.0533867,None,,,0,3.319090899,114.5213434,None,114.5213434,None,,,113.3549339,None,,,,,,,1,2022_Mar_23_1432,Real-fake-judgement-flashing-group1,2021.1.2,60.00468781
5,Trial # 3,Group1-stimuli/group1-block1/real-group1-b1/Group1_IMG_9704.jpg,1,Group1_IMG_9704.jpg,,,,,0.0,2.0,2.0,2.0,,,,,,,,,,,,,,,,,,,117.8728016,None,,,1,0.892643247,120.3398577,None,120.3398577,None,,,119.1900063,None,,,,,,,1,2022_Mar_23_1432,Real-fake-judgement-flashing-group1,2021.1.2,60.00468781
6,Trial # 4,Group1-stimuli/group1-block1/real-group1-b1/Group1_IMG_0406.jpg,1,Group1_IMG_0406.jpg,,,,,0.0,3.0,3.0,3.0,,,,,,,,,,,,,,,,,,,121.2603242,None,,,1,2.219977345,123.7405223,None,123.7405223,None,,,122.572965,None,,,,,,,1,2022_Mar_23_1432,Real-fake-judgement-flashing-group1,2021.1.2,60.00468781
7,Trial # 5,Group1-stimuli/group1-block1/fake-group2-b1/encoded_Group2_IMG_0364.jpg,0,encoded_Group2_IMG_0364.jpg,,,,,0.0,4.0,4.0,4.0,,,,,,,,,,,,,,,,,,,125.9910117,None,,,0,1.323965195,128.4765343,None,128.4765343,None,,,127.2910395,None,,,,,,,1,2022_Mar_23_1432,Real-fake-judgement-flashing-group1,2021.1.2,60.00468781
8,Trial # 6,Group1-stimuli/group1-block1/fake-group2-b1/encoded_Group2_IMG_0407.jpg,0,encoded_Group2_IMG_0407.jpg,,,,,0.0,5.0,5.0,5.0,,,,,,,,,,,,,,,,,,,129.8252387,None,,,1,1.37091525,132.3095589,None,132.3095589,None,,,131.1429373,None,,,,,,,1,2022_Mar_23_1432,Real-fake-judgement-flashing-group1,2021.1.2,60.00468781
9,Trial # 7,Group1-stimuli/group1-block1/real-group1-b1/Group1_IMG_0428.jpg,1,Group1_IMG_0428.jpg,,,,,0.0,6.0,6.0,6.0,,,,,,,,,,,,,,,,,,,133.7103985,None,,,1,1.06336028,136.177139,None,136.177139,None,,,135.0100776,None,,,,,,,1,2022_Mar_23_1432,Real-fake-judgement-flashing-group1,2021.1.2,60.00468781
10,Trial # 8,Group1-stimuli/group1-block1/fake-group2-b1/encoded_Group2_IMG_0474.jpg,0,encoded_Group2_IMG_0474.jpg,,,,,0.0,7.0,7.0,7.0,,,,,,,,,,,,,,,,,,,137.261377,None,,,0,1.047789902,139.7287381,None,139.7287381,None,,,138.5790819,None,,,,,,,1,2022_Mar_23_1432,Real-fake-judgement-flashing-group1,2021.1.2,60.00468781
11,Trial # 9,Group1-stimuli/group1-block1/fake-group2-b1/encoded_Group2_IMG_1506.jpg,0,encoded_Group2_IMG_1506.jpg,,,,,0.0,8.0,8.0,8.0,,,,,,,,,,,,,,,,,,,140.7953714,None,,,0,2.99227465,143.2642244,None,143.2642244,None,,,142.1123343,None,,,,,,,1,2022_Mar_23_1432,Real-fake-judgement-flashing-group1,2021.1.2,60.00468781
12,Trial # 10,Group1-stimuli/group1-block1/real-group1-b1/Group1_IMG_9789.jpg,1,Group1_IMG_9789.jpg,,,,,0.0,9.0,9.0,9.0,,,,,,,,,,,,,,,,,,,146.2803386,None,,,1,1.562461686,148.7660485,None,148.7660485,None,,,147.5977945,None,,,,,,,1,2022_Mar_23_1432,Real-fake-judgement-flashing-group1,2021.1.2,60.00468781
13,Trial # 11,Group1-stimuli/group1-block1/real-group1-b1/Group1_IMG_9778.jpg,1,Group1_IMG_9778.jpg,,,,,0.0,10.0,10.0,10.0,,,,,,,,,,,,,,,,,,,150.3486874,None,,,1,0.326735926,152.8337623,None,152.8337623,None,,,151.6822002,None,,,,,,,1,2022_Mar_23_1432,Real-fake-judgement-flashing-group1,2021.1.2,60.00468781
14,Trial # 12,Group1-stimuli/group1-block1/real-group1-b1/Group1_IMG_9813.jpg,1,Group1_IMG_9813.jpg,,,,,0.0,11.0,11.0,11.0,,,,,,,,,,,,,,,,,,,153.1839474,None,,,1,1.630211186,155.6502898,None,155.6502898,None,,,154.4831506,None,,,,,,,1,2022_Mar_23_1432,Real-fake-judgement-flashing-group1,2021.1.2,60.00468781
15,Trial # 13,Group1-stimuli/group1-block1/real-group1-b1/Group1_IMG_0516.jpg,1,Group1_IMG_0516.jpg,,,,,0.0,12.0,12.0,12.0,,,,,,,,,,,,,,,,,,,157.3008541,None,,,0,0.53586581,159.7846346,None,159.7846346,None,,,158.6022659,None,,,,,,,1,2022_Mar_23_1432,Real-fake-judgement-flashing-group1,2021.1.2,60.00468781
16,Trial # 14,Group1-stimuli/group1-block1/fake-group2-b1/encoded_Group2_IMG_0038.jpg,0,encoded_Group2_IMG_0038.jpg,,,,,0.0,13.0,13.0,13.0,,,,,,,,,,,,,,,,,,,160.3516324,None,,,0,1.300635941,162.8197839,None,162.8197839,None,,,161.668641,None,,,,,,,1,2022_Mar_23_1432,Real-fake-judgement-flashing-group1,2021.1.2,60.00468781
17,Trial # 15,Group1-stimuli/group1-block1/real-group1-b1/Group1_IMG_5984.jpg,1,Group1_IMG_5984.jpg,,,,,0.0,14.0,14.0,14.0,,,,,,,,,,,,,,,,,,,164.1374255,None,,,1,1.452112573,166.6203251,None,166.6203251,None,,,165.453174,None,,,,,,,1,2022_Mar_23_1432,Real-fake-judgement-flashing-group1,2021.1.2,60.00468781
18,Trial # 16,Group1-stimuli/group1-block1/real-group1-b1/Group1_IMG_0383.jpg,1,Group1_IMG_0383.jpg,,,,,0.0,15.0,15.0,15.0,,,,,,,,,,,,,,,,,,,168.1053156,None,,,1,1.236259619,170.5882378,None,170.5882378,None,,,169.4210988,None,,,,,,,1,2022_Mar_23_1432,Real-fake-judgement-flashing-group1,2021.1.2,60.00468781
19,Trial # 17,Group1-stimuli/group1-block1/fake-group2-b1/encoded_Group2_IMG_0456.jpg,0,encoded_Group2_IMG_0456.jpg,,,,,0.0,16.0,16.0,16.0,,,,,,,,,,,,,,,,,,,171.8551342,None,,,1,0.619911877,174.3405889,None,174.3405889,None,,,173.1733966,None,,,,,,,1,2022_Mar_23_1432,Real-fake-judgement-flashing-group1,2021.1.2,60.00468781
20,Trial # 18,Group1-stimuli/group1-block1/fake-group2-b1/encoded_Group2_IMG_8390.jpg,0,encoded_Group2_IMG_8390.jpg,,,,,0.0,17.0,17.0,17.0,,,,,,,,,,,,,,,,,,,174.9895935,None,,,0,0.255632903,177.4568979,None,177.4568979,None,,,176.289853,None,,,,,,,1,2022_Mar_23_1432,Real-fake-judgement-flashing-group1,2021.1.2,60.00468781
21,Trial # 19,Group1-stimuli/group1-block1/real-group1-b1/Group1_IMG_0011.jpg,1,Group1_IMG_0011.jpg,,,,,0.0,18.0,18.0,18.0,,,,,,,,,,,,,,,,,,,177.7416092,None,,,0,0.719907712,180.2245928,None,180.2245928,None,,,179.0585629,None,,,,,,,1,2022_Mar_23_1432,Real-fake-judgement-flashing-group1,2021.1.2,60.00468781
22,Trial # 20,Group1-stimuli/group1-block1/fake-group2-b1/encoded_Group2_IMG_0328.jpg,0,encoded_Group2_IMG_0328.jpg,,,,,0.0,19.0,19.0,19.0,,,,,,,,,,,,,,,,,,,180.9752385,None,,,1,0.869970377,183.4425303,None,183.4425303,None,,,182.2750651,None,,,,,,,1,2022_Mar_23_1432,Real-fake-judgement-flashing-group1,2021.1.2,60.00468781
23,Trial # 21,Group1-stimuli/group1-block1/fake-group2-b1/encoded_Group2_IMG_0163.jpg,0,encoded_Group2_IMG_0163.jpg,,,,,0.0,20.0,20.0,20.0,,,,,,,,,,,,,,,,,,,184.3438864,None,,,1,1.12588463,186.826615,None,186.826615,None,,,185.6594233,None,,,,,,,1,2022_Mar_23_1432,Real-fake-judgement-flashing-group1,2021.1.2,60.00468781
24,Trial # 22,Group1-stimuli/group1-block1/real-group1-b1/Group1_IMG_9862.jpg,1,Group1_IMG_9862.jpg,,,,,0.0,21.0,21.0,21.0,,,,,,,,,,,,,,,,,,,187.9781295,None,,,0,0.588187165,190.444322,None,190.444322,None,,,189.2784025,None,,,,,,,1,2022_Mar_23_1432,Real-fake-judgement-flashing-group1,2021.1.2,60.00468781
25,Trial # 23,Group1-stimuli/group1-block1/fake-group2-b1/encoded_Group2_IMG_0296.jpg,0,encoded_Group2_IMG_0296.jpg,,,,,0.0,22.0,22.0,22.0,,,,,,,,,,,,,,,,,,,191.0618533,None,,,1,0.591358015,193.5291415,None,193.5291415,None,,,192.361041,None,,,,,,,1,2022_Mar_23_1432,Real-fake-judgement-flashing-group1,2021.1.2,60.00468781
26,Trial # 24,Group1-stimuli/group1-block1/fake-group2-b1/encoded_Group2_IMG_0503.jpg,0,encoded_Group2_IMG_0503.jpg,,,,,0.0,23.0,23.0,23.0,,,,,,,,,,,,,,,,,,,194.1469585,None,,,0,1.155368823,196.6291323,None,196.6291323,None,,,195.4624798,None,,,,,,,1,2022_Mar_23_1432,Real-fake-judgement-flashing-group1,2021.1.2,60.00468781
27,Trial # 25,Group1-stimuli/group1-block1/fake-group2-b1/encoded_Group2_IMG_9804.jpg,0,encoded_Group2_IMG_9804.jpg,,,,,0.0,24.0,24.0,24.0,,,,,,,,,,,,,,,,,,,197.8146746,None,,,0,1.272346812,200.2641536,None,200.2641536,None,,,199.0980621,None,,,,,,,1,2022_Mar_23_1432,Real-fake-judgement-flashing-group1,2021.1.2,60.00468781
28,Trial # 26,Group1-stimuli/group1-block1/real-group1-b1/Group1_IMG_0391.jpg,1,Group1_IMG_0391.jpg,,,,,0.0,25.0,25.0,25.0,,,,,,,,,,,,,,,,,,,201.5645801,None,,,1,0.495500676,204.0330113,None,204.0330113,None,,,202.8659746,None,,,,,,,1,2022_Mar_23_1432,Real-fake-judgement-flashing-group1,2021.1.2,60.00468781
29,Trial # 27,Group1-stimuli/group1-block1/fake-group2-b1/encoded_Group2_IMG_3584.jpg,0,encoded_Group2_IMG_3584.jpg,,,,,0.0,26.0,26.0,26.0,,,,,,,,,,,,,,,,,,,204.5485694,None,,,1,4.776992452,206.9995061,None,206.9995061,None,,,205.8322384,None,,,,,,,1,2022_Mar_23_1432,Real-fake-judgement-flashing-group1,2021.1.2,60.00468781
30,Trial # 28,Group1-stimuli/group1-block1/fake-group2-b1/encoded_Group2_IMG_0434.jpg,0,encoded_Group2_IMG_0434.jpg,,,,,0.0,27.0,27.0,27.0,,,,,,,,,,,,,,,,,,,211.8009419,None,,,0,2.396278984,214.2522215,None,214.2522215,None,,,213.0857687,None,,,,,,,1,2022_Mar_23_1432,Real-fake-judgement-flashing-group1,2021.1.2,60.00468781
31,Trial # 29,Group1-stimuli/group1-block1/fake-group2-b1/encoded_Group2_IMG_9575.jpg,0,encoded_Group2_IMG_9575.jpg,,,,,0.0,28.0,28.0,28.0,,,,,,,,,,,,,,,,,,,216.6689666,None,,,1,0.694788587,219.1377105,None,219.1377105,None,,,217.9705715,None,,,,,,,1,2022_Mar_23_1432,Real-fake-judgement-flashing-group1,2021.1.2,60.00468781
32,Trial # 30,Group1-stimuli/group1-block1/fake-group2-b1/encoded_Group2_IMG_1025.jpg,0,encoded_Group2_IMG_1025.jpg,,,,,0.0,29.0,29.0,29.0,,,,,,,,,,,,,,,,,,,219.8539192,None,,,0,3.999657982,222.3208485,None,222.3208485,None,,,221.1537197,None,,,,,,,1,2022_Mar_23_1432,Real-fake-judgement-flashing-group1,2021.1.2,60.00468781
33,Trial # 31,Group1-stimuli/group1-block1/real-group1-b1/Group1_IMG_0502.jpg,1,Group1_IMG_0502.jpg,,,,,0.0,30.0,30.0,30.0,,,,,,,,,,,,,,,,,,,226.3387924,None,,,0,2.384945967,228.8075556,None,228.8075556,None,,,227.6389506,None,,,,,,,1,2022_Mar_23_1432,Real-fake-judgement-flashing-group1,2021.1.2,60.00468781
34,Trial # 32,Group1-stimuli/group1-block1/real-group1-b1/Group1_IMG_0182.jpg,1,Group1_IMG_0182.jpg,,,,,0.0,31.0,31.0,31.0,,,,,,,,,,,,,,,,,,,231.2235567,None,,,1,0.396144124,233.6923724,None,233.6923724,None,,,232.5571669,None,,,,,,,1,2022_Mar_23_1432,Real-fake-judgement-flashing-group1,2021.1.2,60.00468781
35,Trial # 33,Group1-stimuli/group1-block1/fake-group2-b1/encoded_Group2_IMG_2728.jpg,0,encoded_Group2_IMG_2728.jpg,,,,,0.0,32.0,32.0,32.0,,,,,,,,,,,,,,,,,,,234.108092,None,,,1,0.593846313,236.5586522,None,236.5586522,None,,,235.3914904,None,,,,,,,1,2022_Mar_23_1432,Real-fake-judgement-flashing-group1,2021.1.2,60.00468781
36,Trial # 34,Group1-stimuli/group1-block1/fake-group2-b1/encoded_Group2_IMG_4867.jpg,0,encoded_Group2_IMG_4867.jpg,,,,,0.0,33.0,33.0,33.0,,,,,,,,,,,,,,,,,,,237.174695,None,,,1,1.843797061,239.6607014,None,239.6607014,None,,,238.4767129,None,,,,,,,1,2022_Mar_23_1432,Real-fake-judgement-flashing-group1,2021.1.2,60.00468781
37,Trial # 35,Group1-stimuli/group1-block1/real-group1-b1/Group1_IMG_9894.jpg,1,Group1_IMG_9894.jpg,,,,,0.0,34.0,34.0,34.0,,,,,,,,,,,,,,,,,,,241.527717,None,,,0,1.348395407,244.0120997,None,244.0120997,None,,,242.828281,None,,,,,,,1,2022_Mar_23_1432,Real-fake-judgement-flashing-group1,2021.1.2,60.00468781
38,Trial # 36,Group1-stimuli/group1-block1/fake-group2-b1/encoded_Group2_IMG_0444.jpg,0,encoded_Group2_IMG_0444.jpg,,,,,0.0,35.0,35.0,35.0,,,,,,,,,,,,,,,,,,,245.3781409,None,,,0,0.442659508,247.82983,None,247.82983,None,,,246.6616941,None,,,,,,,1,2022_Mar_23_1432,Real-fake-judgement-flashing-group1,2021.1.2,60.00468781
39,Trial # 37,Group1-stimuli/group1-block1/real-group1-b1/Group1_IMG_2656.jpg,1,Group1_IMG_2656.jpg,,,,,0.0,36.0,36.0,36.0,,,,,,,,,,,,,,,,,,,248.2973462,None,,,1,0.228607248,250.7798907,None,250.7798907,None,,,249.6139169,None,,,,,,,1,2022_Mar_23_1432,Real-fake-judgement-flashing-group1,2021.1.2,60.00468781
40,Trial # 38,Group1-stimuli/group1-block1/real-group1-b1/Group1_IMG_0207.jpg,1,Group1_IMG_0207.jpg,,,,,0.0,37.0,37.0,37.0,,,,,,,,,,,,,,,,,,,251.0295265,None,,,1,0.318103659,253.4984062,None,253.4984062,None,,,252.3468429,None,,,,,,,1,2022_Mar_23_1432,Real-fake-judgement-flashing-group1,2021.1.2,60.00468781
41,Trial # 39,Group1-stimuli/group1-block1/real-group1-b1/Group1_IMG_9638.jpg,1,Group1_IMG_9638.jpg,,,,,0.0,38.0,38.0,38.0,,,,,,,,,,,,,,,,,,,253.8485541,None,,,1,0.837265271,256.3312342,None,256.3312342,None,,,255.1644419,None,,,,,,,1,2022_Mar_23_1432,Real-fake-judgement-flashing-group1,2021.1.2,60.00468781
42,Trial # 40,Group1-stimuli/group1-block1/real-group1-b1/Group1_IMG_0148.jpg,1,Group1_IMG_0148.jpg,,,,,0.0,39.0,39.0,39.0,,,,,,,,,,,,,,,,,,,257.1985966,None,,,1,0.30235635,259.6661446,None,259.6661446,None,,,258.5156881,None,,,,,,,1,2022_Mar_23_1432,Real-fake-judgement-flashing-group1,2021.1.2,60.00468781
43,Trial # 41,Group1-stimuli/group1-block1/real-group1-b1/Group1_IMG_2891.jpg,1,Group1_IMG_2891.jpg,,,,,0.0,40.0,40.0,40.0,,,,,,,,,,,,,,,,,,,259.99949,None,,,1,1.25356154,262.4829398,None,262.4829398,None,,,261.3163203,None,,,,,,,1,2022_Mar_23_1432,Real-fake-judgement-flashing-group1,2021.1.2,60.00468781
44,Trial # 42,Group1-stimuli/group1-block1/real-group1-b1/Group1_IMG_0157.jpg,1,Group1_IMG_0157.jpg,,,,,0.0,41.0,41.0,41.0,,,,,,,,,,,,,,,,,,,263.7674762,None,,,1,1.157283983,266.2512171,None,266.2512171,None,,,265.0840566,None,,,,,,,1,2022_Mar_23_1432,Real-fake-judgement-flashing-group1,2021.1.2,60.00468781
45,Trial # 43,Group1-stimuli/group1-block1/real-group1-b1/Group1_IMG_9833.jpg,1,Group1_IMG_9833.jpg,,,,,0.0,42.0,42.0,42.0,,,,,,,,,,,,,,,,,,,267.4345843,None,,,0,1.881571138,269.9188614,None,269.9188614,None,,,268.7530474,None,,,,,,,1,2022_Mar_23_1432,Real-fake-judgement-flashing-group1,2021.1.2,60.00468781
46,Trial # 44,Group1-stimuli/group1-block1/fake-group2-b1/encoded_Group2_IMG_2230.jpg,0,encoded_Group2_IMG_2230.jpg,,,,,0.0,43.0,43.0,43.0,,,,,,,,,,,,,,,,,,,271.8195426,None,,,1,1.567507907,274.3049171,None,274.3049171,None,,,273.1377045,None,,,,,,,1,2022_Mar_23_1432,Real-fake-judgement-flashing-group1,2021.1.2,60.00468781
47,Trial # 45,Group1-stimuli/group1-block1/real-group1-b1/Group1_IMG_9966.jpg,1,Group1_IMG_9966.jpg,,,,,0.0,44.0,44.0,44.0,,,,,,,,,,,,,,,,,,,275.9043039,None,,,0,2.267064969,278.3893698,None,278.3893698,None,,,277.2211091,None,,,,,,,1,2022_Mar_23_1432,Real-fake-judgement-flashing-group1,2021.1.2,60.00468781
48,Trial # 46,Group1-stimuli/group1-block1/real-group1-b1/Group1_IMG_0239.jpg,1,Group1_IMG_0239.jpg,,,,,0.0,45.0,45.0,45.0,,,,,,,,,,,,,,,,,,,280.6889896,None,,,1,2.219001043,283.1574991,None,283.1574991,None,,,281.9892919,None,,,,,,,1,2022_Mar_23_1432,Real-fake-judgement-flashing-group1,2021.1.2,60.00468781
49,Trial # 47,Group1-stimuli/group1-block1/fake-group2-b1/encoded_Group2_IMG_0536.jpg,0,encoded_Group2_IMG_0536.jpg,,,,,0.0,46.0,46.0,46.0,,,,,,,,,,,,,,,,,,,285.4072085,None,,,0,0.606307808,287.8581937,None,287.8581937,None,,,286.6906671,None,,,,,,,1,2022_Mar_23_1432,Real-fake-judgement-flashing-group1,2021.1.2,60.00468781
50,Trial # 48,Group1-stimuli/group1-block1/fake-group2-b1/encoded_Group2_IMG_0521.jpg,0,encoded_Group2_IMG_0521.jpg,,,,,0.0,47.0,47.0,47.0,,,,,,,,,,,,,,,,,,,288.4927877,None,,,0,1.274267567,290.9421635,None,290.9421635,None,,,289.7755549,None,,,,,,,1,2022_Mar_23_1432,Real-fake-judgement-flashing-group1,2021.1.2,60.00468781
51,Trial # 49,Group1-stimuli/group1-block1/fake-group2-b1/encoded_Group2_IMG_9924.jpg,0,encoded_Group2_IMG_9924.jpg,,,,,0.0,48.0,48.0,48.0,,,,,,,,,,,,,,,,,,,292.2430882,None,,,0,0.834510152,294.7099331,None,294.7099331,None,,,293.544099,None,,,,,,,1,2022_Mar_23_1432,Real-fake-judgement-flashing-group1,2021.1.2,60.00468781
52,Trial # 50,Group1-stimuli/group1-block1/real-group1-b1/Group1_IMG_9730.jpg,1,Group1_IMG_9730.jpg,,,,,0.0,49.0,49.0,49.0,,,,,,,,,,,,,,,,,,,295.5773643,None,,,1,0.330902205,298.0455693,None,298.0455693,None,,,296.8938712,None,,,,,,,1,2022_Mar_23_1432,Real-fake-judgement-flashing-group1,2021.1.2,60.00468781
53,Trial # 51,Group1-stimuli/group1-block1/real-group1-b1/Group1_IMG_0053.jpg,1,Group1_IMG_0053.jpg,,,,,0.0,50.0,50.0,50.0,,,,,,,,,,,,,,,,,,,298.3957451,None,,,0,0.962702069,300.8618149,None,300.8618149,None,,,299.6945133,None,,,,,,,1,2022_Mar_23_1432,Real-fake-judgement-flashing-group1,2021.1.2,60.00468781
54,Trial # 52,Group1-stimuli/group1-block1/real-group1-b1/Group1_IMG_9698.jpg,1,Group1_IMG_9698.jpg,,,,,0.0,51.0,51.0,51.0,,,,,,,,,,,,,,,,,,,301.8453888,None,,,0,0.486310613,304.3141956,None,304.3141956,None,,,303.1470017,None,,,,,,,1,2022_Mar_23_1432,Real-fake-judgement-flashing-group1,2021.1.2,60.00468781
55,Trial # 53,Group1-stimuli/group1-block1/fake-group2-b1/encoded_Group2_IMG_0553.jpg,0,encoded_Group2_IMG_0553.jpg,,,,,0.0,52.0,52.0,52.0,,,,,,,,,,,,,,,,,,,304.8312651,None,,,1,0.510529347,307.3139764,None,307.3139764,None,,,306.146682,None,,,,,,,1,2022_Mar_23_1432,Real-fake-judgement-flashing-group1,2021.1.2,60.00468781
56,Trial # 54,Group1-stimuli/group1-block1/fake-group2-b1/encoded_Group2_IMG_9758.jpg,0,encoded_Group2_IMG_9758.jpg,,,,,0.0,53.0,53.0,53.0,,,,,,,,,,,,,,,,,,,307.8477895,None,,,1,1.10185513,310.3146336,None,310.3146336,None,,,309.1488055,None,,,,,,,1,2022_Mar_23_1432,Real-fake-judgement-flashing-group1,2021.1.2,60.00468781
57,Trial # 55,Group1-stimuli/group1-block1/fake-group2-b1/encoded_Group2_IMG_0339.jpg,0,encoded_Group2_IMG_0339.jpg,,,,,0.0,54.0,54.0,54.0,,,,,,,,,,,,,,,,,,,311.4484046,None,,,1,0.45222846,313.9162803,None,313.9162803,None,,,312.7666079,None,,,,,,,1,2022_Mar_23_1432,Real-fake-judgement-flashing-group1,2021.1.2,60.00468781
58,Trial # 56,Group1-stimuli/group1-block1/real-group1-b1/Group1_IMG_0314.jpg,1,Group1_IMG_0314.jpg,,,,,0.0,55.0,55.0,55.0,,,,,,,,,,,,,,,,,,,314.4008814,None,,,0,0.644629311,316.8839191,None,316.8839191,None,,,315.7164108,None,,,,,,,1,2022_Mar_23_1432,Real-fake-judgement-flashing-group1,2021.1.2,60.00468781
59,Trial # 57,Group1-stimuli/group1-block1/fake-group2-b1/encoded_Group2_IMG_0532.jpg,0,encoded_Group2_IMG_0532.jpg,,,,,0.0,56.0,56.0,56.0,,,,,,,,,,,,,,,,,,,317.5503414,None,,,0,1.038635004,320.0178729,None,320.0178729,None,,,318.8352251,None,,,,,,,1,2022_Mar_23_1432,Real-fake-judgement-flashing-group1,2021.1.2,60.00468781
60,Trial # 58,Group1-stimuli/group1-block1/fake-group2-b1/encoded_Group2_IMG_0462.jpg,0,encoded_Group2_IMG_0462.jpg,,,,,0.0,57.0,57.0,57.0,,,,,,,,,,,,,,,,,,,321.0856676,None,,,1,1.839669939,323.5368377,None,323.5368377,None,,,322.3679722,None,,,,,,,1,2022_Mar_23_1432,Real-fake-judgement-flashing-group1,2021.1.2,60.00468781
61,Trial # 59,Group1-stimuli/group1-block1/real-group1-b1/Group1_IMG_0172.jpg,1,Group1_IMG_0172.jpg,,,,,0.0,58.0,58.0,58.0,,,,,,,,,,,,,,,,,,,325.4028956,None,,,0,2.313300106,327.8872049,None,327.8872049,None,,,326.7198224,None,,,,,,,1,2022_Mar_23_1432,Real-fake-judgement-flashing-group1,2021.1.2,60.00468781
62,Trial # 60,Group1-stimuli/group1-block1/real-group1-b1/Group1_IMG_4841.jpg,1,Group1_IMG_4841.jpg,,,,,0.0,59.0,59.0,59.0,,,,,,,,,,,,,,,,,,,330.2218949,None,,,1,0.783023045,332.7054819,None,332.7054819,None,,,331.5382842,None,,,,,,,1,2022_Mar_23_1432,Real-fake-judgement-flashing-group1,2021.1.2,60.00468781
63,Trial # 61,Group1-stimuli/group1-block1/fake-group2-b1/encoded_Group2_IMG_0352.jpg,0,encoded_Group2_IMG_0352.jpg,,,,,0.0,60.0,60.0,60.0,,,,,,,,,,,,,,,,,,,333.5060099,None,,,0,0.243905365,335.9726131,None,335.9726131,None,,,334.7901313,None,,,,,,,1,2022_Mar_23_1432,Real-fake-judgement-flashing-group1,2021.1.2,60.00468781
64,Trial # 62,Group1-stimuli/group1-block1/fake-group2-b1/encoded_Group2_IMG_9726.jpg,0,encoded_Group2_IMG_9726.jpg,,,,,0.0,61.0,61.0,61.0,,,,,,,,,,,,,,,,,,,336.2396251,None,,,0,1.532471369,338.7079459,None,338.7079459,None,,,337.5394728,None,,,,,,,1,2022_Mar_23_1432,Real-fake-judgement-flashing-group1,2021.1.2,60.00468781
65,Trial # 63,Group1-stimuli/group1-block1/fake-group2-b1/encoded_Group2_IMG_9785.jpg,0,encoded_Group2_IMG_9785.jpg,,,,,0.0,62.0,62.0,62.0,,,,,,,,,,,,,,,,,,,340.2584077,None,,,0,0.94735142,342.7251465,None,342.7251465,None,,,341.5576952,None,,,,,,,1,2022_Mar_23_1432,Real-fake-judgement-flashing-group1,2021.1.2,60.00468781
66,Trial # 64,Group1-stimuli/group1-block1/fake-group2-b1/encoded_Group2_IMG_0440.jpg,0,encoded_Group2_IMG_0440.jpg,,,,,0.0,63.0,63.0,63.0,,,,,,,,,,,,,,,,,,,343.6927751,None,,,0,1.537965588,346.1425438,None,346.1425438,None,,,344.9754616,None,,,,,,,1,2022_Mar_23_1432,Real-fake-judgement-flashing-group1,2021.1.2,60.00468781
67,Trial # 65,Group1-stimuli/group1-block1/fake-group2-b1/encoded_Group2_IMG_1695.jpg,0,encoded_Group2_IMG_1695.jpg,,,,,0.0,64.0,64.0,64.0,,,,,,,,,,,,,,,,,,,347.7109632,None,,,1,1.05603476,350.1604647,None,350.1604647,None,,,348.9945533,None,,,,,,,1,2022_Mar_23_1432,Real-fake-judgement-flashing-group1,2021.1.2,60.00468781
68,Trial # 66,Group1-stimuli/group1-block1/real-group1-b1/Group1_IMG_0552.jpg,1,Group1_IMG_0552.jpg,,,,,0.0,65.0,65.0,65.0,,,,,,,,,,,,,,,,,,,351.2442008,None,,,1,0.976689102,353.7118197,None,353.7118197,None,,,352.560913,None,,,,,,,1,2022_Mar_23_1432,Real-fake-judgement-flashing-group1,2021.1.2,60.00468781
69,Trial # 67,Group1-stimuli/group1-block1/real-group1-b1/Group1_IMG_1029.jpg,1,Group1_IMG_1029.jpg,,,,,0.0,66.0,66.0,66.0,,,,,,,,,,,,,,,,,,,354.7117269,None,,,0,1.477106484,357.1793993,None,357.1793993,None,,,356.0123666,None,,,,,,,1,2022_Mar_23_1432,Real-fake-judgement-flashing-group1,2021.1.2,60.00468781
70,Trial # 68,Group1-stimuli/group1-block1/fake-group2-b1/encoded_Group2_IMG_6517.jpg,0,encoded_Group2_IMG_6517.jpg,,,,,0.0,67.0,67.0,67.0,,,,,,,,,,,,,,,,,,,358.6809444,None,,,1,1.884595395,361.1639059,None,361.1639059,None,,,359.9800311,None,,,,,,,1,2022_Mar_23_1432,Real-fake-judgement-flashing-group1,2021.1.2,60.00468781
71,Trial # 69,Group1-stimuli/group1-block1/fake-group2-b1/encoded_Group2_IMG_0002.jpg,0,encoded_Group2_IMG_0002.jpg,,,,,0.0,68.0,68.0,68.0,,,,,,,,,,,,,,,,,,,363.0657462,None,,,1,1.324643808,365.5318544,None,365.5318544,None,,,364.3659539,None,,,,,,,1,2022_Mar_23_1432,Real-fake-judgement-flashing-group1,2021.1.2,60.00468781
72,Trial # 70,Group1-stimuli/group1-block1/real-group1-b1/Group1_IMG_0495.jpg,1,Group1_IMG_0495.jpg,,,,,0.0,69.0,69.0,69.0,,,,,,,,,,,,,,,,,,,366.8827608,None,,,1,0.434005151,369.3664327,None,369.3664327,None,,,368.200471,None,,,,,,,1,2022_Mar_23_1432,Real-fake-judgement-flashing-group1,2021.1.2,60.00468781
73,Trial # 71,Group1-stimuli/group1-block1/real-group1-b1/Group1_IMG_1391.jpg,1,Group1_IMG_1391.jpg,,,,,0.0,70.0,70.0,70.0,,,,,,,,,,,,,,,,,,,369.8331174,None,,,1,2.195957771,372.3005625,None,372.3005625,None,,,371.1501767,None,,,,,,,1,2022_Mar_23_1432,Real-fake-judgement-flashing-group1,2021.1.2,60.00468781
74,Trial # 72,Group1-stimuli/group1-block1/real-group1-b1/Group1_IMG_0343.jpg,1,Group1_IMG_0343.jpg,,,,,0.0,71.0,71.0,71.0,,,,,,,,,,,,,,,,,,,374.5187284,None,,,1,1.550349067,377.0022093,None,377.0022093,None,,,375.8349562,None,,,,,,,1,2022_Mar_23_1432,Real-fake-judgement-flashing-group1,2021.1.2,60.00468781
75,Trial # 73,Group1-stimuli/group1-block1/fake-group2-b1/encoded_Group2_IMG_9810.jpg,0,encoded_Group2_IMG_9810.jpg,,,,,0.0,72.0,72.0,72.0,,,,,,,,,,,,,,,,,,,378.5705374,None,,,0,0.467931387,381.0364965,None,381.0364965,None,,,379.869559,None,,,,,,,1,2022_Mar_23_1432,Real-fake-judgement-flashing-group1,2021.1.2,60.00468781
76,Trial # 74,Group1-stimuli/group1-block1/fake-group2-b1/encoded_Group2_IMG_5900.jpg,0,encoded_Group2_IMG_5900.jpg,,,,,0.0,73.0,73.0,73.0,,,,,,,,,,,,,,,,,,,381.537654,None,,,0,1.859797957,384.0046957,None,384.0046957,None,,,382.8549768,None,,,,,,,1,2022_Mar_23_1432,Real-fake-judgement-flashing-group1,2021.1.2,60.00468781
77,Trial # 75,Group1-stimuli/group1-block1/real-group1-b1/Group1_IMG_9679.jpg,1,Group1_IMG_9679.jpg,,,,,0.0,74.0,74.0,74.0,,,,,,,,,,,,,,,,,,,385.8879897,None,,,0,4.340614786,388.3558866,None,388.3558866,None,,,387.2052004,None,,,,,,,1,2022_Mar_23_1432,Real-fake-judgement-flashing-group1,2021.1.2,60.00468781
78,Trial # 76,Group1-stimuli/group1-block1/fake-group2-b1/encoded_Group2_IMG_4249.jpg,0,encoded_Group2_IMG_4249.jpg,,,,,0.0,75.0,75.0,75.0,,,,,,,,,,,,,,,,,,,392.724128,None,,,0,0.146007127,395.1744983,None,395.1744983,None,,,394.0084446,None,,,,,,,1,2022_Mar_23_1432,Real-fake-judgement-flashing-group1,2021.1.2,60.00468781
79,Trial # 77,Group1-stimuli/group1-block1/fake-group2-b1/encoded_Group2_IMG_0174.jpg,0,encoded_Group2_IMG_0174.jpg,,,,,0.0,76.0,76.0,76.0,,,,,,,,,,,,,,,,,,,395.3411593,None,,,1,0.3842189,397.7922013,None,397.7922013,None,,,396.6247653,None,,,,,,,1,2022_Mar_23_1432,Real-fake-judgement-flashing-group1,2021.1.2,60.00468781
80,Trial # 78,Group1-stimuli/group1-block1/fake-group2-b1/encoded_Group2_IMG_0475.jpg,0,encoded_Group2_IMG_0475.jpg,,,,,0.0,77.0,77.0,77.0,,,,,,,,,,,,,,,,,,,398.2096499,None,,,0,1.516317318,400.6761923,None,400.6761923,None,,,399.5090056,None,,,,,,,1,2022_Mar_23_1432,Real-fake-judgement-flashing-group1,2021.1.2,60.00468781
81,Trial # 79,Group1-stimuli/group1-block1/fake-group2-b1/encoded_Group2_IMG_9751.jpg,0,encoded_Group2_IMG_9751.jpg,,,,,0.0,78.0,78.0,78.0,,,,,,,,,,,,,,,,,,,402.2104357,None,,,1,0.803029377,404.677457,None,404.677457,None,,,403.494689,None,,,,,,,1,2022_Mar_23_1432,Real-fake-judgement-flashing-group1,2021.1.2,60.00468781
82,Trial # 80,Group1-stimuli/group1-block1/fake-group2-b1/encoded_Group2_IMG_0492.jpg,0,encoded_Group2_IMG_0492.jpg,,,,,0.0,79.0,79.0,79.0,,,,,,,,,,,,,,,,,,,405.5116185,None,,,0,0.045827352,407.9786788,None,407.9786788,None,,,406.8112827,None,,,,,,,1,2022_Mar_23_1432,Real-fake-judgement-flashing-group1,2021.1.2,60.00468781
83,Trial # 81,Group1-stimuli/group1-block1/real-group1-b1/Group1_IMG_0535.jpg,1,Group1_IMG_0535.jpg,,,,,0.0,80.0,80.0,80.0,,,,,,,,,,,,,,,,,,,408.0463603,None,,,1,1.303777939,410.5287476,None,410.5287476,None,,,409.3633448,None,,,,,,,1,2022_Mar_23_1432,Real-fake-judgement-flashing-group1,2021.1.2,60.00468781
84,Trial # 82,Group1-stimuli/group1-block1/real-group1-b1/Group1_IMG_0077.jpg,1,Group1_IMG_0077.jpg,,,,,0.0,81.0,81.0,81.0,,,,,,,,,,,,,,,,,,,411.8628441,None,,,0,1.628843524,414.3316558,None,414.3316558,None,,,413.163612,None,,,,,,,1,2022_Mar_23_1432,Real-fake-judgement-flashing-group1,2021.1.2,60.00468781
85,Trial # 83,Group1-stimuli/group1-block1/fake-group2-b1/encoded_Group2_IMG_9702.jpg,0,encoded_Group2_IMG_9702.jpg,,,,,0.0,82.0,82.0,82.0,,,,,,,,,,,,,,,,,,,415.9803614,None,,,0,2.352566646,418.4319409,None,418.4319409,None,,,417.26422,None,,,,,,,1,2022_Mar_23_1432,Real-fake-judgement-flashing-group1,2021.1.2,60.00468781
86,Trial # 84,Group1-stimuli/group1-block1/real-group1-b1/Group1_IMG_0357.jpg,1,Group1_IMG_0357.jpg,,,,,0.0,83.0,83.0,83.0,,,,,,,,,,,,,,,,,,,420.8159032,None,,,0,1.549058019,423.2834521,None,423.2834521,None,,,422.1159294,None,,,,,,,1,2022_Mar_23_1432,Real-fake-judgement-flashing-group1,2021.1.2,60.00468781
87,Trial # 85,Group1-stimuli/group1-block1/real-group1-b1/Group1_IMG_9772.jpg,1,Group1_IMG_9772.jpg,,,,,0.0,84.0,84.0,84.0,,,,,,,,,,,,,,,,,,,424.8507968,None,,,1,0.722910181,427.3175899,None,427.3175899,None,,,426.1673651,None,,,,,,,1,2022_Mar_23_1432,Real-fake-judgement-flashing-group1,2021.1.2,60.00468781
88,Trial # 86,Group1-stimuli/group1-block1/real-group1-b1/Group1_IMG_0482.jpg,1,Group1_IMG_0482.jpg,,,,,0.0,85.0,85.0,85.0,,,,,,,,,,,,,,,,,,,428.068451,None,,,1,0.592506413,430.5519943,None,430.5519943,None,,,429.3860083,None,,,,,,,1,2022_Mar_23_1432,Real-fake-judgement-flashing-group1,2021.1.2,60.00468781
89,Trial # 87,Group1-stimuli/group1-block1/real-group1-b1/Group1_IMG_0299.jpg,1,Group1_IMG_0299.jpg,,,,,0.0,86.0,86.0,86.0,,,,,,,,,,,,,,,,,,,431.1689276,None,,,0,3.611690857,433.6367956,None,433.6367956,None,,,432.4691735,None,,,,,,,1,2022_Mar_23_1432,Real-fake-judgement-flashing-group1,2021.1.2,60.00468781
90,Trial # 88,Group1-stimuli/group1-block1/fake-group2-b1/encoded_Group2_IMG_0301.jpg,0,encoded_Group2_IMG_0301.jpg,,,,,0.0,87.0,87.0,87.0,,,,,,,,,,,,,,,,,,,437.2704821,None,,,0,0.517501596,439.7549366,None,439.7549366,None,,,438.5723677,None,,,,,,,1,2022_Mar_23_1432,Real-fake-judgement-flashing-group1,2021.1.2,60.00468781
91,Trial # 89,Group1-stimuli/group1-block1/fake-group2-b1/encoded_Group2_IMG_5136.jpg,0,encoded_Group2_IMG_5136.jpg,,,,,0.0,88.0,88.0,88.0,,,,,,,,,,,,,,,,,,,440.3050503,None,,,0,1.827831573,442.7726672,None,442.7726672,None,,,441.605304,None,,,,,,,1,2022_Mar_23_1432,Real-fake-judgement-flashing-group1,2021.1.2,60.00468781
92,Trial # 90,Group1-stimuli/group1-block1/real-group1-b1/Group1_IMG_0460.jpg,1,Group1_IMG_0460.jpg,,,,,0.0,89.0,89.0,89.0,,,,,,,,,,,,,,,,,,,444.6236742,None,,,1,1.093827377,447.106692,None,447.106692,None,,,445.9399726,None,,,,,,,1,2022_Mar_23_1432,Real-fake-judgement-flashing-group1,2021.1.2,60.00468781
93,Trial # 91,Group1-stimuli/group1-block1/fake-group2-b1/encoded_Group2_IMG_0068.jpg,0,encoded_Group2_IMG_0068.jpg,,,,,0.0,90.0,90.0,90.0,,,,,,,,,,,,,,,,,,,448.2251909,None,,,0,0.397233639,450.6912708,None,450.6912708,None,,,449.5254099,None,,,,,,,1,2022_Mar_23_1432,Real-fake-judgement-flashing-group1,2021.1.2,60.00468781
94,Trial # 92,Group1-stimuli/group1-block1/real-group1-b1/Group1_IMG_0337.jpg,1,Group1_IMG_0337.jpg,,,,,0.0,91.0,91.0,91.0,,,,,,,,,,,,,,,,,,,451.1088411,None,,,0,0.126802781,453.5936971,None,453.5936971,None,,,452.4087251,None,,,,,,,1,2022_Mar_23_1432,Real-fake-judgement-flashing-group1,2021.1.2,60.00468781
95,Trial # 93,Group1-stimuli/group1-block1/fake-group2-b1/encoded_Group2_IMG_0346.jpg,0,encoded_Group2_IMG_0346.jpg,,,,,0.0,92.0,92.0,92.0,,,,,,,,,,,,,,,,,,,453.7427133,None,,,0,0.070071519,456.2264295,None,456.2264295,None,,,455.0440633,None,,,,,,,1,2022_Mar_23_1432,Real-fake-judgement-flashing-group1,2021.1.2,60.00468781
96,Trial # 94,Group1-stimuli/group1-block1/real-group1-b1/Group1_IMG_4253.jpg,1,Group1_IMG_4253.jpg,,,,,0.0,93.0,93.0,93.0,,,,,,,,,,,,,,,,,,,456.3264285,None,,,0,2.484591169,458.8119177,None,458.8119177,None,,,457.6269726,None,,,,,,,1,2022_Mar_23_1432,Real-fake-judgement-flashing-group1,2021.1.2,60.00468781
97,Trial # 95,Group1-stimuli/group1-block1/fake-group2-b1/encoded_Group2_IMG_9280.jpg,0,encoded_Group2_IMG_9280.jpg,,,,,0.0,94.0,94.0,94.0,,,,,,,,,,,,,,,,,,,461.3285504,None,,,0,0.573302074,463.7792043,None,463.7792043,None,,,462.6117825,None,,,,,,,1,2022_Mar_23_1432,Real-fake-judgement-flashing-group1,2021.1.2,60.00468781
98,Trial # 96,Group1-stimuli/group1-block1/real-group1-b1/Group1_IMG_0417.jpg,1,Group1_IMG_0417.jpg,,,,,0.0,95.0,95.0,95.0,,,,,,,,,,,,,,,,,,,464.3795373,None,,,1,2.193664475,466.8628348,None,466.8628348,None,,,465.6958882,None,,,,,,,1,2022_Mar_23_1432,Real-fake-judgement-flashing-group1,2021.1.2,60.00468781
99,Trial # 97,Group1-stimuli/group1-block1/fake-group2-b1/encoded_Group2_IMG_9695.jpg,0,encoded_Group2_IMG_9695.jpg,,,,,0.0,96.0,96.0,96.0,,,,,,,,,,,,,,,,,,,469.0806827,None,,,1,0.204380728,471.5481458,None,471.5481458,None,,,470.3806527,None,,,,,,,1,2022_Mar_23_1432,Real-fake-judgement-flashing-group1,2021.1.2,60.00468781
100,Trial # 98,Group1-stimuli/group1-block1/real-group1-b1/Group1_IMG_1160.jpg,1,Group1_IMG_1160.jpg,,,,,0.0,97.0,97.0,97.0,,,,,,,,,,,,,,,,,,,471.7810506,None,,,1,1.878475403,474.2500193,None,474.2500193,None,,,473.0996058,None,,,,,,,1,2022_Mar_23_1432,Real-fake-judgement-flashing-group1,2021.1.2,60.00468781
101,Trial # 99,Group1-stimuli/group1-block1/real-group1-b1/Group1_IMG_0448.jpg,1,Group1_IMG_0448.jpg,,,,,0.0,98.0,98.0,98.0,,,,,,,,,,,,,,,,,,,476.1500357,None,,,0,0.189828745,478.6347181,None,478.6347181,None,,,477.449698,None,,,,,,,1,2022_Mar_23_1432,Real-fake-judgement-flashing-group1,2021.1.2,60.00468781
102,Trial # 100,Group1-stimuli/group1-block1/fake-group2-b1/encoded_Group2_IMG_0393.jpg,0,encoded_Group2_IMG_0393.jpg,,,,,0.0,99.0,99.0,99.0,,,,,,,,,,,,,,,,,,,478.8508935,None,,,0,0.107641848,481.3008566,None,481.3008566,None,,,480.1339124,None,,,,,,,1,2022_Mar_23_1432,Real-fake-judgement-flashing-group1,2021.1.2,60.00468781
103,Trial # 101,Group1-stimuli/group1-block1/real-group1-b1/Group1_IMG_0090.jpg,1,Group1_IMG_0090.jpg,,,,,0.0,100.0,100.0,100.0,,,,,,,,,,,,,,,,,,,481.4348314,None,,,1,0.321442128,483.9030666,None,483.9030666,None,,,482.7527289,None,,,,,,,1,2022_Mar_23_1432,Real-fake-judgement-flashing-group1,2021.1.2,60.00468781
104,Trial # 102,Group1-stimuli/group1-block1/real-group1-b1/Group1_IMG_0310.jpg,1,Group1_IMG_0310.jpg,,,,,0.0,101.0,101.0,101.0,,,,,,,,,,,,,,,,,,,484.2531746,None,,,1,0.520589566,486.7359157,None,486.7359157,None,,,485.5690875,None,,,,,,,1,2022_Mar_23_1432,Real-fake-judgement-flashing-group1,2021.1.2,60.00468781
105,Trial # 103,Group1-stimuli/group1-block1/fake-group2-b1/encoded_Group2_IMG_0528.jpg,0,encoded_Group2_IMG_0528.jpg,,,,,0.0,102.0,102.0,102.0,,,,,,,,,,,,,,,,,,,487.2866647,None,,,0,0.039630777,489.7368772,None,489.7368772,None,,,488.5709063,None,,,,,,,1,2022_Mar_23_1432,Real-fake-judgement-flashing-group1,2021.1.2,60.00468781
106,Trial # 104,Group1-stimuli/group1-block1/fake-group2-b1/encoded_Group2_IMG_1975.jpg,0,encoded_Group2_IMG_1975.jpg,,,,,0.0,103.0,103.0,103.0,,,,,,,,,,,,,,,,,,,489.8050519,None,,,1,0.824941564,492.287571,None,492.287571,None,,,491.1380355,None,,,,,,,1,2022_Mar_23_1432,Real-fake-judgement-flashing-group1,2021.1.2,60.00468781
107,Trial # 105,Group1-stimuli/group1-block1/fake-group2-b1/encoded_Group2_IMG_0052.jpg,0,encoded_Group2_IMG_0052.jpg,,,,,0.0,104.0,104.0,104.0,,,,,,,,,,,,,,,,,,,493.1386237,None,,,1,2.067101218,495.6053921,None,495.6053921,None,,,494.4382504,None,,,,,,,1,2022_Mar_23_1432,Real-fake-judgement-flashing-group1,2021.1.2,60.00468781
108,Trial # 106,Group1-stimuli/group1-block1/fake-group2-b1/encoded_Group2_IMG_0225.jpg,0,encoded_Group2_IMG_0225.jpg,,,,,0.0,105.0,105.0,105.0,,,,,,,,,,,,,,,,,,,497.6898163,None,,,0,3.536383178,500.1440466,None,500.1440466,None,,,498.974047,None,,,,,,,1,2022_Mar_23_1432,Real-fake-judgement-flashing-group1,2021.1.2,60.00468781
109,Trial # 107,Group1-stimuli/group1-block1/real-group1-b1/Group1_IMG_2231.jpg,1,Group1_IMG_2231.jpg,,,,,0.0,106.0,106.0,106.0,,,,,,,,,,,,,,,,,,,503.7092033,None,,,1,5.184329532,506.1921657,None,506.1921657,None,,,505.0417423,None,,,,,,,1,2022_Mar_23_1432,Real-fake-judgement-flashing-group1,2021.1.2,60.00468781
110,Trial # 108,Group1-stimuli/group1-block1/real-group1-b1/Group1_IMG_0217.jpg,1,Group1_IMG_0217.jpg,,,,,0.0,107.0,107.0,107.0,,,,,,,,,,,,,,,,,,,511.3933921,None,,,0,0.466055005,513.8623806,None,513.8623806,None,,,512.6937544,None,,,,,,,1,2022_Mar_23_1432,Real-fake-judgement-flashing-group1,2021.1.2,60.00468781
111,Trial # 109,Group1-stimuli/group1-block1/real-group1-b1/Group1_IMG_0264.jpg,1,Group1_IMG_0264.jpg,,,,,0.0,108.0,108.0,108.0,,,,,,,,,,,,,,,,,,,514.3622515,None,,,1,0.667755245,516.8286769,None,516.8286769,None,,,515.6618394,None,,,,,,,1,2022_Mar_23_1432,Real-fake-judgement-flashing-group1,2021.1.2,60.00468781
112,Trial # 110,Group1-stimuli/group1-block1/fake-group2-b1/encoded_Group2_IMG_0254.jpg,0,encoded_Group2_IMG_0254.jpg,,,,,0.0,109.0,109.0,109.0,,,,,,,,,,,,,,,,,,,517.5296466,None,,,1,0.14848065,519.9959442,None,519.9959442,None,,,518.8301851,None,,,,,,,1,2022_Mar_23_1432,Real-fake-judgement-flashing-group1,2021.1.2,60.00468781
113,Trial # 111,Group1-stimuli/group1-block1/fake-group2-b1/encoded_Group2_IMG_5433.jpg,0,encoded_Group2_IMG_5433.jpg,,,,,0.0,110.0,110.0,110.0,,,,,,,,,,,,,,,,,,,520.1629394,None,,,0,0.794769221,522.6137396,None,522.6137396,None,,,521.4463533,None,,,,,,,1,2022_Mar_23_1432,Real-fake-judgement-flashing-group1,2021.1.2,60.00468781
114,Trial # 112,Group1-stimuli/group1-block1/real-group1-b1/Group1_IMG_0252.jpg,1,Group1_IMG_0252.jpg,,,,,0.0,111.0,111.0,111.0,,,,,,,,,,,,,,,,,,,523.4323711,None,,,0,0.581491729,525.9148932,None,525.9148932,None,,,524.7474892,None,,,,,,,1,2022_Mar_23_1432,Real-fake-judgement-flashing-group1,2021.1.2,60.00468781
115,Trial # 113,Group1-stimuli/group1-block1/real-group1-b1/Group1_IMG_9720.jpg,1,Group1_IMG_9720.jpg,,,,,0.0,112.0,112.0,112.0,,,,,,,,,,,,,,,,,,,526.5149842,None,,,1,0.560808677,528.9996879,None,528.9996879,None,,,527.8332691,None,,,,,,,1,2022_Mar_23_1432,Real-fake-judgement-flashing-group1,2021.1.2,60.00468781
116,Trial # 114,Group1-stimuli/group1-block1/fake-group2-b1/encoded_Group2_IMG_0550.jpg,0,encoded_Group2_IMG_0550.jpg,,,,,0.0,113.0,113.0,113.0,,,,,,,,,,,,,,,,,,,529.5836711,None,,,0,1.63050554,532.0500015,None,532.0500015,None,,,530.8829667,None,,,,,,,1,2022_Mar_23_1432,Real-fake-judgement-flashing-group1,2021.1.2,60.00468781
117,Trial # 115,Group1-stimuli/group1-block1/real-group1-b1/Group1_IMG_9915.jpg,1,Group1_IMG_9915.jpg,,,,,0.0,114.0,114.0,114.0,,,,,,,,,,,,,,,,,,,533.7018217,None,,,1,0.96759949,536.184824,None,536.184824,None,,,535.0176426,None,,,,,,,1,2022_Mar_23_1432,Real-fake-judgement-flashing-group1,2021.1.2,60.00468781
118,Trial # 116,Group1-stimuli/group1-block1/real-group1-b1/Group1_IMG_9850.jpg,1,Group1_IMG_9850.jpg,,,,,0.0,115.0,115.0,115.0,,,,,,,,,,,,,,,,,,,537.1847117,None,,,1,0.379431749,539.6690743,None,539.6690743,None,,,538.4865301,None,,,,,,,1,2022_Mar_23_1432,Real-fake-judgement-flashing-group1,2021.1.2,60.00468781
119,Trial # 117,Group1-stimuli/group1-block1/real-group1-b1/Group1_IMG_3579.jpg,1,Group1_IMG_3579.jpg,,,,,0.0,116.0,116.0,116.0,,,,,,,,,,,,,,,,,,,540.069214,None,,,0,0.61569228,542.5367432,None,542.5367432,None,,,541.3860195,None,,,,,,,1,2022_Mar_23_1432,Real-fake-judgement-flashing-group1,2021.1.2,60.00468781
120,Trial # 118,Group1-stimuli/group1-block1/fake-group2-b1/encoded_Group2_IMG_0377.jpg,0,encoded_Group2_IMG_0377.jpg,,,,,0.0,117.0,117.0,117.0,,,,,,,,,,,,,,,,,,,543.1704798,None,,,0,0.354787296,545.6377149,None,545.6377149,None,,,544.4704474,None,,,,,,,1,2022_Mar_23_1432,Real-fake-judgement-flashing-group1,2021.1.2,60.00468781
121,Trial # 119,Group1-stimuli/group1-block1/real-group1-b1/Group1_IMG_0469.jpg,1,Group1_IMG_0469.jpg,,,,,0.0,118.0,118.0,118.0,,,,,,,,,,,,,,,,,,,546.0215327,None,,,1,2.103846061,548.4886623,None,548.4886623,None,,,547.3376665,None,,,,,,,1,2022_Mar_23_1432,Real-fake-judgement-flashing-group1,2021.1.2,60.00468781
122,Trial # 120,Group1-stimuli/group1-block1/fake-group2-b1/encoded_Group2_IMG_0100.jpg,0,encoded_Group2_IMG_0100.jpg,,,,,0.0,119.0,119.0,119.0,,,,,,,,,,,,,,,,,,,550.6222706,None,,,0,0.1340711,553.0903675,None,553.0903675,None,,,551.9227847,None,,,,,,,1,2022_Mar_23_1432,Real-fake-judgement-flashing-group1,2021.1.2,60.00468781
123,Trial # 121,Group1-stimuli/group1-block1/real-group1-b1/Group1_IMG_5359.jpg,1,Group1_IMG_5359.jpg,,,,,0.0,120.0,120.0,120.0,,,,,,,,,,,,,,,,,,,553.2580769,None,,,1,0.100563398,555.7238733,None,555.7238733,None,,,554.5579298,None,,,,,,,1,2022_Mar_23_1432,Real-fake-judgement-flashing-group1,2021.1.2,60.00468781
124,Trial # 122,Group1-stimuli/group1-block1/fake-group2-b1/encoded_Group2_IMG_0304.jpg,0,encoded_Group2_IMG_0304.jpg,,,,,0.0,121.0,121.0,121.0,,,,,,,,,,,,,,,,,,,555.8573371,None,,,0,0.259466617,558.3090502,None,558.3090502,None,,,557.1407835,None,,,,,,,1,2022_Mar_23_1432,Real-fake-judgement-flashing-group1,2021.1.2,60.00468781
125,Trial # 123,Group1-stimuli/group1-block1/real-group1-b1/Group1_IMG_0306.jpg,1,Group1_IMG_0306.jpg,,,,,0.0,122.0,122.0,122.0,,,,,,,,,,,,,,,,,,,558.5927728,None,,,1,0.261124043,561.0753835,None,561.0753835,None,,,559.9083604,None,,,,,,,1,2022_Mar_23_1432,Real-fake-judgement-flashing-group1,2021.1.2,60.00468781
126,Trial # 124,Group1-stimuli/group1-block1/real-group1-b1/Group1_IMG_0224.jpg,1,Group1_IMG_0224.jpg,,,,,0.0,123.0,123.0,123.0,,,,,,,,,,,,,,,,,,,561.3591122,None,,,1,7.236902199,563.8276079,None,563.8276079,None,,,562.6587681,None,,,,,,,1,2022_Mar_23_1432,Real-fake-judgement-flashing-group1,2021.1.2,60.00468781
127,Trial # 125,Group1-stimuli/group1-block1/real-group1-b1/Group1_IMG_9889.jpg,1,Group1_IMG_9889.jpg,,,,,0.0,124.0,124.0,124.0,,,,,,,,,,,,,,,,,,,571.0959648,None,,,1,0.868307988,573.5641545,None,573.5641545,None,,,572.3958122,None,,,,,,,1,2022_Mar_23_1432,Real-fake-judgement-flashing-group1,2021.1.2,60.00468781
128,Trial # 126,Group1-stimuli/group1-block1/real-group1-b1/Group1_IMG_0293.jpg,1,Group1_IMG_0293.jpg,,,,,0.0,125.0,125.0,125.0,,,,,,,,,,,,,,,,,,,574.4646329,None,,,0,0.325571904,576.946931,None,576.946931,None,,,575.7803592,None,,,,,,,1,2022_Mar_23_1432,Real-fake-judgement-flashing-group1,2021.1.2,60.00468781
129,Trial # 127,Group1-stimuli/group1-block1/fake-group2-b1/encoded_Group2_IMG_0321.jpg,0,encoded_Group2_IMG_0321.jpg,,,,,0.0,126.0,126.0,126.0,,,,,,,,,,,,,,,,,,,577.2968631,None,,,1,1.915876746,579.7486408,None,579.7486408,None,,,578.5820092,None,,,,,,,1,2022_Mar_23_1432,Real-fake-judgement-flashing-group1,2021.1.2,60.00468781
130,Trial # 128,Group1-stimuli/group1-block1/fake-group2-b1/encoded_Group2_IMG_0400.jpg,0,encoded_Group2_IMG_0400.jpg,,,,,0.0,127.0,127.0,127.0,,,,,,,,,,,,,,,,,,,581.6816871,None,,,0,0.417648426,584.1508658,None,584.1508658,None,,,582.9836711,None,,,,,,,1,2022_Mar_23_1432,Real-fake-judgement-flashing-group1,2021.1.2,60.00468781
131,Trial # 129,Group1-stimuli/group1-block1/fake-group2-b1/encoded_Group2_IMG_0443.jpg,0,encoded_Group2_IMG_0443.jpg,,,,,0.0,128.0,128.0,128.0,,,,,,,,,,,,,,,,,,,584.6007232,None,,,0,0.781335771,587.067176,None,587.067176,None,,,585.9001252,None,,,,,,,1,2022_Mar_23_1432,Real-fake-judgement-flashing-group1,2021.1.2,60.00468781
132,Trial # 130,Group1-stimuli/group1-block1/fake-group2-b1/encoded_Group2_IMG_0542.jpg,0,encoded_Group2_IMG_0542.jpg,,,,,0.0,129.0,129.0,129.0,,,,,,,,,,,,,,,,,,,587.8687196,None,,,0,0.977927237,590.3345952,None,590.3345952,None,,,589.1689119,None,,,,,,,1,2022_Mar_23_1432,Real-fake-judgement-flashing-group1,2021.1.2,60.00468781
133,Trial # 131,Group1-stimuli/group1-block1/real-group1-b1/Group1_IMG_0885.jpg,1,Group1_IMG_0885.jpg,,,,,0.0,130.0,130.0,130.0,,,,,,,,,,,,,,,,,,,591.3350125,None,,,1,0.3569241,593.80358,None,593.80358,None,,,592.6349126,None,,,,,,,1,2022_Mar_23_1432,Real-fake-judgement-flashing-group1,2021.1.2,60.00468781
134,Trial # 132,Group1-stimuli/group1-block1/real-group1-b1/Group1_IMG_0375.jpg,1,Group1_IMG_0375.jpg,,,,,0.0,131.0,131.0,131.0,,,,,,,,,,,,,,,,,,,594.1872756,None,,,1,0.30585399,596.6706529,None,596.6706529,None,,,595.5029896,None,,,,,,,1,2022_Mar_23_1432,Real-fake-judgement-flashing-group1,2021.1.2,60.00468781
135,Trial # 133,Group1-stimuli/group1-block1/fake-group2-b1/encoded_Group2_IMG_7351.jpg,0,encoded_Group2_IMG_7351.jpg,,,,,0.0,132.0,132.0,132.0,,,,,,,,,,,,,,,,,,,597.0036596,None,,,1,4.312381755,599.4721272,None,599.4721272,None,,,598.3049963,None,,,,,,,1,2022_Mar_23_1432,Real-fake-judgement-flashing-group1,2021.1.2,60.00468781
136,Trial # 134,Group1-stimuli/group1-block1/fake-group2-b1/encoded_Group2_IMG_0416.jpg,0,encoded_Group2_IMG_0416.jpg,,,,,0.0,133.0,133.0,133.0,,,,,,,,,,,,,,,,,,,603.8070878,None,,,0,0.382803534,606.2896881,None,606.2896881,None,,,605.1072431,None,,,,,,,1,2022_Mar_23_1432,Real-fake-judgement-flashing-group1,2021.1.2,60.00468781
137,Trial # 135,Group1-stimuli/group1-block1/fake-group2-b1/encoded_Group2_IMG_0139.jpg,0,encoded_Group2_IMG_0139.jpg,,,,,0.0,134.0,134.0,134.0,,,,,,,,,,,,,,,,,,,606.6902206,None,,,0,0.074513379,609.1419534,None,609.1419534,None,,,607.9744343,None,,,,,,,1,2022_Mar_23_1432,Real-fake-judgement-flashing-group1,2021.1.2,60.00468781
138,Trial # 136,Group1-stimuli/group1-block1/real-group1-b1/Group1_IMG_9677.jpg,1,Group1_IMG_9677.jpg,,,,,0.0,135.0,135.0,135.0,,,,,,,,,,,,,,,,,,,609.2417149,None,,,0,0.683740296,611.7246954,None,611.7246954,None,,,610.5576125,None,,,,,,,1,2022_Mar_23_1432,Real-fake-judgement-flashing-group1,2021.1.2,60.00468781
139,Trial # 137,Group1-stimuli/group1-block1/fake-group2-b1/encoded_Group2_IMG_5982.jpg,0,encoded_Group2_IMG_5982.jpg,,,,,0.0,136.0,136.0,136.0,,,,,,,,,,,,,,,,,,,612.4415058,None,,,0,0.020267947,614.8922405,None,614.8922405,None,,,613.7264606,None,,,,,,,1,2022_Mar_23_1432,Real-fake-judgement-flashing-group1,2021.1.2,60.00468781
140,Trial # 138,Group1-stimuli/group1-block1/fake-group2-b1/encoded_Group2_IMG_1144.jpg,0,encoded_Group2_IMG_1144.jpg,,,,,0.0,137.0,137.0,137.0,,,,,,,,,,,,,,,,,,,614.9425307,None,,,0,0.22276501,617.4097424,None,617.4097424,None,,,616.2426595,None,,,,,,,1,2022_Mar_23_1432,Real-fake-judgement-flashing-group1,2021.1.2,60.00468781
141,Trial # 139,Group1-stimuli/group1-block1/fake-group2-b1/encoded_Group2_IMG_0315.jpg,0,encoded_Group2_IMG_0315.jpg,,,,,0.0,138.0,138.0,138.0,,,,,,,,,,,,,,,,,,,617.6600607,None,,,0,1.089285357,620.1272224,None,620.1272224,None,,,618.9449519,None,,,,,,,1,2022_Mar_23_1432,Real-fake-judgement-flashing-group1,2021.1.2,60.00468781
142,Trial # 140,Group1-stimuli/group1-block1/real-group1-b1/Group1_IMG_130.jpg,1,Group1_IMG_130.jpg,,,,,0.0,139.0,139.0,139.0,,,,,,,,,,,,,,,,,,,621.2449322,None,,,0,0.760139673,623.7123879,None,623.7123879,None,,,622.5610494,None,,,,,,,1,2022_Mar_23_1432,Real-fake-judgement-flashing-group1,2021.1.2,60.00468781
143,Trial # 141,Group1-stimuli/group1-block1/real-group1-b1/Group1_IMG_0024.jpg,1,Group1_IMG_0024.jpg,,,,,0.0,140.0,140.0,140.0,,,,,,,,,,,,,,,,,,,624.4952901,None,,,0,3.125647746,626.9628098,None,626.9628098,None,,,625.7957088,None,,,,,,,1,2022_Mar_23_1432,Real-fake-judgement-flashing-group1,2021.1.2,60.00468781
144,Trial # 142,Group1-stimuli/group1-block1/fake-group2-b1/encoded_Group2_IMG_5012.jpg,0,encoded_Group2_IMG_5012.jpg,,,,,0.0,141.0,141.0,141.0,,,,,,,,,,,,,,,,,,,630.1135776,None,,,0,0.011425324,632.5810838,None,632.5810838,None,,,631.4141228,None,,,,,,,1,2022_Mar_23_1432,Real-fake-judgement-flashing-group1,2021.1.2,60.00468781
145,Trial # 143,Group1-stimuli/group1-block1/fake-group2-b1/encoded_Group2_IMG_0209.jpg,0,encoded_Group2_IMG_0209.jpg,,,,,0.0,142.0,142.0,142.0,,,,,,,,,,,,,,,,,,,632.6147027,None,,,0,0.862477906,635.0820311,None,635.0820311,None,,,633.9154547,None,,,,,,,1,2022_Mar_23_1432,Real-fake-judgement-flashing-group1,2021.1.2,60.00468781
146,Trial # 144,Group1-stimuli/group1-block1/real-group1-b1/Group1_IMG_0373.jpg,1,Group1_IMG_0373.jpg,,,,,0.0,143.0,143.0,143.0,,,,,,,,,,,,,,,,,,,635.9656634,None,,,1,1.926232607,638.4342843,None,638.4342843,None,,,637.2820874,None,,,,,,,1,2022_Mar_23_1432,Real-fake-judgement-flashing-group1,2021.1.2,60.00468781
147,Trial # 145,Group1-stimuli/group1-block1/real-group1-b1/Group1_IMG_5899.jpg,1,Group1_IMG_5899.jpg,,,,,0.0,144.0,144.0,144.0,,,,,,,,,,,,,,,,,,,640.3839695,None,,,1,0.540494426,642.8520472,None,642.8520472,None,,,641.6841365,None,,,,,,,1,2022_Mar_23_1432,Real-fake-judgement-flashing-group1,2021.1.2,60.00468781
148,Trial # 146,Group1-stimuli/group1-block1/real-group1-b1/Group1_IMG_0162.jpg,1,Group1_IMG_0162.jpg,,,,,0.0,145.0,145.0,145.0,,,,,,,,,,,,,,,,,,,643.4190476,None,,,1,0.842898399,645.9016221,None,645.9016221,None,,,644.7357809,None,,,,,,,1,2022_Mar_23_1432,Real-fake-judgement-flashing-group1,2021.1.2,60.00468781
149,Trial # 147,Group1-stimuli/group1-block1/real-group1-b1/Group1_IMG_0543.jpg,1,Group1_IMG_0543.jpg,,,,,0.0,146.0,146.0,146.0,,,,,,,,,,,,,,,,,,,646.7686893,None,,,0,2.178907013,649.2376233,None,649.2376233,None,,,648.0705177,None,,,,,,,1,2022_Mar_23_1432,Real-fake-judgement-flashing-group1,2021.1.2,60.00468781
150,Trial # 148,Group1-stimuli/group1-block1/fake-group2-b1/encoded_Group2_IMG_0355.jpg,0,encoded_Group2_IMG_0355.jpg,,,,,0.0,147.0,147.0,147.0,,,,,,,,,,,,,,,,,,,651.4374761,None,,,0,0.399696802,653.8888222,None,653.8888222,None,,,652.7206083,None,,,,,,,1,2022_Mar_23_1432,Real-fake-judgement-flashing-group1,2021.1.2,60.00468781
151,Trial # 149,Group1-stimuli/group1-block1/real-group1-b1/Group1_IMG_9765.jpg,1,Group1_IMG_9765.jpg,,,,,0.0,148.0,148.0,148.0,,,,,,,,,,,,,,,,,,,654.3060097,None,,,0,0.500036956,656.7884831,None,656.7884831,None,,,655.6215419,None,,,,,,,1,2022_Mar_23_1432,Real-fake-judgement-flashing-group1,2021.1.2,60.00468781
152,Trial # 150,Group1-stimuli/group1-block1/fake-group2-b1/encoded_Group2_IMG_1378.jpg,0,encoded_Group2_IMG_1378.jpg,,,,,0.0,149.0,149.0,149.0,,,,,,,,,,,,,,,,,,,657.3055492,None,,,0,0.178546078,659.7739539,None,659.7739539,None,,,658.6070269,None,,,,,,,1,2022_Mar_23_1432,Real-fake-judgement-flashing-group1,2021.1.2,60.00468781
153,Trial # 1,Group1-stimuli/group1-block2/fake-group2-b2/encoded_Group2_IMG_0155.jpg,0,encoded_Group2_IMG_0155.jpg,,,,,,,,,0.0,0.0,0.0,0.0,,,,,,,,,,,,,,,669.1761767,None,,,0,0.630987762,671.6095167,None,671.6095167,None,664.2919821,None,670.492889,None,659.977854,None,,,,,1,2022_Mar_23_1432,Real-fake-judgement-flashing-group1,2021.1.2,60.00468781
154,Trial # 2,Group1-stimuli/group1-block2/real-group1-b2/Group1_IMG_0519.jpg,1,Group1_IMG_0519.jpg,,,,,,,,,0.0,1.0,1.0,1.0,,,,,,,,,,,,,,,672.2603419,None,,,0,0.06358201,674.728843,None,674.728843,None,,,673.5783694,None,,,,,,,1,2022_Mar_23_1432,Real-fake-judgement-flashing-group1,2021.1.2,60.00468781
155,Trial # 3,Group1-stimuli/group1-block2/fake-group2-b2/encoded_Group2_IMG_0135.jpg,0,encoded_Group2_IMG_0135.jpg,,,,,,,,,0.0,2.0,2.0,2.0,,,,,,,,,,,,,,,674.8112828,None,,,0,0.113578288,677.2949576,None,677.2949576,None,,,676.127877,None,,,,,,,1,2022_Mar_23_1432,Real-fake-judgement-flashing-group1,2021.1.2,60.00468781
156,Trial # 4,Group1-stimuli/group1-block2/real-group1-b2/Group1_IMG_5310.jpg,1,Group1_IMG_5310.jpg,,,,,,,,,0.0,3.0,3.0,3.0,,,,,,,,,,,,,,,677.4281435,None,,,0,1.848376028,679.8960544,None,679.8960544,None,,,678.7466211,None,,,,,,,1,2022_Mar_23_1432,Real-fake-judgement-flashing-group1,2021.1.2,60.00468781
157,Trial # 5,Group1-stimuli/group1-block2/real-group1-b2/Group1_IMG_0522.jpg,1,Group1_IMG_0522.jpg,,,,,,,,,0.0,4.0,4.0,4.0,,,,,,,,,,,,,,,681.7628644,None,,,1,0.080689759,684.2318078,None,684.2318078,None,,,683.0812623,None,,,,,,,1,2022_Mar_23_1432,Real-fake-judgement-flashing-group1,2021.1.2,60.00468781
158,Trial # 6,Group1-stimuli/group1-block2/fake-group2-b2/encoded_Group2_IMG_0484.jpg,0,encoded_Group2_IMG_0484.jpg,,,,,,,,,0.0,5.0,5.0,5.0,,,,,,,,,,,,,,,684.331764,None,,,0,0.146366392,686.798144,None,686.798144,None,,,685.6308877,None,,,,,,,1,2022_Mar_23_1432,Real-fake-judgement-flashing-group1,2021.1.2,60.00468781
159,Trial # 7,Group1-stimuli/group1-block2/fake-group2-b2/encoded_Group2_IMG_5948.jpg,0,encoded_Group2_IMG_5948.jpg,,,,,,,,,0.0,6.0,6.0,6.0,,,,,,,,,,,,,,,686.9654694,None,,,0,0.103020516,689.4334831,None,689.4334831,None,,,688.2664281,None,,,,,,,1,2022_Mar_23_1432,Real-fake-judgement-flashing-group1,2021.1.2,60.00468781
160,Trial # 8,Group1-stimuli/group1-block2/fake-group2-b2/encoded_Group2_IMG_3591.jpg,0,encoded_Group2_IMG_3591.jpg,,,,,,,,,0.0,7.0,7.0,7.0,,,,,,,,,,,,,,,689.5655217,None,,,1,0.998774672,692.0496526,None,692.0496526,None,,,690.8824659,None,,,,,,,1,2022_Mar_23_1432,Real-fake-judgement-flashing-group1,2021.1.2,60.00468781
161,Trial # 9,Group1-stimuli/group1-block2/real-group1-b2/Group1_IMG_9835.jpg,1,Group1_IMG_9835.jpg,,,,,,,,,0.0,8.0,8.0,8.0,,,,,,,,,,,,,,,693.0673924,None,,,1,0.922074707,695.5504269,None,695.5504269,None,,,694.3840426,None,,,,,,,1,2022_Mar_23_1432,Real-fake-judgement-flashing-group1,2021.1.2,60.00468781
162,Trial # 10,Group1-stimuli/group1-block2/real-group1-b2/Group1_IMG_0556.jpg,1,Group1_IMG_0556.jpg,,,,,,,,,0.0,9.0,9.0,9.0,,,,,,,,,,,,,,,696.5013188,None,,,1,3.390706609,698.9698037,None,698.9698037,None,,,697.8005583,None,,,,,,,1,2022_Mar_23_1432,Real-fake-judgement-flashing-group1,2021.1.2,60.00468781
163,Trial # 11,Group1-stimuli/group1-block2/fake-group2-b2/encoded_Group2_IMG_9736.jpg,0,encoded_Group2_IMG_9736.jpg,,,,,,,,,0.0,10.0,10.0,10.0,,,,,,,,,,,,,,,702.3862617,None,,,0,0.450787868,704.8536375,None,704.8536375,None,,,703.7043417,None,,,,,,,1,2022_Mar_23_1432,Real-fake-judgement-flashing-group1,2021.1.2,60.00468781
164,Trial # 12,Group1-stimuli/group1-block2/real-group1-b2/Group1_IMG_9867.jpg,1,Group1_IMG_9867.jpg,,,,,,,,,0.0,11.0,11.0,11.0,,,,,,,,,,,,,,,705.3371763,None,,,0,0.4662293,707.8383186,None,707.8383186,None,,,706.6541441,None,,,,,,,1,2022_Mar_23_1432,Real-fake-judgement-flashing-group1,2021.1.2,60.00468781
165,Trial # 13,Group1-stimuli/group1-block2/fake-group2-b2/encoded_Group2_IMG_9886.jpg,0,encoded_Group2_IMG_9886.jpg,,,,,,,,,0.0,12.0,12.0,12.0,,,,,,,,,,,,,,,708.3223829,None,,,1,0.459170271,710.8053276,None,710.8053276,None,,,709.6395788,None,,,,,,,1,2022_Mar_23_1432,Real-fake-judgement-flashing-group1,2021.1.2,60.00468781
166,Trial # 14,Group1-stimuli/group1-block2/fake-group2-b2/encoded_Group2_IMG_2245.jpg,0,encoded_Group2_IMG_2245.jpg,,,,,,,,,0.0,13.0,13.0,13.0,,,,,,,,,,,,,,,711.2890594,None,,,0,0.178874486,713.75764,None,713.75764,None,,,712.5892355,None,,,,,,,1,2022_Mar_23_1432,Real-fake-judgement-flashing-group1,2021.1.2,60.00468781
167,Trial # 15,Group1-stimuli/group1-block2/fake-group2-b2/encoded_Group2_IMG_0507.jpg,0,encoded_Group2_IMG_0507.jpg,,,,,,,,,0.0,14.0,14.0,14.0,,,,,,,,,,,,,,,713.9566589,None,,,0,0.312851142,716.4236459,None,716.4236459,None,,,715.2566985,None,,,,,,,1,2022_Mar_23_1432,Real-fake-judgement-flashing-group1,2021.1.2,60.00468781
168,Trial # 16,Group1-stimuli/group1-block2/fake-group2-b2/encoded_Group2_IMG_0338.jpg,0,encoded_Group2_IMG_0338.jpg,,,,,,,,,0.0,15.0,15.0,15.0,,,,,,,,,,,,,,,716.7576483,None,,,1,0.230543298,719.2259559,None,719.2259559,None,,,718.0754707,None,,,,,,,1,2022_Mar_23_1432,Real-fake-judgement-flashing-group1,2021.1.2,60.00468781
169,Trial # 17,Group1-stimuli/group1-block2/real-group1-b2/Group1_IMG_0376.jpg,1,Group1_IMG_0376.jpg,,,,,,,,,0.0,16.0,16.0,16.0,,,,,,,,,,,,,,,719.4749254,None,,,1,0.320503839,721.9759843,None,721.9759843,None,,,720.7918632,None,,,,,,,1,2022_Mar_23_1432,Real-fake-judgement-flashing-group1,2021.1.2,60.00468781
170,Trial # 18,Group1-stimuli/group1-block2/real-group1-b2/Group1_IMG_9821.jpg,1,Group1_IMG_9821.jpg,,,,,,,,,0.0,17.0,17.0,17.0,,,,,,,,,,,,,,,722.3262887,None,,,1,0.246677289,724.8098218,None,724.8098218,None,,,723.6272641,None,,,,,,,1,2022_Mar_23_1432,Real-fake-judgement-flashing-group1,2021.1.2,60.00468781
171,Trial # 19,Group1-stimuli/group1-block2/fake-group2-b2/encoded_Group2_IMG_0388.jpg,0,encoded_Group2_IMG_0388.jpg,,,,,,,,,0.0,18.0,18.0,18.0,,,,,,,,,,,,,,,725.076921,None,,,0,1.016469062,727.5440422,None,727.5440422,None,,,726.3767926,None,,,,,,,1,2022_Mar_23_1432,Real-fake-judgement-flashing-group1,2021.1.2,60.00468781
172,Trial # 20,Group1-stimuli/group1-block2/fake-group2-b2/encoded_Group2_IMG_0222.jpg,0,encoded_Group2_IMG_0222.jpg,,,,,,,,,0.0,19.0,19.0,19.0,,,,,,,,,,,,,,,728.5779756,None,,,1,0.179106316,731.061402,None,731.061402,None,,,729.8945365,None,,,,,,,1,2022_Mar_23_1432,Real-fake-judgement-flashing-group1,2021.1.2,60.00468781
173,Trial # 21,Group1-stimuli/group1-block2/fake-group2-b2/encoded_Group2_IMG_2215.jpg,0,encoded_Group2_IMG_2215.jpg,,,,,,,,,0.0,20.0,20.0,20.0,,,,,,,,,,,,,,,731.2611486,None,,,1,0.087619668,733.7128812,None,733.7128812,None,,,732.5453833,None,,,,,,,1,2022_Mar_23_1432,Real-fake-judgement-flashing-group1,2021.1.2,60.00468781
174,Trial # 22,Group1-stimuli/group1-block2/real-group1-b2/Group1_IMG_9760.jpg,1,Group1_IMG_9760.jpg,,,,,,,,,0.0,21.0,21.0,21.0,,,,,,,,,,,,,,,733.8304069,None,,,1,0.82252969,736.3300321,None,736.3300321,None,,,735.1473113,None,,,,,,,1,2022_Mar_23_1432,Real-fake-judgement-flashing-group1,2021.1.2,60.00468781
175,Trial # 23,Group1-stimuli/group1-block2/real-group1-b2/Group1_IMG_9897.jpg,1,Group1_IMG_9897.jpg,,,,,,,,,0.0,22.0,22.0,22.0,,,,,,,,,,,,,,,737.1803943,None,,,0,0.90454082,739.6479599,None,739.6479599,None,,,738.4985786,None,,,,,,,1,2022_Mar_23_1432,Real-fake-judgement-flashing-group1,2021.1.2,60.00468781
176,Trial # 24,Group1-stimuli/group1-block2/real-group1-b2/Group1_IMG_4250.jpg,1,Group1_IMG_4250.jpg,,,,,,,,,0.0,23.0,23.0,23.0,,,,,,,,,,,,,,,740.5811497,None,,,0,0.135213524,743.0492971,None,743.0492971,None,,,741.8982743,None,,,,,,,1,2022_Mar_23_1432,Real-fake-judgement-flashing-group1,2021.1.2,60.00468781
177,Trial # 25,Group1-stimuli/group1-block2/real-group1-b2/Group1_IMG_2244.jpg,1,Group1_IMG_2244.jpg,,,,,,,,,0.0,24.0,24.0,24.0,,,,,,,,,,,,,,,743.2168232,None,,,1,0.220778343,745.6996614,None,745.6996614,None,,,744.5336798,None,,,,,,,1,2022_Mar_23_1432,Real-fake-judgement-flashing-group1,2021.1.2,60.00468781
178,Trial # 26,Group1-stimuli/group1-block2/fake-group2-b2/encoded_Group2_IMG_0501.jpg,0,encoded_Group2_IMG_0501.jpg,,,,,,,,,0.0,25.0,25.0,25.0,,,,,,,,,,,,,,,745.9497628,None,,,0,0.079045779,748.4174531,None,748.4174531,None,,,747.2498931,None,,,,,,,1,2022_Mar_23_1432,Real-fake-judgement-flashing-group1,2021.1.2,60.00468781
179,Trial # 27,Group1-stimuli/group1-block2/real-group1-b2/Group1_IMG_9684.jpg,1,Group1_IMG_9684.jpg,,,,,,,,,0.0,26.0,26.0,26.0,,,,,,,,,,,,,,,748.5183058,None,,,0,1.487158038,751.0013513,None,751.0013513,None,,,749.8341872,None,,,,,,,1,2022_Mar_23_1432,Real-fake-judgement-flashing-group1,2021.1.2,60.00468781
180,Trial # 28,Group1-stimuli/group1-block2/real-group1-b2/Group1_IMG_1039.jpg,1,Group1_IMG_1039.jpg,,,,,,,,,0.0,27.0,27.0,27.0,,,,,,,,,,,,,,,752.5184005,None,,,1,0.702765123,754.9857936,None,754.9857936,None,,,753.8364796,None,,,,,,,1,2022_Mar_23_1432,Real-fake-judgement-flashing-group1,2021.1.2,60.00468781
181,Trial # 29,Group1-stimuli/group1-block2/fake-group2-b2/encoded_Group2_IMG_0251.jpg,0,encoded_Group2_IMG_0251.jpg,,,,,,,,,0.0,28.0,28.0,28.0,,,,,,,,,,,,,,,755.7190635,None,,,0,0.037225704,758.1872745,None,758.1872745,None,,,757.0356693,None,,,,,,,1,2022_Mar_23_1432,Real-fake-judgement-flashing-group1,2021.1.2,60.00468781
182,Trial # 30,Group1-stimuli/group1-block2/real-group1-b2/Group1_IMG_9692.jpg,1,Group1_IMG_9692.jpg,,,,,,,,,0.0,29.0,29.0,29.0,,,,,,,,,,,,,,,758.255077,None,,,1,0.03825104,760.73832,None,760.73832,None,,,759.5704588,None,,,,,,,1,2022_Mar_23_1432,Real-fake-judgement-flashing-group1,2021.1.2,60.00468781
183,Trial # 31,Group1-stimuli/group1-block2/real-group1-b2/Group1_IMG_0512.jpg,1,Group1_IMG_0512.jpg,,,,,,,,,0.0,30.0,30.0,30.0,,,,,,,,,,,,,,,760.8043189,None,,,0,0.328479261,763.2720192,None,763.2720192,None,,,762.1212114,None,,,,,,,1,2022_Mar_23_1432,Real-fake-judgement-flashing-group1,2021.1.2,60.00468781
184,Trial # 32,Group1-stimuli/group1-block2/fake-group2-b2/encoded_Group2_IMG_9673.jpg,0,encoded_Group2_IMG_9673.jpg,,,,,,,,,0.0,31.0,31.0,31.0,,,,,,,,,,,,,,,763.623351,None,,,1,0.366793999,766.1057331,None,766.1057331,None,,,764.9400111,None,,,,,,,1,2022_Mar_23_1432,Real-fake-judgement-flashing-group1,2021.1.2,60.00468781
185,Trial # 33,Group1-stimuli/group1-block2/fake-group2-b2/encoded_Group2_IMG_5135.jpg,0,encoded_Group2_IMG_5135.jpg,,,,,,,,,0.0,32.0,32.0,32.0,,,,,,,,,,,,,,,766.4890467,None,,,0,0.738519908,768.957981,None,768.957981,None,,,767.7891339,None,,,,,,,1,2022_Mar_23_1432,Real-fake-judgement-flashing-group1,2021.1.2,60.00468781
186,Trial # 34,Group1-stimuli/group1-block2/real-group1-b2/Group1_IMG_0396.jpg,1,Group1_IMG_0396.jpg,,,,,,,,,0.0,33.0,33.0,33.0,,,,,,,,,,,,,,,769.7250329,None,,,0,0.145024219,772.2074837,None,772.2074837,None,,,771.0405584,None,,,,,,,1,2022_Mar_23_1432,Real-fake-judgement-flashing-group1,2021.1.2,60.00468781
187,Trial # 35,Group1-stimuli/group1-block2/real-group1-b2/Group1_IMG_4919.jpg,1,Group1_IMG_4919.jpg,,,,,,,,,0.0,34.0,34.0,34.0,,,,,,,,,,,,,,,772.3742022,None,,,0,1.677886188,774.858615,None,774.858615,None,,,773.6759394,None,,,,,,,1,2022_Mar_23_1432,Real-fake-judgement-flashing-group1,2021.1.2,60.00468781
188,Trial # 36,Group1-stimuli/group1-block2/real-group1-b2/Group1_IMG_0449.jpg,1,Group1_IMG_0449.jpg,,,,,,,,,0.0,35.0,35.0,35.0,,,,,,,,,,,,,,,776.5591749,None,,,0,0.517724575,779.0267132,None,779.0267132,None,,,777.943943,None,,,,,,,1,2022_Mar_23_1432,Real-fake-judgement-flashing-group1,2021.1.2,60.00468781
189,Trial # 37,Group1-stimuli/group1-block2/fake-group2-b2/encoded_Group2_IMG_0539.jpg,0,encoded_Group2_IMG_0539.jpg,,,,,,,,,0.0,36.0,36.0,36.0,,,,,,,,,,,,,,,779.5767579,None,,,0,0.413226931,782.0273437,None,782.0273437,None,,,780.860391,None,,,,,,,1,2022_Mar_23_1432,Real-fake-judgement-flashing-group1,2021.1.2,60.00468781
190,Trial # 38,Group1-stimuli/group1-block2/real-group1-b2/Group1_IMG_0453.jpg,1,Group1_IMG_0453.jpg,,,,,,,,,0.0,37.0,37.0,37.0,,,,,,,,,,,,,,,782.4607143,None,,,0,2.063567962,784.9449478,None,784.9449478,None,,,783.7791834,None,,,,,,,1,2022_Mar_23_1432,Real-fake-judgement-flashing-group1,2021.1.2,60.00468781
191,Trial # 39,Group1-stimuli/group1-block2/fake-group2-b2/encoded_Group2_IMG_0318.jpg,0,encoded_Group2_IMG_0318.jpg,,,,,,,,,0.0,38.0,38.0,38.0,,,,,,,,,,,,,,,787.0283711,None,,,1,0.126837593,789.4976915,None,789.4976915,None,,,788.3472444,None,,,,,,,1,2022_Mar_23_1432,Real-fake-judgement-flashing-group1,2021.1.2,60.00468781
192,Trial # 40,Group1-stimuli/group1-block2/real-group1-b2/Group1_IMG_1678.jpg,1,Group1_IMG_1678.jpg,,,,,,,,,0.0,39.0,39.0,39.0,,,,,,,,,,,,,,,789.6465247,None,,,1,0.24592261,792.1305736,None,792.1305736,None,,,790.9634056,None,,,,,,,1,2022_Mar_23_1432,Real-fake-judgement-flashing-group1,2021.1.2,60.00468781
193,Trial # 41,Group1-stimuli/group1-block2/fake-group2-b2/encoded_Group2_IMG_0325.jpg,0,encoded_Group2_IMG_0325.jpg,,,,,,,,,0.0,40.0,40.0,40.0,,,,,,,,,,,,,,,792.3970494,None,,,0,0.095061893,794.8814962,None,794.8814962,None,,,793.6988247,None,,,,,,,1,2022_Mar_23_1432,Real-fake-judgement-flashing-group1,2021.1.2,60.00468781
194,Trial # 42,Group1-stimuli/group1-block2/fake-group2-b2/encoded_Group2_IMG_9935.jpg,0,encoded_Group2_IMG_9935.jpg,,,,,,,,,0.0,41.0,41.0,41.0,,,,,,,,,,,,,,,794.9993822,None,,,0,0.062034774,797.4824569,None,797.4824569,None,,,796.3817873,None,,,,,,,1,2022_Mar_23_1432,Real-fake-judgement-flashing-group1,2021.1.2,60.00468781
195,Trial # 43,Group1-stimuli/group1-block2/fake-group2-b2/encoded_Group2_IMG_0308.jpg,0,encoded_Group2_IMG_0308.jpg,,,,,,,,,0.0,42.0,42.0,42.0,,,,,,,,,,,,,,,797.5659378,None,,,0,0.279041664,800.017457,None,800.017457,None,,,798.8503816,None,,,,,,,1,2022_Mar_23_1432,Real-fake-judgement-flashing-group1,2021.1.2,60.00468781
196,Trial # 44,Group1-stimuli/group1-block2/real-group1-b2/Group1_IMG_0467.jpg,1,Group1_IMG_0467.jpg,,,,,,,,,0.0,43.0,43.0,43.0,,,,,,,,,,,,,,,800.3162644,None,,,0,0.144106959,802.8003931,None,802.8003931,None,,,801.6338105,None,,,,,,,1,2022_Mar_23_1432,Real-fake-judgement-flashing-group1,2021.1.2,60.00468781
197,Trial # 45,Group1-stimuli/group1-block2/fake-group2-b2/encoded_Group2_IMG_9839.jpg,0,encoded_Group2_IMG_9839.jpg,,,,,,,,,0.0,44.0,44.0,44.0,,,,,,,,,,,,,,,802.9684912,None,,,1,0.349865905,805.4346456,None,805.4346456,None,,,804.2687418,None,,,,,,,1,2022_Mar_23_1432,Real-fake-judgement-flashing-group1,2021.1.2,60.00468781
198,Trial # 46,Group1-stimuli/group1-block2/fake-group2-b2/encoded_Group2_IMG_9681.jpg,0,encoded_Group2_IMG_9681.jpg,,,,,,,,,0.0,45.0,45.0,45.0,,,,,,,,,,,,,,,805.8015765,None,,,0,0.139027597,808.2534728,None,808.2534728,None,,,807.0851868,None,,,,,,,1,2022_Mar_23_1432,Real-fake-judgement-flashing-group1,2021.1.2,60.00468781
199,Trial # 47,Group1-stimuli/group1-block2/fake-group2-b2/encoded_Group2_IMG_0458.jpg,0,encoded_Group2_IMG_0458.jpg,,,,,,,,,0.0,46.0,46.0,46.0,,,,,,,,,,,,,,,808.4201831,None,,,0,0.781270017,810.8911674,None,810.8911674,None,,,809.7238873,None,,,,,,,1,2022_Mar_23_1432,Real-fake-judgement-flashing-group1,2021.1.2,60.00468781
200,Trial # 48,Group1-stimuli/group1-block2/real-group1-b2/Group1_IMG_1095.jpg,1,Group1_IMG_1095.jpg,,,,,,,,,0.0,47.0,47.0,47.0,,,,,,,,,,,,,,,811.6918919,None,,,1,0.285273026,814.1552271,None,814.1552271,None,,,812.9881191,None,,,,,,,1,2022_Mar_23_1432,Real-fake-judgement-flashing-group1,2021.1.2,60.00468781
201,Trial # 49,Group1-stimuli/group1-block2/fake-group2-b2/encoded_Group2_IMG_9710.jpg,0,encoded_Group2_IMG_9710.jpg,,,,,,,,,0.0,48.0,48.0,48.0,,,,,,,,,,,,,,,814.4720399,None,,,1,0.391058883,816.9214403,None,816.9214403,None,,,815.7544345,None,,,,,,,1,2022_Mar_23_1432,Real-fake-judgement-flashing-group1,2021.1.2,60.00468781
202,Trial # 50,Group1-stimuli/group1-block2/fake-group2-b2/encoded_Group2_IMG_9819.jpg,0,encoded_Group2_IMG_9819.jpg,,,,,,,,,0.0,49.0,49.0,49.0,,,,,,,,,,,,,,,817.3381284,None,,,1,0.466687132,819.8058487,None,819.8058487,None,,,818.6398939,None,,,,,,,1,2022_Mar_23_1432,Real-fake-judgement-flashing-group1,2021.1.2,60.00468781
203,Trial # 51,Group1-stimuli/group1-block2/real-group1-b2/Group1_IMG_0064.jpg,1,Group1_IMG_0064.jpg,,,,,,,,,0.0,50.0,50.0,50.0,,,,,,,,,,,,,,,820.2894175,None,,,1,0.539316082,822.7731843,None,822.7731843,None,,,821.6062729,None,,,,,,,1,2022_Mar_23_1432,Real-fake-judgement-flashing-group1,2021.1.2,60.00468781
204,Trial # 52,Group1-stimuli/group1-block2/fake-group2-b2/encoded_Group2_IMG_9756.jpg,0,encoded_Group2_IMG_9756.jpg,,,,,,,,,0.0,51.0,51.0,51.0,,,,,,,,,,,,,,,823.3414946,None,,,0,0.423775041,825.8247244,None,825.8247244,None,,,824.6571307,None,,,,,,,1,2022_Mar_23_1432,Real-fake-judgement-flashing-group1,2021.1.2,60.00468781
205,Trial # 53,Group1-stimuli/group1-block2/fake-group2-b2/encoded_Group2_IMG_5888.jpg,0,encoded_Group2_IMG_5888.jpg,,,,,,,,,0.0,52.0,52.0,52.0,,,,,,,,,,,,,,,826.2747321,None,,,1,0.145332739,828.7431749,None,828.7431749,None,,,827.5748358,None,,,,,,,1,2022_Mar_23_1432,Real-fake-judgement-flashing-group1,2021.1.2,60.00468781
206,Trial # 54,Group1-stimuli/group1-block2/real-group1-b2/Group1_IMG_1476.jpg,1,Group1_IMG_1476.jpg,,,,,,,,,0.0,53.0,53.0,53.0,,,,,,,,,,,,,,,828.9090106,None,,,1,0.071729739,831.3927706,None,831.3927706,None,,,830.2256022,None,,,,,,,1,2022_Mar_23_1432,Real-fake-judgement-flashing-group1,2021.1.2,60.00468781
207,Trial # 55,Group1-stimuli/group1-block2/real-group1-b2/Group1_IMG_1917.jpg,1,Group1_IMG_1917.jpg,,,,,,,,,0.0,54.0,54.0,54.0,,,,,,,,,,,,,,,831.4927915,None,,,0,0.959096686,833.9614019,None,833.9614019,None,,,832.7930821,None,,,,,,,1,2022_Mar_23_1432,Real-fake-judgement-flashing-group1,2021.1.2,60.00468781
208,Trial # 56,Group1-stimuli/group1-block2/real-group1-b2/Group1_IMG_0413.jpg,1,Group1_IMG_0413.jpg,,,,,,,,,0.0,55.0,55.0,55.0,,,,,,,,,,,,,,,834.9438523,None,,,1,0.188777727,837.4277457,None,837.4277457,None,,,836.310801,None,,,,,,,1,2022_Mar_23_1432,Real-fake-judgement-flashing-group1,2021.1.2,60.00468781
209,Trial # 57,Group1-stimuli/group1-block2/real-group1-b2/Group1_IMG_1001.jpg,1,Group1_IMG_1001.jpg,,,,,,,,,0.0,56.0,56.0,56.0,,,,,,,,,,,,,,,837.644306,None,,,1,0.072591917,840.1119094,None,840.1119094,None,,,838.9458329,None,,,,,,,1,2022_Mar_23_1432,Real-fake-judgement-flashing-group1,2021.1.2,60.00468781
210,Trial # 58,Group1-stimuli/group1-block2/fake-group2-b2/encoded_Group2_IMG_0441.jpg,0,encoded_Group2_IMG_0441.jpg,,,,,,,,,0.0,57.0,57.0,57.0,,,,,,,,,,,,,,,840.212286,None,,,0,0.105152043,842.6793816,None,842.6793816,None,,,841.5124116,None,,,,,,,1,2022_Mar_23_1432,Real-fake-judgement-flashing-group1,2021.1.2,60.00468781
211,Trial # 59,Group1-stimuli/group1-block2/real-group1-b2/Group1_IMG_9774.jpg,1,Group1_IMG_9774.jpg,,,,,,,,,0.0,58.0,58.0,58.0,,,,,,,,,,,,,,,842.8125858,None,,,0,0.895641334,845.2968571,None,845.2968571,None,,,844.130058,None,,,,,,,1,2022_Mar_23_1432,Real-fake-judgement-flashing-group1,2021.1.2,60.00468781
212,Trial # 60,Group1-stimuli/group1-block2/fake-group2-b2/encoded_Group2_IMG_2751.jpg,0,encoded_Group2_IMG_2751.jpg,,,,,,,,,0.0,59.0,59.0,59.0,,,,,,,,,,,,,,,846.2140462,None,,,1,0.223431352,848.6650692,None,848.6650692,None,,,847.4975844,None,,,,,,,1,2022_Mar_23_1432,Real-fake-judgement-flashing-group1,2021.1.2,60.00468781
213,Trial # 61,Group1-stimuli/group1-block2/fake-group2-b2/encoded_Group2_IMG_0409.jpg,0,encoded_Group2_IMG_0409.jpg,,,,,,,,,0.0,60.0,60.0,60.0,,,,,,,,,,,,,,,848.9147154,None,,,0,0.115238633,851.365166,None,851.365166,None,,,850.19815,None,,,,,,,1,2022_Mar_23_1432,Real-fake-judgement-flashing-group1,2021.1.2,60.00468781
214,Trial # 62,Group1-stimuli/group1-block2/real-group1-b2/Group1_IMG_1346.jpg,1,Group1_IMG_1346.jpg,,,,,,,,,0.0,61.0,61.0,61.0,,,,,,,,,,,,,,,851.4986626,None,,,1,0.03419884,853.9663175,None,853.9663175,None,,,852.8154531,None,,,,,,,1,2022_Mar_23_1432,Real-fake-judgement-flashing-group1,2021.1.2,60.00468781
215,Trial # 63,Group1-stimuli/group1-block2/real-group1-b2/Group1_IMG_0481.jpg,1,Group1_IMG_0481.jpg,,,,,,,,,0.0,62.0,62.0,62.0,,,,,,,,,,,,,,,854.0166331,None,,,1,0.38073841,856.4837621,None,856.4837621,None,,,855.3166195,None,,,,,,,1,2022_Mar_23_1432,Real-fake-judgement-flashing-group1,2021.1.2,60.00468781
216,Trial # 64,Group1-stimuli/group1-block2/fake-group2-b2/encoded_Group2_IMG_4718.jpg,0,encoded_Group2_IMG_4718.jpg,,,,,,,,,0.0,63.0,63.0,63.0,,,,,,,,,,,,,,,856.8839643,None,,,0,0.176955846,859.3355423,None,859.3355423,None,,,858.1684608,None,,,,,,,1,2022_Mar_23_1432,Real-fake-judgement-flashing-group1,2021.1.2,60.00468781
217,Trial # 65,Group1-stimuli/group1-block2/real-group1-b2/Group1_IMG_0540.jpg,1,Group1_IMG_0540.jpg,,,,,,,,,0.0,64.0,64.0,64.0,,,,,,,,,,,,,,,859.5348947,None,,,1,0.173368934,862.0191175,None,862.0191175,None,,,860.9019242,None,,,,,,,1,2022_Mar_23_1432,Real-fake-judgement-flashing-group1,2021.1.2,60.00468781
218,Trial # 66,Group1-stimuli/group1-block2/fake-group2-b2/encoded_Group2_IMG_0166.jpg,0,encoded_Group2_IMG_0166.jpg,,,,,,,,,0.0,65.0,65.0,65.0,,,,,,,,,,,,,,,862.2189642,None,,,1,0.386335957,864.670165,None,864.670165,None,,,863.5028822,None,,,,,,,1,2022_Mar_23_1432,Real-fake-judgement-flashing-group1,2021.1.2,60.00468781
219,Trial # 67,Group1-stimuli/group1-block2/fake-group2-b2/encoded_Group2_IMG_0412.jpg,0,encoded_Group2_IMG_0412.jpg,,,,,,,,,0.0,66.0,66.0,66.0,,,,,,,,,,,,,,,865.086654,None,,,0,0.223279171,867.5372186,None,867.5372186,None,,,866.3703278,None,,,,,,,1,2022_Mar_23_1432,Real-fake-judgement-flashing-group1,2021.1.2,60.00468781
220,Trial # 68,Group1-stimuli/group1-block2/real-group1-b2/Group1_IMG_0485.jpg,1,Group1_IMG_0485.jpg,,,,,,,,,0.0,67.0,67.0,67.0,,,,,,,,,,,,,,,867.7871901,None,,,1,0.074136006,870.2543632,None,870.2543632,None,,,869.1054369,None,,,,,,,1,2022_Mar_23_1432,Real-fake-judgement-flashing-group1,2021.1.2,60.00468781
221,Trial # 69,Group1-stimuli/group1-block2/fake-group2-b2/encoded_Group2_IMG_1495.jpg,0,encoded_Group2_IMG_1495.jpg,,,,,,,,,0.0,68.0,68.0,68.0,,,,,,,,,,,,,,,870.3558279,None,,,0,0.275639295,872.8048584,None,872.8048584,None,,,871.6381231,None,,,,,,,1,2022_Mar_23_1432,Real-fake-judgement-flashing-group1,2021.1.2,60.00468781
222,Trial # 70,Group1-stimuli/group1-block2/real-group1-b2/Group1_IMG_0426.jpg,1,Group1_IMG_0426.jpg,,,,,,,,,0.0,69.0,69.0,69.0,,,,,,,,,,,,,,,873.1065898,None,,,0,0.250595484,875.5898316,None,875.5898316,None,,,874.4071176,None,,,,,,,1,2022_Mar_23_1432,Real-fake-judgement-flashing-group1,2021.1.2,60.00468781
223,Trial # 71,Group1-stimuli/group1-block2/real-group1-b2/Group1_IMG_0349.jpg,1,Group1_IMG_0349.jpg,,,,,,,,,0.0,70.0,70.0,70.0,,,,,,,,,,,,,,,875.8733229,None,,,1,0.267026716,878.3414013,None,878.3414013,None,,,877.1896132,None,,,,,,,1,2022_Mar_23_1432,Real-fake-judgement-flashing-group1,2021.1.2,60.00468781
224,Trial # 72,Group1-stimuli/group1-block2/real-group1-b2/Group1_IMG_0414.jpg,1,Group1_IMG_0414.jpg,,,,,,,,,0.0,71.0,71.0,71.0,,,,,,,,,,,,,,,878.6409968,None,,,1,0.123723296,881.108775,None,881.108775,None,,,879.9410154,None,,,,,,,1,2022_Mar_23_1432,Real-fake-judgement-flashing-group1,2021.1.2,60.00468781
225,Trial # 73,Group1-stimuli/group1-block2/fake-group2-b2/encoded_Group2_IMG_9856.jpg,0,encoded_Group2_IMG_9856.jpg,,,,,,,,,0.0,72.0,72.0,72.0,,,,,,,,,,,,,,,881.2579939,None,,,0,0.170485058,883.7260153,None,883.7260153,None,,,882.5580506,None,,,,,,,1,2022_Mar_23_1432,Real-fake-judgement-flashing-group1,2021.1.2,60.00468781
226,Trial # 74,Group1-stimuli/group1-block2/fake-group2-b2/encoded_Group2_IMG_5313.jpg,0,encoded_Group2_IMG_5313.jpg,,,,,,,,,0.0,73.0,73.0,73.0,,,,,,,,,,,,,,,883.9269919,None,,,0,0.199189617,886.409364,None,886.409364,None,,,885.2592461,None,,,,,,,1,2022_Mar_23_1432,Real-fake-judgement-flashing-group1,2021.1.2,60.00468781
227,Trial # 75,Group1-stimuli/group1-block2/fake-group2-b2/encoded_Group2_IMG_0421.jpg,0,encoded_Group2_IMG_0421.jpg,,,,,,,,,0.0,74.0,74.0,74.0,,,,,,,,,,,,,,,886.626278,None,,,0,0.106006024,889.0784946,None,889.0784946,None,,,887.9113135,None,,,,,,,1,2022_Mar_23_1432,Real-fake-judgement-flashing-group1,2021.1.2,60.00468781
228,Trial # 76,Group1-stimuli/group1-block2/fake-group2-b2/encoded_Group2_IMG_0446.jpg,0,encoded_Group2_IMG_0446.jpg,,,,,,,,,0.0,75.0,75.0,75.0,,,,,,,,,,,,,,,889.2118219,None,,,0,0.091178096,891.6613203,None,891.6613203,None,,,890.4942601,None,,,,,,,1,2022_Mar_23_1432,Real-fake-judgement-flashing-group1,2021.1.2,60.00468781
229,Trial # 77,Group1-stimuli/group1-block2/real-group1-b2/Group1_IMG_5999.jpg,1,Group1_IMG_5999.jpg,,,,,,,,,0.0,76.0,76.0,76.0,,,,,,,,,,,,,,,891.7779589,None,,,1,0.034415475,894.2460243,None,894.2460243,None,,,893.0962079,None,,,,,,,1,2022_Mar_23_1432,Real-fake-judgement-flashing-group1,2021.1.2,60.00468781
230,Trial # 78,Group1-stimuli/group1-block2/real-group1-b2/Group1_IMG_0107.jpg,1,Group1_IMG_0107.jpg,,,,,,,,,0.0,77.0,77.0,77.0,,,,,,,,,,,,,,,894.3126302,None,,,0,0.348994721,896.7795215,None,896.7795215,None,,,895.6129712,None,,,,,,,1,2022_Mar_23_1432,Real-fake-judgement-flashing-group1,2021.1.2,60.00468781
231,Trial # 79,Group1-stimuli/group1-block2/fake-group2-b2/encoded_Group2_IMG_0322.jpg,0,encoded_Group2_IMG_0322.jpg,,,,,,,,,0.0,78.0,78.0,78.0,,,,,,,,,,,,,,,897.1469708,None,,,0,0.152897123,899.6316043,None,899.6316043,None,,,898.4644709,None,,,,,,,1,2022_Mar_23_1432,Real-fake-judgement-flashing-group1,2021.1.2,60.00468781
232,Trial # 80,Group1-stimuli/group1-block2/fake-group2-b2/encoded_Group2_IMG_4255.jpg,0,encoded_Group2_IMG_4255.jpg,,,,,,,,,0.0,79.0,79.0,79.0,,,,,,,,,,,,,,,899.8136815,None,,,0,0.311999271,902.2645017,None,902.2645017,None,,,901.0974765,None,,,,,,,1,2022_Mar_23_1432,Real-fake-judgement-flashing-group1,2021.1.2,60.00468781
233,Trial # 81,Group1-stimuli/group1-block2/fake-group2-b2/encoded_Group2_IMG_0219.jpg,0,encoded_Group2_IMG_0219.jpg,,,,,,,,,0.0,80.0,80.0,80.0,,,,,,,,,,,,,,,902.5980407,None,,,1,0.095747498,905.0487707,None,905.0487707,None,,,903.8828742,None,,,,,,,1,2022_Mar_23_1432,Real-fake-judgement-flashing-group1,2021.1.2,60.00468781
234,Trial # 82,Group1-stimuli/group1-block2/real-group1-b2/Group1_IMG_0548.jpg,1,Group1_IMG_0548.jpg,,,,,,,,,0.0,81.0,81.0,81.0,,,,,,,,,,,,,,,905.1654858,None,,,1,0.279079445,907.6494201,None,907.6494201,None,,,906.4824563,None,,,,,,,1,2022_Mar_23_1432,Real-fake-judgement-flashing-group1,2021.1.2,60.00468781
235,Trial # 83,Group1-stimuli/group1-block2/real-group1-b2/Group1_IMG_0229.jpg,1,Group1_IMG_0229.jpg,,,,,,,,,0.0,82.0,82.0,82.0,,,,,,,,,,,,,,,907.9509376,None,,,1,0.630735626,910.4337706,None,910.4337706,None,,,909.2678876,None,,,,,,,1,2022_Mar_23_1432,Real-fake-judgement-flashing-group1,2021.1.2,60.00468781
236,Trial # 84,Group1-stimuli/group1-block2/fake-group2-b2/encoded_Group2_IMG_0365.jpg,0,encoded_Group2_IMG_0365.jpg,,,,,,,,,0.0,83.0,83.0,83.0,,,,,,,,,,,,,,,911.0847867,None,,,0,0.089370482,913.5351293,None,913.5351293,None,,,912.3676557,None,,,,,,,1,2022_Mar_23_1432,Real-fake-judgement-flashing-group1,2021.1.2,60.00468781
237,Trial # 85,Group1-stimuli/group1-block2/real-group1-b2/Group1_IMG_9822.jpg,1,Group1_IMG_9822.jpg,,,,,,,,,0.0,84.0,84.0,84.0,,,,,,,,,,,,,,,913.6527985,None,,,1,0.121037866,916.1354632,None,916.1354632,None,,,914.9697308,None,,,,,,,1,2022_Mar_23_1432,Real-fake-judgement-flashing-group1,2021.1.2,60.00468781
238,Trial # 86,Group1-stimuli/group1-block2/fake-group2-b2/encoded_Group2_IMG_0195.jpg,0,encoded_Group2_IMG_0195.jpg,,,,,,,,,0.0,85.0,85.0,85.0,,,,,,,,,,,,,,,916.285509,None,,,0,0.101426487,918.7710273,None,918.7710273,None,,,917.5859361,None,,,,,,,1,2022_Mar_23_1432,Real-fake-judgement-flashing-group1,2021.1.2,60.00468781
239,Trial # 87,Group1-stimuli/group1-block2/fake-group2-b2/encoded_Group2_IMG_0494.jpg,0,encoded_Group2_IMG_0494.jpg,,,,,,,,,0.0,86.0,86.0,86.0,,,,,,,,,,,,,,,918.903259,None,,,0,0.31071346,921.3537847,None,921.3537847,None,,,920.1869071,None,,,,,,,1,2022_Mar_23_1432,Real-fake-judgement-flashing-group1,2021.1.2,60.00468781
240,Trial # 88,Group1-stimuli/group1-block2/real-group1-b2/Group1_IMG_0509.jpg,1,Group1_IMG_0509.jpg,,,,,,,,,0.0,87.0,87.0,87.0,,,,,,,,,,,,,,,921.6867612,None,,,1,0.228438382,924.1560914,None,924.1560914,None,,,922.9889545,None,,,,,,,1,2022_Mar_23_1432,Real-fake-judgement-flashing-group1,2021.1.2,60.00468781
241,Trial # 89,Group1-stimuli/group1-block2/fake-group2-b2/encoded_Group2_IMG_8924.jpg,0,encoded_Group2_IMG_8924.jpg,,,,,,,,,0.0,88.0,88.0,88.0,,,,,,,,,,,,,,,924.4060122,None,,,0,0.304390377,926.8721105,None,926.8721105,None,,,925.7051592,None,,,,,,,1,2022_Mar_23_1432,Real-fake-judgement-flashing-group1,2021.1.2,60.00468781
242,Trial # 90,Group1-stimuli/group1-block2/real-group1-b2/Group1_IMG_0360.jpg,1,Group1_IMG_0360.jpg,,,,,,,,,0.0,89.0,89.0,89.0,,,,,,,,,,,,,,,927.2050953,None,,,1,0.902185488,929.6743086,None,929.6743086,None,,,928.5237837,None,,,,,,,1,2022_Mar_23_1432,Real-fake-judgement-flashing-group1,2021.1.2,60.00468781
243,Trial # 91,Group1-stimuli/group1-block2/fake-group2-b2/encoded_Group2_IMG_0523.jpg,0,encoded_Group2_IMG_0523.jpg,,,,,,,,,0.0,90.0,90.0,90.0,,,,,,,,,,,,,,,930.611212,None,,,0,0.101958324,933.0745412,None,933.0745412,None,,,931.9070705,None,,,,,,,1,2022_Mar_23_1432,Real-fake-judgement-flashing-group1,2021.1.2,60.00468781
244,Trial # 92,Group1-stimuli/group1-block2/real-group1-b2/Group1_IMG_0518.jpg,1,Group1_IMG_0518.jpg,,,,,,,,,0.0,91.0,91.0,91.0,,,,,,,,,,,,,,,933.2079776,None,,,1,0.301606908,935.6748639,None,935.6748639,None,,,934.5090325,None,,,,,,,1,2022_Mar_23_1432,Real-fake-judgement-flashing-group1,2021.1.2,60.00468781
245,Trial # 93,Group1-stimuli/group1-block2/fake-group2-b2/encoded_Group2_IMG_0372.jpg,0,encoded_Group2_IMG_0372.jpg,,,,,,,,,0.0,92.0,92.0,92.0,,,,,,,,,,,,,,,936.0083342,None,,,0,0.124292582,938.4602534,None,938.4602534,None,,,937.2927549,None,,,,,,,1,2022_Mar_23_1432,Real-fake-judgement-flashing-group1,2021.1.2,60.00468781
246,Trial # 94,Group1-stimuli/group1-block2/fake-group2-b2/encoded_Group2_IMG_9761.jpg,0,encoded_Group2_IMG_9761.jpg,,,,,,,,,0.0,93.0,93.0,93.0,,,,,,,,,,,,,,,938.6105185,None,,,0,0.099947662,941.0765911,None,941.0765911,None,,,939.9095295,None,,,,,,,1,2022_Mar_23_1432,Real-fake-judgement-flashing-group1,2021.1.2,60.00468781
247,Trial # 95,Group1-stimuli/group1-block2/real-group1-b2/Group1_IMG_2690.jpg,1,Group1_IMG_2690.jpg,,,,,,,,,0.0,94.0,94.0,94.0,,,,,,,,,,,,,,,941.1936383,None,,,1,0.1232303,943.6612696,None,943.6612696,None,,,942.5102531,None,,,,,,,1,2022_Mar_23_1432,Real-fake-judgement-flashing-group1,2021.1.2,60.00468781
248,Trial # 96,Group1-stimuli/group1-block2/real-group1-b2/Group1_IMG_9855.jpg,1,Group1_IMG_9855.jpg,,,,,,,,,0.0,95.0,95.0,95.0,,,,,,,,,,,,,,,943.8111511,None,,,1,0.089641811,946.2948579,None,946.2948579,None,,,945.1278474,None,,,,,,,1,2022_Mar_23_1432,Real-fake-judgement-flashing-group1,2021.1.2,60.00468781
249,Trial # 97,Group1-stimuli/group1-block2/fake-group2-b2/encoded_Group2_IMG_0470.jpg,0,encoded_Group2_IMG_0470.jpg,,,,,,,,,0.0,96.0,96.0,96.0,,,,,,,,,,,,,,,946.4112914,None,,,0,0.065098764,948.8633513,None,948.8633513,None,,,947.6949674,None,,,,,,,1,2022_Mar_23_1432,Real-fake-judgement-flashing-group1,2021.1.2,60.00468781
250,Trial # 98,Group1-stimuli/group1-block2/fake-group2-b2/encoded_Group2_IMG_1191.jpg,0,encoded_Group2_IMG_1191.jpg,,,,,,,,,0.0,97.0,97.0,97.0,,,,,,,,,,,,,,,948.9462017,None,,,0,0.099384181,951.413113,None,951.413113,None,,,950.2460317,None,,,,,,,1,2022_Mar_23_1432,Real-fake-judgement-flashing-group1,2021.1.2,60.00468781
251,Trial # 99,Group1-stimuli/group1-block2/real-group1-b2/Group1_IMG_9937.jpg,1,Group1_IMG_9937.jpg,,,,,,,,,0.0,98.0,98.0,98.0,,,,,,,,,,,,,,,951.5297804,None,,,1,0.066737519,953.9977742,None,953.9977742,None,,,952.8301559,None,,,,,,,1,2022_Mar_23_1432,Real-fake-judgement-flashing-group1,2021.1.2,60.00468781
252,Trial # 100,Group1-stimuli/group1-block2/fake-group2-b2/encoded_Group2_IMG_0106.jpg,0,encoded_Group2_IMG_0106.jpg,,,,,,,,,0.0,99.0,99.0,99.0,,,,,,,,,,,,,,,954.0819342,None,,,0,0.036500497,956.5479872,None,956.5479872,None,,,955.3809963,None,,,,,,,1,2022_Mar_23_1432,Real-fake-judgement-flashing-group1,2021.1.2,60.00468781
253,Trial # 101,Group1-stimuli/group1-block2/real-group1-b2/Group1_IMG_2790.jpg,1,Group1_IMG_2790.jpg,,,,,,,,,0.0,100.0,100.0,100.0,,,,,,,,,,,,,,,956.6142259,None,,,0,0.652923081,959.0836002,None,959.0836002,None,,,957.916225,None,,,,,,,1,2022_Mar_23_1432,Real-fake-judgement-flashing-group1,2021.1.2,60.00468781
254,Trial # 102,Group1-stimuli/group1-block2/real-group1-b2/Group1_IMG_9792.jpg,1,Group1_IMG_9792.jpg,,,,,,,,,0.0,101.0,101.0,101.0,,,,,,,,,,,,,,,959.7654888,None,,,1,0.111262082,962.2332285,None,962.2332285,None,,,961.0658511,None,,,,,,,1,2022_Mar_23_1432,Real-fake-judgement-flashing-group1,2021.1.2,60.00468781
255,Trial # 103,Group1-stimuli/group1-block2/real-group1-b2/Group1_IMG_1640.jpg,1,Group1_IMG_1640.jpg,,,,,,,,,0.0,102.0,102.0,102.0,,,,,,,,,,,,,,,962.3666943,None,,,1,0.230020981,964.8504875,None,964.8504875,None,,,963.6680556,None,,,,,,,1,2022_Mar_23_1432,Real-fake-judgement-flashing-group1,2021.1.2,60.00468781
256,Trial # 104,Group1-stimuli/group1-block2/real-group1-b2/Group1_IMG_0033.jpg,1,Group1_IMG_0033.jpg,,,,,,,,,0.0,103.0,103.0,103.0,,,,,,,,,,,,,,,965.101906,None,,,1,0.207840599,967.5846588,None,967.5846588,None,,,966.4343358,None,,,,,,,1,2022_Mar_23_1432,Real-fake-judgement-flashing-group1,2021.1.2,60.00468781
257,Trial # 105,Group1-stimuli/group1-block2/real-group1-b2/Group1_IMG_0079.jpg,1,Group1_IMG_0079.jpg,,,,,,,,,0.0,104.0,104.0,104.0,,,,,,,,,,,,,,,967.8177135,None,,,1,0.25076055,970.2856738,None,970.2856738,None,,,969.1196804,None,,,,,,,1,2022_Mar_23_1432,Real-fake-judgement-flashing-group1,2021.1.2,60.00468781
258,Trial # 106,Group1-stimuli/group1-block2/fake-group2-b2/encoded_Group2_IMG_9909.jpg,0,encoded_Group2_IMG_9909.jpg,,,,,,,,,0.0,105.0,105.0,105.0,,,,,,,,,,,,,,,970.5689976,None,,,0,0.098571554,973.0378516,None,973.0378516,None,,,971.8694248,None,,,,,,,1,2022_Mar_23_1432,Real-fake-judgement-flashing-group1,2021.1.2,60.00468781
259,Trial # 107,Group1-stimuli/group1-block2/fake-group2-b2/encoded_Group2_IMG_0398.jpg,0,encoded_Group2_IMG_0398.jpg,,,,,,,,,0.0,106.0,106.0,106.0,,,,,,,,,,,,,,,973.154673,None,,,0,0.124374125,975.6041242,None,975.6041242,None,,,974.4379971,None,,,,,,,1,2022_Mar_23_1432,Real-fake-judgement-flashing-group1,2021.1.2,60.00468781
260,Trial # 108,Group1-stimuli/group1-block2/real-group1-b2/Group1_IMG_4268.jpg,1,Group1_IMG_4268.jpg,,,,,,,,,0.0,107.0,107.0,107.0,,,,,,,,,,,,,,,975.7537683,None,,,0,0.122461278,978.2220393,None,978.2220393,None,,,977.0542525,None,,,,,,,1,2022_Mar_23_1432,Real-fake-judgement-flashing-group1,2021.1.2,60.00468781
261,Trial # 109,Group1-stimuli/group1-block2/fake-group2-b2/encoded_Group2_IMG_9321.jpg,0,encoded_Group2_IMG_9321.jpg,,,,,,,,,0.0,108.0,108.0,108.0,,,,,,,,,,,,,,,978.3728719,None,,,0,1.994908165,980.8215875,None,980.8215875,None,,,979.6563042,None,,,,,,,1,2022_Mar_23_1432,Real-fake-judgement-flashing-group1,2021.1.2,60.00468781
262,Trial # 110,Group1-stimuli/group1-block2/fake-group2-b2/encoded_Group2_IMG_9964.jpg,0,encoded_Group2_IMG_9964.jpg,,,,,,,,,0.0,109.0,109.0,109.0,,,,,,,,,,,,,,,982.8394674,None,,,0,0.781553456,985.3068828,None,985.3068828,None,,,984.1410454,None,,,,,,,1,2022_Mar_23_1432,Real-fake-judgement-flashing-group1,2021.1.2,60.00468781
263,Trial # 111,Group1-stimuli/group1-block2/real-group1-b2/Group1_IMG_0329.jpg,1,Group1_IMG_0329.jpg,,,,,,,,,0.0,110.0,110.0,110.0,,,,,,,,,,,,,,,986.1075335,None,,,0,0.073587244,988.5749132,None,988.5749132,None,,,987.4241117,None,,,,,,,1,2022_Mar_23_1432,Real-fake-judgement-flashing-group1,2021.1.2,60.00468781
264,Trial # 112,Group1-stimuli/group1-block2/fake-group2-b2/encoded_Group2_IMG_0534.jpg,0,encoded_Group2_IMG_0534.jpg,,,,,,,,,0.0,111.0,111.0,111.0,,,,,,,,,,,,,,,988.6759609,None,,,0,0.266038857,991.1584726,None,991.1584726,None,,,989.9749935,None,,,,,,,1,2022_Mar_23_1432,Real-fake-judgement-flashing-group1,2021.1.2,60.00468781
265,Trial # 113,Group1-stimuli/group1-block2/fake-group2-b2/encoded_Group2_IMG_0054.jpg,0,encoded_Group2_IMG_0054.jpg,,,,,,,,,0.0,112.0,112.0,112.0,,,,,,,,,,,,,,,991.4424465,None,,,0,0.098325048,993.9101671,None,993.9101671,None,,,992.7425685,None,,,,,,,1,2022_Mar_23_1432,Real-fake-judgement-flashing-group1,2021.1.2,60.00468781
266,Trial # 114,Group1-stimuli/group1-block2/real-group1-b2/Group1_IMG_9979.jpg,1,Group1_IMG_9979.jpg,,,,,,,,,0.0,113.0,113.0,113.0,,,,,,,,,,,,,,,994.0275407,None,,,1,0.074784963,996.493714,None,996.493714,None,,,995.327859,None,,,,,,,1,2022_Mar_23_1432,Real-fake-judgement-flashing-group1,2021.1.2,60.00468781
267,Trial # 115,Group1-stimuli/group1-block2/real-group1-b2/Group1_IMG_0170.jpg,1,Group1_IMG_0170.jpg,,,,,,,,,0.0,114.0,114.0,114.0,,,,,,,,,,,,,,,996.5939296,None,,,1,0.106026653,999.0624731,None,999.0624731,None,,,997.8935554,None,,,,,,,1,2022_Mar_23_1432,Real-fake-judgement-flashing-group1,2021.1.2,60.00468781
268,Trial # 116,Group1-stimuli/group1-block2/fake-group2-b2/encoded_Group2_IMG_0007.jpg,0,encoded_Group2_IMG_0007.jpg,,,,,,,,,0.0,115.0,115.0,115.0,,,,,,,,,,,,,,,999.195122,None,,,1,0.427198596,1001.645299,None,1001.645299,None,,,1000.478152,None,,,,,,,1,2022_Mar_23_1432,Real-fake-judgement-flashing-group1,2021.1.2,60.00468781
269,Trial # 117,Group1-stimuli/group1-block2/real-group1-b2/Group1_IMG_0192.jpg,1,Group1_IMG_0192.jpg,,,,,,,,,0.0,116.0,116.0,116.0,,,,,,,,,,,,,,,1002.095546,None,,,1,1.140471465,1004.564027,None,1004.564027,None,,,1003.397035,None,,,,,,,1,2022_Mar_23_1432,Real-fake-judgement-flashing-group1,2021.1.2,60.00468781
270,Trial # 118,Group1-stimuli/group1-block2/real-group1-b2/Group1_IMG_9786.jpg,1,Group1_IMG_9786.jpg,,,,,,,,,0.0,117.0,117.0,117.0,,,,,,,,,,,,,,,1005.730797,None,,,0,0.090580898,1008.197918,None,1008.197918,None,,,1007.046656,None,,,,,,,1,2022_Mar_23_1432,Real-fake-judgement-flashing-group1,2021.1.2,60.00468781
271,Trial # 119,Group1-stimuli/group1-block2/real-group1-b2/Group1_IMG_0187.jpg,1,Group1_IMG_0187.jpg,,,,,,,,,0.0,118.0,118.0,118.0,,,,,,,,,,,,,,,1008.315248,None,,,1,0.257921957,1010.79859,None,1010.79859,None,,,1009.630956,None,,,,,,,1,2022_Mar_23_1432,Real-fake-judgement-flashing-group1,2021.1.2,60.00468781
272,Trial # 120,Group1-stimuli/group1-block2/fake-group2-b2/encoded_Group2_IMG_0249.jpg,0,encoded_Group2_IMG_0249.jpg,,,,,,,,,0.0,119.0,119.0,119.0,,,,,,,,,,,,,,,1011.081518,None,,,0,0.242972747,1013.549526,None,1013.549526,None,,,1012.381892,None,,,,,,,1,2022_Mar_23_1432,Real-fake-judgement-flashing-group1,2021.1.2,60.00468781
273,Trial # 121,Group1-stimuli/group1-block2/fake-group2-b2/encoded_Group2_IMG_0074.jpg,0,encoded_Group2_IMG_0074.jpg,,,,,,,,,0.0,120.0,120.0,120.0,,,,,,,,,,,,,,,1013.816996,None,,,0,0.08467245,1016.299785,None,1016.299785,None,,,1015.133584,None,,,,,,,1,2022_Mar_23_1432,Real-fake-judgement-flashing-group1,2021.1.2,60.00468781
274,Trial # 122,Group1-stimuli/group1-block2/real-group1-b2/Group1_IMG_0243.jpg,1,Group1_IMG_0243.jpg,,,,,,,,,0.0,121.0,121.0,121.0,,,,,,,,,,,,,,,1016.417126,None,,,1,0.444039128,1018.88446,None,1018.88446,None,,,1017.733541,None,,,,,,,1,2022_Mar_23_1432,Real-fake-judgement-flashing-group1,2021.1.2,60.00468781
275,Trial # 123,Group1-stimuli/group1-block2/real-group1-b2/Group1_IMG_0130.jpg,1,Group1_IMG_0130.jpg,,,,,,,,,0.0,122.0,122.0,122.0,,,,,,,,,,,,,,,1019.351953,None,,,1,0.445404488,1021.835129,None,1021.835129,None,,,1020.667864,None,,,,,,,1,2022_Mar_23_1432,Real-fake-judgement-flashing-group1,2021.1.2,60.00468781
276,Trial # 124,Group1-stimuli/group1-block2/real-group1-b2/Group1_IMG_0298.jpg,1,Group1_IMG_0298.jpg,,,,,,,,,0.0,123.0,123.0,123.0,,,,,,,,,,,,,,,1022.301931,None,,,1,0.438788753,1024.785733,None,1024.785733,None,,,1023.603212,None,,,,,,,1,2022_Mar_23_1432,Real-fake-judgement-flashing-group1,2021.1.2,60.00468781
277,Trial # 125,Group1-stimuli/group1-block2/real-group1-b2/Group1_IMG_5871.jpg,1,Group1_IMG_5871.jpg,,,,,,,,,0.0,124.0,124.0,124.0,,,,,,,,,,,,,,,1025.252727,None,,,1,0.192343955,1027.720153,None,1027.720153,None,,,1026.552696,None,,,,,,,1,2022_Mar_23_1432,Real-fake-judgement-flashing-group1,2021.1.2,60.00468781
278,Trial # 126,Group1-stimuli/group1-block2/fake-group2-b2/encoded_Group2_IMG_0479.jpg,0,encoded_Group2_IMG_0479.jpg,,,,,,,,,0.0,125.0,125.0,125.0,,,,,,,,,,,,,,,1027.938119,None,,,0,0.23143429,1030.408959,None,1030.408959,None,,,1029.23829,None,,,,,,,1,2022_Mar_23_1432,Real-fake-judgement-flashing-group1,2021.1.2,60.00468781
279,Trial # 127,Group1-stimuli/group1-block2/fake-group2-b2/encoded_Group2_IMG_4971.jpg,0,encoded_Group2_IMG_4971.jpg,,,,,,,,,0.0,126.0,126.0,126.0,,,,,,,,,,,,,,,1030.655111,None,,,0,0.102207445,1033.122267,None,1033.122267,None,,,1031.954548,None,,,,,,,1,2022_Mar_23_1432,Real-fake-judgement-flashing-group1,2021.1.2,60.00468781
280,Trial # 128,Group1-stimuli/group1-block2/real-group1-b2/Group1_IMG_0173.jpg,1,Group1_IMG_0173.jpg,,,,,,,,,0.0,127.0,127.0,127.0,,,,,,,,,,,,,,,1033.255693,None,,,0,0.149911128,1035.722585,None,1035.722585,None,,,1034.556596,None,,,,,,,1,2022_Mar_23_1432,Real-fake-judgement-flashing-group1,2021.1.2,60.00468781
281,Trial # 129,Group1-stimuli/group1-block2/real-group1-b2/Group1_IMG_0213.jpg,1,Group1_IMG_0213.jpg,,,,,,,,,0.0,128.0,128.0,128.0,,,,,,,,,,,,,,,1035.889463,None,,,1,0.619274358,1038.357226,None,1038.357226,None,,,1037.189721,None,,,,,,,1,2022_Mar_23_1432,Real-fake-judgement-flashing-group1,2021.1.2,60.00468781
282,Trial # 130,Group1-stimuli/group1-block2/fake-group2-b2/encoded_Group2_IMG_0260.jpg,0,encoded_Group2_IMG_0260.jpg,,,,,,,,,0.0,129.0,129.0,129.0,,,,,,,,,,,,,,,1039.008032,None,,,1,0.925369759,1041.491128,None,1041.491128,None,,,1040.307017,None,,,,,,,1,2022_Mar_23_1432,Real-fake-judgement-flashing-group1,2021.1.2,60.00468781
283,Trial # 131,Group1-stimuli/group1-block2/fake-group2-b2/encoded_Group2_IMG_7291.jpg,0,encoded_Group2_IMG_7291.jpg,,,,,,,,,0.0,130.0,130.0,130.0,,,,,,,,,,,,,,,1042.441196,None,,,0,0.099801289,1044.908699,None,1044.908699,None,,,1043.742838,None,,,,,,,1,2022_Mar_23_1432,Real-fake-judgement-flashing-group1,2021.1.2,60.00468781
284,Trial # 132,Group1-stimuli/group1-block2/fake-group2-b2/encoded_Group2_IMG_0176.jpg,0,encoded_Group2_IMG_0176.jpg,,,,,,,,,0.0,131.0,131.0,131.0,,,,,,,,,,,,,,,1045.026442,None,,,0,0.186782553,1047.509633,None,1047.509633,None,,,1046.35892,None,,,,,,,1,2022_Mar_23_1432,Real-fake-judgement-flashing-group1,2021.1.2,60.00468781
285,Trial # 133,Group1-stimuli/group1-block2/real-group1-b2/Group1_IMG_9699.jpg,1,Group1_IMG_9699.jpg,,,,,,,,,0.0,132.0,132.0,132.0,,,,,,,,,,,,,,,1047.726611,None,,,1,0.436891881,1050.227527,None,1050.227527,None,,,1049.044476,None,,,,,,,1,2022_Mar_23_1432,Real-fake-judgement-flashing-group1,2021.1.2,60.00468781
286,Trial # 134,Group1-stimuli/group1-block2/real-group1-b2/Group1_IMG_0381.jpg,1,Group1_IMG_0381.jpg,,,,,,,,,0.0,133.0,133.0,133.0,,,,,,,,,,,,,,,1050.693927,None,,,1,0.111233991,1053.161313,None,1053.161313,None,,,1051.993509,None,,,,,,,1,2022_Mar_23_1432,Real-fake-judgement-flashing-group1,2021.1.2,60.00468781
287,Trial # 135,Group1-stimuli/group1-block2/real-group1-b2/Group1_IMG_0309.jpg,1,Group1_IMG_0309.jpg,,,,,,,,,0.0,134.0,134.0,134.0,,,,,,,,,,,,,,,1053.295,None,,,1,1.254097043,1055.778402,None,1055.778402,None,,,1054.596185,None,,,,,,,1,2022_Mar_23_1432,Real-fake-judgement-flashing-group1,2021.1.2,60.00468781
288,Trial # 136,Group1-stimuli/group1-block2/fake-group2-b2/encoded_Group2_IMG_0041.jpg,0,encoded_Group2_IMG_0041.jpg,,,,,,,,,0.0,135.0,135.0,135.0,,,,,,,,,,,,,,,1057.06274,None,,,0,0.173980034,1059.514435,None,1059.514435,None,,,1058.347046,None,,,,,,,1,2022_Mar_23_1432,Real-fake-judgement-flashing-group1,2021.1.2,60.00468781
289,Trial # 137,Group1-stimuli/group1-block2/real-group1-b2/Group1_IMG_0303.jpg,1,Group1_IMG_0303.jpg,,,,,,,,,0.0,136.0,136.0,136.0,,,,,,,,,,,,,,,1059.713115,None,,,1,1.259655209,1062.196844,None,1062.196844,None,,,1061.029986,None,,,,,,,1,2022_Mar_23_1432,Real-fake-judgement-flashing-group1,2021.1.2,60.00468781
290,Trial # 138,Group1-stimuli/group1-block2/fake-group2-b2/encoded_Group2_IMG_0419.jpg,0,encoded_Group2_IMG_0419.jpg,,,,,,,,,0.0,137.0,137.0,137.0,,,,,,,,,,,,,,,1063.482344,None,,,0,0.139604656,1065.964895,None,1065.964895,None,,,1064.798167,None,,,,,,,1,2022_Mar_23_1432,Real-fake-judgement-flashing-group1,2021.1.2,60.00468781
291,Trial # 139,Group1-stimuli/group1-block2/real-group1-b2/Group1_IMG_0384.jpg,1,Group1_IMG_0384.jpg,,,,,,,,,0.0,138.0,138.0,138.0,,,,,,,,,,,,,,,1066.131791,None,,,1,0.016264953,1068.600246,None,1068.600246,None,,,1067.431786,None,,,,,,,1,2022_Mar_23_1432,Real-fake-judgement-flashing-group1,2021.1.2,60.00468781
292,Trial # 140,Group1-stimuli/group1-block2/real-group1-b2/Group1_IMG_0147.jpg,1,Group1_IMG_0147.jpg,,,,,,,,,0.0,139.0,139.0,139.0,,,,,,,,,,,,,,,1068.634257,None,,,1,0.195672219,1071.116827,None,1071.116827,None,,,1069.94975,None,,,,,,,1,2022_Mar_23_1432,Real-fake-judgement-flashing-group1,2021.1.2,60.00468781
293,Trial # 141,Group1-stimuli/group1-block2/real-group1-b2/Group1_IMG_9725.jpg,1,Group1_IMG_9725.jpg,,,,,,,,,0.0,140.0,140.0,140.0,,,,,,,,,,,,,,,1071.3334,None,,,0,0.23896688,1073.801534,None,1073.801534,None,,,1072.65033,None,,,,,,,1,2022_Mar_23_1432,Real-fake-judgement-flashing-group1,2021.1.2,60.00468781
294,Trial # 142,Group1-stimuli/group1-block2/real-group1-b2/Group1_IMG_0341.jpg,1,Group1_IMG_0341.jpg,,,,,,,,,0.0,141.0,141.0,141.0,,,,,,,,,,,,,,,1074.069404,None,,,1,0.336613536,1076.551894,None,1076.551894,None,,,1075.38574,None,,,,,,,1,2022_Mar_23_1432,Real-fake-judgement-flashing-group1,2021.1.2,60.00468781
295,Trial # 143,Group1-stimuli/group1-block2/fake-group2-b2/encoded_Group2_IMG_0072.jpg,0,encoded_Group2_IMG_0072.jpg,,,,,,,,,0.0,142.0,142.0,142.0,,,,,,,,,,,,,,,1076.918377,None,,,0,0.077208123,1079.387293,None,1079.387293,None,,,1078.236815,None,,,,,,,1,2022_Mar_23_1432,Real-fake-judgement-flashing-group1,2021.1.2,60.00468781
296,Trial # 144,Group1-stimuli/group1-block2/fake-group2-b2/encoded_Group2_IMG_0558.jpg,0,encoded_Group2_IMG_0558.jpg,,,,,,,,,0.0,143.0,143.0,143.0,,,,,,,,,,,,,,,1079.486558,None,,,0,0.255984235,1081.936498,None,1081.936498,None,,,1080.76986,None,,,,,,,1,2022_Mar_23_1432,Real-fake-judgement-flashing-group1,2021.1.2,60.00468781
297,Trial # 145,Group1-stimuli/group1-block2/real-group1-b2/Group1_IMG_0493.jpg,1,Group1_IMG_0493.jpg,,,,,,,,,0.0,144.0,144.0,144.0,,,,,,,,,,,,,,,1082.220031,None,,,1,0.047331501,1084.68908,None,1084.68908,None,,,1083.538455,None,,,,,,,1,2022_Mar_23_1432,Real-fake-judgement-flashing-group1,2021.1.2,60.00468781
298,Trial # 146,Group1-stimuli/group1-block2/fake-group2-b2/encoded_Group2_IMG_1715.jpg,0,encoded_Group2_IMG_1715.jpg,,,,,,,,,0.0,145.0,145.0,145.0,,,,,,,,,,,,,,,1084.7546,None,,,0,0.979305144,1087.20519,None,1087.20519,None,,,1086.038029,None,,,,,,,1,2022_Mar_23_1432,Real-fake-judgement-flashing-group1,2021.1.2,60.00468781
299,Trial # 147,Group1-stimuli/group1-block2/fake-group2-b2/encoded_Group2_IMG_9807.jpg,0,encoded_Group2_IMG_9807.jpg,,,,,,,,,0.0,146.0,146.0,146.0,,,,,,,,,,,,,,,1088.205693,None,,,0,0.743962467,1090.672536,None,1090.672536,None,,,1089.50636,None,,,,,,,1,2022_Mar_23_1432,Real-fake-judgement-flashing-group1,2021.1.2,60.00468781
300,Trial # 148,Group1-stimuli/group1-block2/fake-group2-b2/encoded_Group2_IMG_0545.jpg,0,encoded_Group2_IMG_0545.jpg,,,,,,,,,0.0,147.0,147.0,147.0,,,,,,,,,,,,,,,1091.440348,None,,,1,0.061410561,1093.891088,None,1093.891088,None,,,1092.723547,None,,,,,,,1,2022_Mar_23_1432,Real-fake-judgement-flashing-group1,2021.1.2,60.00468781
301,Trial # 149,Group1-stimuli/group1-block2/real-group1-b2/Group1_IMG_9766.jpg,1,Group1_IMG_9766.jpg,,,,,,,,,0.0,148.0,148.0,148.0,,,,,,,,,,,,,,,1093.975376,None,,,1,0.287170384,1096.441372,None,1096.441372,None,,,1095.274205,None,,,,,,,1,2022_Mar_23_1432,Real-fake-judgement-flashing-group1,2021.1.2,60.00468781
302,Trial # 150,Group1-stimuli/group1-block2/fake-group2-b2/encoded_Group2_IMG_4956.jpg,0,encoded_Group2_IMG_4956.jpg,,,,,,,,,0.0,149.0,149.0,149.0,,,,,,,,,,,,,,,1096.758347,None,,,0,0.349652825,1099.226782,None,1099.226782,None,,,1098.076248,None,,,,,,,1,2022_Mar_23_1432,Real-fake-judgement-flashing-group1,2021.1.2,60.00468781
303,Trial # 1,Group1-stimuli/group1-block1/fake-group2-b1/encoded_Group2_IMG_3584.jpg,0,encoded_Group2_IMG_3584.jpg,,,,,,,,,,,,,0.0,0.0,0.0,0.0,,,,,,,,,,,1220.629973,None,,,0,1.431159143,1223.097385,None,1223.097385,None,1217.49979,None,1221.929896,None,1099.608731,None,1103.227323,None,,,1,2022_Mar_23_1432,Real-fake-judgement-flashing-group1,2021.1.2,60.00468781
304,Trial # 2,Group1-stimuli/group1-block1/fake-group2-b1/encoded_Group2_IMG_9804.jpg,0,encoded_Group2_IMG_9804.jpg,,,,,,,,,,,,,0.0,1.0,1.0,1.0,,,,,,,,,,,1224.547801,None,,,0,0.248168777,1227.032241,None,1227.032241,None,,,1225.847989,None,,,,,,,1,2022_Mar_23_1432,Real-fake-judgement-flashing-group1,2021.1.2,60.00468781
305,Trial # 3,Group1-stimuli/group1-block1/real-group1-b1/Group1_IMG_0022.jpg,1,Group1_IMG_0022.jpg,,,,,,,,,,,,,0.0,2.0,2.0,2.0,,,,,,,,,,,1227.298822,None,,,1,0.145255428,1229.767231,None,1229.767231,None,,,1228.600038,None,,,,,,,1,2022_Mar_23_1432,Real-fake-judgement-flashing-group1,2021.1.2,60.00468781
306,Trial # 4,Group1-stimuli/group1-block1/real-group1-b1/Group1_IMG_0239.jpg,1,Group1_IMG_0239.jpg,,,,,,,,,,,,,0.0,3.0,3.0,3.0,,,,,,,,,,,1229.932833,None,,,0,0.496590627,1232.399909,None,1232.399909,None,,,1231.232932,None,,,,,,,1,2022_Mar_23_1432,Real-fake-judgement-flashing-group1,2021.1.2,60.00468781
307,Trial # 5,Group1-stimuli/group1-block1/fake-group2-b1/encoded_Group2_IMG_9726.jpg,0,encoded_Group2_IMG_9726.jpg,,,,,,,,,,,,,0.0,4.0,4.0,4.0,,,,,,,,,,,1232.915984,None,,,0,0.024095704,1235.384337,None,1235.384337,None,,,1234.218311,None,,,,,,,1,2022_Mar_23_1432,Real-fake-judgement-flashing-group1,2021.1.2,60.00468781
308,Trial # 6,Group1-stimuli/group1-block1/real-group1-b1/Group1_IMG_0417.jpg,1,Group1_IMG_0417.jpg,,,,,,,,,,,,,0.0,5.0,5.0,5.0,,,,,,,,,,,1235.434491,None,,,0,0.058813598,1237.901685,None,1237.901685,None,,,1236.734791,None,,,,,,,1,2022_Mar_23_1432,Real-fake-judgement-flashing-group1,2021.1.2,60.00468781
309,Trial # 7,Group1-stimuli/group1-block1/real-group1-b1/Group1_IMG_9889.jpg,1,Group1_IMG_9889.jpg,,,,,,,,,,,,,0.0,6.0,6.0,6.0,,,,,,,,,,,1237.986506,None,,,1,0.219900257,1240.45261,None,1240.45261,None,,,1239.286632,None,,,,,,,1,2022_Mar_23_1432,Real-fake-judgement-flashing-group1,2021.1.2,60.00468781
310,Trial # 8,Group1-stimuli/group1-block1/real-group1-b1/Group1_IMG_0428.jpg,1,Group1_IMG_0428.jpg,,,,,,,,,,,,,0.0,7.0,7.0,7.0,,,,,,,,,,,1240.703289,None,,,0,0.589933973,1243.170565,None,1243.170565,None,,,1242.003251,None,,,,,,,1,2022_Mar_23_1432,Real-fake-judgement-flashing-group1,2021.1.2,60.00468781
