,Trial_num,image_path,ground_truth,image_name,demos.thisRepN,demos.thisTrialN,demos.thisN,demos.thisIndex,block1.thisRepN,block1.thisTrialN,block1.thisN,block1.thisIndex,block2.thisRepN,block2.thisTrialN,block2.thisN,block2.thisIndex,block1_rep2.thisRepN,block1_rep2.thisTrialN,block1_rep2.thisN,block1_rep2.thisIndex,block2_rep.thisRepN,block2_rep.thisTrialN,block2_rep.thisN,block2_rep.thisIndex,text_3.started,text_3.stopped,text_4.started,text_4.stopped,text.started,text.stopped,trail_num.started,trail_num.stopped,image_6.started,image_6.stopped,Judgement.keys,Judgement.rt,Judgement.started,Judgement.stopped,text_19.started,text_19.stopped,text_12.started,text_12.stopped,image.started,image.stopped,text_2.started,text_2.stopped,text_13.started,text_13.stopped,session,date,expName,psychopyVersion,frameRate,Unnamed: 54
0,Demo 1,demo/Demo_IMG_0974.jpg,demo,Demo_IMG_0974.jpg,0.0,0.0,0.0,0.0,,,,,,,,,,,,,,,,,23.80608121678233,None,28.22366704279557,None,39.675983915803954,None,43.377329189796,None,44.7776758777909,None,1,9.070493984036148,45.84459035284817,None,45.84459035284817,None,,,,,,,,,1,2022_Apr_12_1103,Real-fake-judgement-flashing-group1,2021.1.2,59.73953215431014,
1,Demo 2,demo/Demo_IMG_1024.jpg,demo,Demo_IMG_1024.jpg,0.0,1.0,1.0,1.0,,,,,,,,,,,,,,,,,,,,,,,54.93114937399514,None,56.29796398081817,None,0,4.971348457038403,57.415677102981135,None,57.415677102981135,None,,,,,,,,,1,2022_Apr_12_1103,Real-fake-judgement-flashing-group1,2021.1.2,59.73953215431014,
2,Demo 3,demo/Demo_seed_80003.png,demo,Demo_seed_80003.png,0.0,2.0,2.0,2.0,,,,,,,,,,,,,,,,,,,,,,,62.41614144598134,None,63.78484251489863,None,1,3.501045642886311,64.90195756079629,None,64.90195756079629,None,,,,,,,,,1,2022_Apr_12_1103,Real-fake-judgement-flashing-group1,2021.1.2,59.73953215431014,
3,Trial # 1,Group1-stimuli/group1-block1/real-group1-b1/Group1_IMG_0022.jpg,1,Group1_IMG_0022.jpg,,,,,0.0,0.0,0.0,0.0,,,,,,,,,,,,,,,,,,,84.29035057895817,None,,,1,3.653529703151434,86.75753967091441,None,86.75753967091441,None,68.90318875689991,None,85.64065655996092,None,,,,,1,2022_Apr_12_1103,Real-fake-judgement-flashing-group1,2021.1.2,59.73953215431014,
4,Trial # 2,Group1-stimuli/group1-block1/fake-group2-b1/encoded_Group2_IMG_0386.jpg,0,encoded_Group2_IMG_0386.jpg,,,,,0.0,1.0,1.0,1.0,,,,,,,,,,,,,,,,,,,90.44177645398304,None,,,1,0.5404677439946681,92.926602428779,None,92.926602428779,None,,,91.75910939392634,None,,,,,1,2022_Apr_12_1103,Real-fake-judgement-flashing-group1,2021.1.2,59.73953215431014,
5,Trial # 3,Group1-stimuli/group1-block1/real-group1-b1/Group1_IMG_9704.jpg,1,Group1_IMG_9704.jpg,,,,,0.0,2.0,2.0,2.0,,,,,,,,,,,,,,,,,,,93.49415487679651,None,,,1,1.0979052549228072,95.9771578698419,None,95.9771578698419,None,,,94.809864877956,None,,,,,1,2022_Apr_12_1103,Real-fake-judgement-flashing-group1,2021.1.2,59.73953215431014,
6,Trial # 4,Group1-stimuli/group1-block1/real-group1-b1/Group1_IMG_0406.jpg,1,Group1_IMG_0406.jpg,,,,,0.0,3.0,3.0,3.0,,,,,,,,,,,,,,,,,,,97.09351639985108,None,,,1,1.0089543669018894,99.57811439083888,None,99.57811439083888,None,,,98.41224567289464,None,,,,,1,2022_Apr_12_1103,Real-fake-judgement-flashing-group1,2021.1.2,59.73953215431014,
7,Trial # 5,Group1-stimuli/group1-block1/fake-group2-b1/encoded_Group2_IMG_0364.jpg,0,encoded_Group2_IMG_0364.jpg,,,,,0.0,4.0,4.0,4.0,,,,,,,,,,,,,,,,,,,100.61173280677758,None,,,0,0.5304648780729622,103.08056449890135,None,103.08056449890135,None,,,101.91222944692709,None,,,,,1,2022_Apr_12_1103,Real-fake-judgement-flashing-group1,2021.1.2,59.73953215431014,
8,Trial # 6,Group1-stimuli/group1-block1/fake-group2-b1/encoded_Group2_IMG_0407.jpg,0,encoded_Group2_IMG_0407.jpg,,,,,0.0,5.0,5.0,5.0,,,,,,,,,,,,,,,,,,,103.629878239939,None,,,0,0.481427859980613,106.11355229280888,None,106.11355229280888,None,,,104.94635989586824,None,,,,,1,2022_Apr_12_1103,Real-fake-judgement-flashing-group1,2021.1.2,59.73953215431014,
9,Trial # 7,Group1-stimuli/group1-block1/real-group1-b1/Group1_IMG_0428.jpg,1,Group1_IMG_0428.jpg,,,,,0.0,6.0,6.0,6.0,,,,,,,,,,,,,,,,,,,106.61351067991929,None,,,1,0.5607794399838895,109.08229053998366,None,109.08229053998366,None,,,107.91482499381527,None,,,,,1,2022_Apr_12_1103,Real-fake-judgement-flashing-group1,2021.1.2,59.73953215431014,
10,Trial # 8,Group1-stimuli/group1-block1/fake-group2-b1/encoded_Group2_IMG_0474.jpg,0,encoded_Group2_IMG_0474.jpg,,,,,0.0,7.0,7.0,7.0,,,,,,,,,,,,,,,,,,,109.66503593092784,None,,,0,0.28578493418172,112.1653596709948,None,112.1653596709948,None,,,110.9816610198468,None,,,,,1,2022_Apr_12_1103,Real-fake-judgement-flashing-group1,2021.1.2,59.73953215431014,
11,Trial # 9,Group1-stimuli/group1-block1/fake-group2-b1/encoded_Group2_IMG_1506.jpg,0,encoded_Group2_IMG_1506.jpg,,,,,0.0,8.0,8.0,8.0,,,,,,,,,,,,,,,,,,,112.48190224380232,None,,,0,0.3802566989324987,114.95073665096425,None,114.95073665096425,None,,,113.8003616919741,None,,,,,1,2022_Apr_12_1103,Real-fake-judgement-flashing-group1,2021.1.2,59.73953215431014,
12,Trial # 10,Group1-stimuli/group1-block1/real-group1-b1/Group1_IMG_9789.jpg,1,Group1_IMG_9789.jpg,,,,,0.0,9.0,9.0,9.0,,,,,,,,,,,,,,,,,,,115.34957616287284,None,,,1,0.3647049360442906,117.82236425182782,None,117.82236425182782,None,,,116.66650573397057,None,,,,,1,2022_Apr_12_1103,Real-fake-judgement-flashing-group1,2021.1.2,59.73953215431014,
13,Trial # 11,Group1-stimuli/group1-block1/real-group1-b1/Group1_IMG_9778.jpg,1,Group1_IMG_9778.jpg,,,,,0.0,10.0,10.0,10.0,,,,,,,,,,,,,,,,,,,118.21860984386876,None,,,1,0.3884159601293504,120.71865087887272,None,120.71865087887272,None,,,119.55228743795304,None,,,,,1,2022_Apr_12_1103,Real-fake-judgement-flashing-group1,2021.1.2,59.73953215431014,
14,Trial # 12,Group1-stimuli/group1-block1/real-group1-b1/Group1_IMG_9813.jpg,1,Group1_IMG_9813.jpg,,,,,0.0,11.0,11.0,11.0,,,,,,,,,,,,,,,,,,,121.13512673880903,None,,,1,1.031376990955323,123.60359477996826,None,123.60359477996826,None,,,122.43568667280488,None,,,,,1,2022_Apr_12_1103,Real-fake-judgement-flashing-group1,2021.1.2,59.73953215431014,
15,Trial # 13,Group1-stimuli/group1-block1/real-group1-b1/Group1_IMG_0516.jpg,1,Group1_IMG_0516.jpg,,,,,0.0,12.0,12.0,12.0,,,,,,,,,,,,,,,,,,,124.65273166378029,None,,,0,7.714620172046125,127.12044799583964,None,127.12044799583964,None,,,125.95304097887129,None,,,,,1,2022_Apr_12_1103,Real-fake-judgement-flashing-group1,2021.1.2,59.73953215431014,
16,Trial # 14,Group1-stimuli/group1-block1/fake-group2-b1/encoded_Group2_IMG_0038.jpg,0,encoded_Group2_IMG_0038.jpg,,,,,0.0,13.0,13.0,13.0,,,,,,,,,,,,,,,,,,,134.8559409067966,None,,,0,0.3430447319988161,137.34001750778407,None,137.34001750778407,None,,,136.1728306519799,None,,,,,1,2022_Apr_12_1103,Real-fake-judgement-flashing-group1,2021.1.2,59.73953215431014,
17,Trial # 15,Group1-stimuli/group1-block1/real-group1-b1/Group1_IMG_5984.jpg,1,Group1_IMG_5984.jpg,,,,,0.0,14.0,14.0,14.0,,,,,,,,,,,,,,,,,,,137.70612855395302,None,,,0,0.331632660003379,140.1913671309594,None,140.1913671309594,None,,,139.02493437798694,None,,,,,1,2022_Apr_12_1103,Real-fake-judgement-flashing-group1,2021.1.2,59.73953215431014,
18,Trial # 16,Group1-stimuli/group1-block1/real-group1-b1/Group1_IMG_0383.jpg,1,Group1_IMG_0383.jpg,,,,,0.0,15.0,15.0,15.0,,,,,,,,,,,,,,,,,,,140.5411016428843,None,,,1,0.3454941678792238,143.0095740808174,None,143.0095740808174,None,,,141.85826894990169,None,,,,,1,2022_Apr_12_1103,Real-fake-judgement-flashing-group1,2021.1.2,59.73953215431014,
19,Trial # 17,Group1-stimuli/group1-block1/fake-group2-b1/encoded_Group2_IMG_0456.jpg,0,encoded_Group2_IMG_0456.jpg,,,,,0.0,16.0,16.0,16.0,,,,,,,,,,,,,,,,,,,143.376442912966,None,,,0,0.351796398172155,145.8592719847802,None,145.8592719847802,None,,,144.69209053483792,None,,,,,1,2022_Apr_12_1103,Real-fake-judgement-flashing-group1,2021.1.2,59.73953215431014,
20,Trial # 18,Group1-stimuli/group1-block1/fake-group2-b1/encoded_Group2_IMG_8390.jpg,0,encoded_Group2_IMG_8390.jpg,,,,,0.0,17.0,17.0,17.0,,,,,,,,,,,,,,,,,,,146.24350695498288,None,,,0,0.420460085151717,148.7106052339077,None,148.7106052339077,None,,,147.54328051698394,None,,,,,1,2022_Apr_12_1103,Real-fake-judgement-flashing-group1,2021.1.2,59.73953215431014,
21,Trial # 19,Group1-stimuli/group1-block1/real-group1-b1/Group1_IMG_0011.jpg,1,Group1_IMG_0011.jpg,,,,,0.0,18.0,18.0,18.0,,,,,,,,,,,,,,,,,,,149.16055988590233,None,,,1,0.75879011512734,151.64427681686357,None,151.64427681686357,None,,,150.4772366299294,None,,,,,1,2022_Apr_12_1103,Real-fake-judgement-flashing-group1,2021.1.2,59.73953215431014,
22,Trial # 20,Group1-stimuli/group1-block1/fake-group2-b1/encoded_Group2_IMG_0328.jpg,0,encoded_Group2_IMG_0328.jpg,,,,,0.0,19.0,19.0,19.0,,,,,,,,,,,,,,,,,,,152.4277086458169,None,,,0,0.3962722201831639,154.878804723965,None,154.878804723965,None,,,153.7127543129027,None,,,,,1,2022_Apr_12_1103,Real-fake-judgement-flashing-group1,2021.1.2,59.73953215431014,
23,Trial # 21,Group1-stimuli/group1-block1/fake-group2-b1/encoded_Group2_IMG_0163.jpg,0,encoded_Group2_IMG_0163.jpg,,,,,0.0,20.0,20.0,20.0,,,,,,,,,,,,,,,,,,,155.2956081109587,None,,,0,0.264045603107661,157.763023073785,None,157.763023073785,None,,,156.59583333297633,None,,,,,1,2022_Apr_12_1103,Real-fake-judgement-flashing-group1,2021.1.2,59.73953215431014,
24,Trial # 22,Group1-stimuli/group1-block1/real-group1-b1/Group1_IMG_9862.jpg,1,Group1_IMG_9862.jpg,,,,,0.0,21.0,21.0,21.0,,,,,,,,,,,,,,,,,,,158.0475068569649,None,,,0,0.3052284209989011,160.51377921598032,None,160.51377921598032,None,,,159.34747121389955,None,,,,,1,2022_Apr_12_1103,Real-fake-judgement-flashing-group1,2021.1.2,59.73953215431014,
25,Trial # 23,Group1-stimuli/group1-block1/fake-group2-b1/encoded_Group2_IMG_0296.jpg,0,encoded_Group2_IMG_0296.jpg,,,,,0.0,22.0,22.0,22.0,,,,,,,,,,,,,,,,,,,160.8477394899819,None,,,1,0.3671449269168079,163.31585916294716,None,163.31585916294716,None,,,162.14758837292902,None,,,,,1,2022_Apr_12_1103,Real-fake-judgement-flashing-group1,2021.1.2,59.73953215431014,
26,Trial # 24,Group1-stimuli/group1-block1/fake-group2-b1/encoded_Group2_IMG_0503.jpg,0,encoded_Group2_IMG_0503.jpg,,,,,0.0,23.0,23.0,23.0,,,,,,,,,,,,,,,,,,,163.71590004581958,None,,,0,0.2209240458905697,166.182144574821,None,166.182144574821,None,,,165.01510365097784,None,,,,,1,2022_Apr_12_1103,Real-fake-judgement-flashing-group1,2021.1.2,59.73953215431014,
27,Trial # 25,Group1-stimuli/group1-block1/fake-group2-b1/encoded_Group2_IMG_9804.jpg,0,encoded_Group2_IMG_9804.jpg,,,,,0.0,24.0,24.0,24.0,,,,,,,,,,,,,,,,,,,166.43236537883058,None,,,0,0.3195408338215202,168.8835254488513,None,168.8835254488513,None,,,167.71559788892046,None,,,,,1,2022_Apr_12_1103,Real-fake-judgement-flashing-group1,2021.1.2,59.73953215431014,
28,Trial # 26,Group1-stimuli/group1-block1/real-group1-b1/Group1_IMG_0391.jpg,1,Group1_IMG_0391.jpg,,,,,0.0,25.0,25.0,25.0,,,,,,,,,,,,,,,,,,,169.23468538979068,None,,,1,0.3418864889536053,171.71718343091197,None,171.71718343091197,None,,,170.55064411298372,None,,,,,1,2022_Apr_12_1103,Real-fake-judgement-flashing-group1,2021.1.2,59.73953215431014,
29,Trial # 27,Group1-stimuli/group1-block1/fake-group2-b1/encoded_Group2_IMG_3584.jpg,0,encoded_Group2_IMG_3584.jpg,,,,,0.0,26.0,26.0,26.0,,,,,,,,,,,,,,,,,,,172.08362084580585,None,,,1,1.1241888450458646,174.53489300888032,None,174.53489300888032,None,,,173.36881917482242,None,,,,,1,2022_Apr_12_1103,Real-fake-judgement-flashing-group1,2021.1.2,59.73953215431014,
30,Trial # 28,Group1-stimuli/group1-block1/fake-group2-b1/encoded_Group2_IMG_0434.jpg,0,encoded_Group2_IMG_0434.jpg,,,,,0.0,27.0,27.0,27.0,,,,,,,,,,,,,,,,,,,175.68539593997411,None,,,0,0.3462123239878565,178.15290346578695,None,178.15290346578695,None,,,176.98549205088057,None,,,,,1,2022_Apr_12_1103,Real-fake-judgement-flashing-group1,2021.1.2,59.73953215431014,
31,Trial # 29,Group1-stimuli/group1-block1/fake-group2-b1/encoded_Group2_IMG_9575.jpg,0,encoded_Group2_IMG_9575.jpg,,,,,0.0,28.0,28.0,28.0,,,,,,,,,,,,,,,,,,,178.52074539591558,None,,,1,0.2875994811765849,181.00347110792063,None,181.00347110792063,None,,,179.83637657598592,None,,,,,1,2022_Apr_12_1103,Real-fake-judgement-flashing-group1,2021.1.2,59.73953215431014,
32,Trial # 30,Group1-stimuli/group1-block1/fake-group2-b1/encoded_Group2_IMG_1025.jpg,0,encoded_Group2_IMG_1025.jpg,,,,,0.0,29.0,29.0,29.0,,,,,,,,,,,,,,,,,,,181.32113869395107,None,,,1,1.838967294897884,183.78811219381168,None,183.78811219381168,None,,,182.62010168400596,None,,,,,1,2022_Apr_12_1103,Real-fake-judgement-flashing-group1,2021.1.2,59.73953215431014,
33,Trial # 31,Group1-stimuli/group1-block1/real-group1-b1/Group1_IMG_0502.jpg,1,Group1_IMG_0502.jpg,,,,,0.0,30.0,30.0,30.0,,,,,,,,,,,,,,,,,,,185.65475928387605,None,,,0,0.7435122190508991,188.1395432059653,None,188.1395432059653,None,,,186.97182854893617,None,,,,,1,2022_Apr_12_1103,Real-fake-judgement-flashing-group1,2021.1.2,59.73953215431014,
34,Trial # 32,Group1-stimuli/group1-block1/real-group1-b1/Group1_IMG_0182.jpg,1,Group1_IMG_0182.jpg,,,,,0.0,31.0,31.0,31.0,,,,,,,,,,,,,,,,,,,188.907224454917,None,,,1,2.4530376710463315,191.3900401839055,None,191.3900401839055,None,,,190.22293020877987,None,,,,,1,2022_Apr_12_1103,Real-fake-judgement-flashing-group1,2021.1.2,59.73953215431014,
35,Trial # 33,Group1-stimuli/group1-block1/fake-group2-b1/encoded_Group2_IMG_2728.jpg,0,encoded_Group2_IMG_2728.jpg,,,,,0.0,32.0,32.0,32.0,,,,,,,,,,,,,,,,,,,193.8753589328844,None,,,0,0.0292906381655484,196.34182565193623,None,196.34182565193623,None,,,195.1755506368354,None,,,,,1,2022_Apr_12_1103,Real-fake-judgement-flashing-group1,2021.1.2,59.73953215431014,
36,Trial # 34,Group1-stimuli/group1-block1/fake-group2-b1/encoded_Group2_IMG_4867.jpg,0,encoded_Group2_IMG_4867.jpg,,,,,0.0,33.0,33.0,33.0,,,,,,,,,,,,,,,,,,,196.3915309829172,None,,,0,0.9595901649445296,198.8594872739632,None,198.8594872739632,None,,,197.6918847609777,None,,,,,1,2022_Apr_12_1103,Real-fake-judgement-flashing-group1,2021.1.2,59.73953215431014,
37,Trial # 35,Group1-stimuli/group1-block1/real-group1-b1/Group1_IMG_9894.jpg,1,Group1_IMG_9894.jpg,,,,,0.0,34.0,34.0,34.0,,,,,,,,,,,,,,,,,,,199.84272597683596,None,,,1,0.2529621599242091,202.3101061847992,None,202.3101061847992,None,,,201.14303330588157,None,,,,,1,2022_Apr_12_1103,Real-fake-judgement-flashing-group1,2021.1.2,59.73953215431014,
38,Trial # 36,Group1-stimuli/group1-block1/fake-group2-b1/encoded_Group2_IMG_0444.jpg,0,encoded_Group2_IMG_0444.jpg,,,,,0.0,35.0,35.0,35.0,,,,,,,,,,,,,,,,,,,202.59371593478136,None,,,0,3.4780174701008946,205.0610596279148,None,205.0610596279148,None,,,203.9115883698687,None,,,,,1,2022_Apr_12_1103,Real-fake-judgement-flashing-group1,2021.1.2,59.73953215431014,
39,Trial # 37,Group1-stimuli/group1-block1/real-group1-b1/Group1_IMG_2656.jpg,1,Group1_IMG_2656.jpg,,,,,0.0,36.0,36.0,36.0,,,,,,,,,,,,,,,,,,,208.563311498845,None,,,0,0.5328819882124662,211.0461959689856,None,211.0461959689856,None,,,209.88042768999003,None,,,,,1,2022_Apr_12_1103,Real-fake-judgement-flashing-group1,2021.1.2,59.73953215431014,
40,Trial # 38,Group1-stimuli/group1-block1/real-group1-b1/Group1_IMG_0207.jpg,1,Group1_IMG_0207.jpg,,,,,0.0,37.0,37.0,37.0,,,,,,,,,,,,,,,,,,,211.59712037281133,None,,,1,1.1708353969734162,214.06423387792893,None,214.06423387792893,None,,,212.9143934547901,None,,,,,1,2022_Apr_12_1103,Real-fake-judgement-flashing-group1,2021.1.2,59.73953215431014,
41,Trial # 39,Group1-stimuli/group1-block1/real-group1-b1/Group1_IMG_9638.jpg,1,Group1_IMG_9638.jpg,,,,,0.0,38.0,38.0,38.0,,,,,,,,,,,,,,,,,,,215.26415016292597,None,,,0,1.9510348348412665,217.73196642892435,None,217.73196642892435,None,,,216.5641573718749,None,,,,,1,2022_Apr_12_1103,Real-fake-judgement-flashing-group1,2021.1.2,59.73953215431014,
42,Trial # 40,Group1-stimuli/group1-block1/real-group1-b1/Group1_IMG_0148.jpg,1,Group1_IMG_0148.jpg,,,,,0.0,39.0,39.0,39.0,,,,,,,,,,,,,,,,,,,219.715618688846,None,,,0,0.5321528548374772,222.1829697568901,None,222.1829697568901,None,,,221.0159048018977,None,,,,,1,2022_Apr_12_1103,Real-fake-judgement-flashing-group1,2021.1.2,59.73953215431014,
43,Trial # 41,Group1-stimuli/group1-block1/real-group1-b1/Group1_IMG_2891.jpg,1,Group1_IMG_2891.jpg,,,,,0.0,40.0,40.0,40.0,,,,,,,,,,,,,,,,,,,222.7332153499592,None,,,1,1.7453123298473656,225.2017528049182,None,225.2017528049182,None,,,224.05129507789388,None,,,,,1,2022_Apr_12_1103,Real-fake-judgement-flashing-group1,2021.1.2,59.73953215431014,
44,Trial # 42,Group1-stimuli/group1-block1/real-group1-b1/Group1_IMG_0157.jpg,1,Group1_IMG_0157.jpg,,,,,0.0,41.0,41.0,41.0,,,,,,,,,,,,,,,,,,,226.96876813587733,None,,,1,2.0147425069008023,229.4362947049085,None,229.4362947049085,None,,,228.28611354879104,None,,,,,1,2022_Apr_12_1103,Real-fake-judgement-flashing-group1,2021.1.2,59.73953215431014,
45,Trial # 43,Group1-stimuli/group1-block1/real-group1-b1/Group1_IMG_9833.jpg,1,Group1_IMG_9833.jpg,,,,,0.0,42.0,42.0,42.0,,,,,,,,,,,,,,,,,,,231.46902238787152,None,,,1,1.4012564790900797,233.93782008090056,None,233.93782008090056,None,,,232.7863125149161,None,,,,,1,2022_Apr_12_1103,Real-fake-judgement-flashing-group1,2021.1.2,59.73953215431014,
46,Trial # 44,Group1-stimuli/group1-block1/fake-group2-b1/encoded_Group2_IMG_2230.jpg,0,encoded_Group2_IMG_2230.jpg,,,,,0.0,43.0,43.0,43.0,,,,,,,,,,,,,,,,,,,235.3707571697887,None,,,1,0.6366919279098511,237.8223846338224,None,237.8223846338224,None,,,236.65392098180016,None,,,,,1,2022_Apr_12_1103,Real-fake-judgement-flashing-group1,2021.1.2,59.73953215431014,
47,Trial # 45,Group1-stimuli/group1-block1/real-group1-b1/Group1_IMG_9966.jpg,1,Group1_IMG_9966.jpg,,,,,0.0,44.0,44.0,44.0,,,,,,,,,,,,,,,,,,,238.4893141479697,None,,,0,0.3984994990751147,240.9726042568218,None,240.9726042568218,None,,,239.80622916086577,None,,,,,1,2022_Apr_12_1103,Real-fake-judgement-flashing-group1,2021.1.2,59.73953215431014,
48,Trial # 46,Group1-stimuli/group1-block1/real-group1-b1/Group1_IMG_0239.jpg,1,Group1_IMG_0239.jpg,,,,,0.0,45.0,45.0,45.0,,,,,,,,,,,,,,,,,,,241.38899073493667,None,,,1,0.3137376070953905,243.85736498283225,None,243.85736498283225,None,,,242.68895400478505,None,,,,,1,2022_Apr_12_1103,Real-fake-judgement-flashing-group1,2021.1.2,59.73953215431014,
49,Trial # 47,Group1-stimuli/group1-block1/fake-group2-b1/encoded_Group2_IMG_0536.jpg,0,encoded_Group2_IMG_0536.jpg,,,,,0.0,46.0,46.0,46.0,,,,,,,,,,,,,,,,,,,244.19117489783093,None,,,1,0.9371619690209628,246.67395970993675,None,246.67395970993675,None,,,245.50678072683516,None,,,,,1,2022_Apr_12_1103,Real-fake-judgement-flashing-group1,2021.1.2,59.73953215431014,
50,Trial # 48,Group1-stimuli/group1-block1/fake-group2-b1/encoded_Group2_IMG_0521.jpg,0,encoded_Group2_IMG_0521.jpg,,,,,0.0,47.0,47.0,47.0,,,,,,,,,,,,,,,,,,,247.64027980878015,None,,,0,0.3736852700822055,250.12539674900472,None,250.12539674900472,None,,,248.9589512639213,None,,,,,1,2022_Apr_12_1103,Real-fake-judgement-flashing-group1,2021.1.2,59.73953215431014,
51,Trial # 49,Group1-stimuli/group1-block1/fake-group2-b1/encoded_Group2_IMG_9924.jpg,0,encoded_Group2_IMG_9924.jpg,,,,,0.0,48.0,48.0,48.0,,,,,,,,,,,,,,,,,,,250.5263094138354,None,,,0,0.3773732450790703,252.9936952488497,None,252.9936952488497,None,,,251.8254135937896,None,,,,,1,2022_Apr_12_1103,Real-fake-judgement-flashing-group1,2021.1.2,59.73953215431014,
52,Trial # 50,Group1-stimuli/group1-block1/real-group1-b1/Group1_IMG_9730.jpg,1,Group1_IMG_9730.jpg,,,,,0.0,49.0,49.0,49.0,,,,,,,,,,,,,,,,,,,253.39311618497595,None,,,1,0.3982377629727125,255.87676796596497,None,255.87676796596497,None,,,254.70951276482083,None,,,,,1,2022_Apr_12_1103,Real-fake-judgement-flashing-group1,2021.1.2,59.73953215431014,
53,Trial # 51,Group1-stimuli/group1-block1/real-group1-b1/Group1_IMG_0053.jpg,1,Group1_IMG_0053.jpg,,,,,0.0,50.0,50.0,50.0,,,,,,,,,,,,,,,,,,,256.2936319918372,None,,,1,0.5207476490177214,258.7623315018136,None,258.7623315018136,None,,,257.61056106793694,None,,,,,1,2022_Apr_12_1103,Real-fake-judgement-flashing-group1,2021.1.2,59.73953215431014,
54,Trial # 52,Group1-stimuli/group1-block1/real-group1-b1/Group1_IMG_9698.jpg,1,Group1_IMG_9698.jpg,,,,,0.0,51.0,51.0,51.0,,,,,,,,,,,,,,,,,,,259.31252137199044,None,,,1,1.0717688780277967,261.79532399587333,None,261.79532399587333,None,,,260.6280190879479,None,,,,,1,2022_Apr_12_1103,Real-fake-judgement-flashing-group1,2021.1.2,59.73953215431014,
55,Trial # 53,Group1-stimuli/group1-block1/fake-group2-b1/encoded_Group2_IMG_0553.jpg,0,encoded_Group2_IMG_0553.jpg,,,,,0.0,52.0,52.0,52.0,,,,,,,,,,,,,,,,,,,262.8966567849275,None,,,0,0.4407811209093779,265.34629681287333,None,265.34629681287333,None,,,264.1803859078791,None,,,,,1,2022_Apr_12_1103,Real-fake-judgement-flashing-group1,2021.1.2,59.73953215431014,
56,Trial # 54,Group1-stimuli/group1-block1/fake-group2-b1/encoded_Group2_IMG_9758.jpg,0,encoded_Group2_IMG_9758.jpg,,,,,0.0,53.0,53.0,53.0,,,,,,,,,,,,,,,,,,,265.8135123958345,None,,,0,0.5461200310382992,268.28098631696776,None,268.28098631696776,None,,,267.1135079259984,None,,,,,1,2022_Apr_12_1103,Real-fake-judgement-flashing-group1,2021.1.2,59.73953215431014,
57,Trial # 55,Group1-stimuli/group1-block1/fake-group2-b1/encoded_Group2_IMG_0339.jpg,0,encoded_Group2_IMG_0339.jpg,,,,,0.0,54.0,54.0,54.0,,,,,,,,,,,,,,,,,,,268.84792533284053,None,,,1,5.191526401089504,271.3315426427871,None,271.3315426427871,None,,,270.16444623982534,None,,,,,1,2022_Apr_12_1103,Real-fake-judgement-flashing-group1,2021.1.2,59.73953215431014,
58,Trial # 56,Group1-stimuli/group1-block1/real-group1-b1/Group1_IMG_0314.jpg,1,Group1_IMG_0314.jpg,,,,,0.0,55.0,55.0,55.0,,,,,,,,,,,,,,,,,,,276.55000786297023,None,,,0,0.3797625040169805,279.03932242677547,None,279.03932242677547,None,,,277.85140314581804,None,,,,,1,2022_Apr_12_1103,Real-fake-judgement-flashing-group1,2021.1.2,59.73953215431014,
59,Trial # 57,Group1-stimuli/group1-block1/fake-group2-b1/encoded_Group2_IMG_0532.jpg,0,encoded_Group2_IMG_0532.jpg,,,,,0.0,56.0,56.0,56.0,,,,,,,,,,,,,,,,,,,279.4345057599712,None,,,1,0.5737042629625648,281.90136249898933,None,281.90136249898933,None,,,280.7342215899844,None,,,,,1,2022_Apr_12_1103,Real-fake-judgement-flashing-group1,2021.1.2,59.73953215431014,
60,Trial # 58,Group1-stimuli/group1-block1/fake-group2-b1/encoded_Group2_IMG_0462.jpg,0,encoded_Group2_IMG_0462.jpg,,,,,0.0,57.0,57.0,57.0,,,,,,,,,,,,,,,,,,,282.50128528289497,None,,,0,0.3141206461004913,284.9528604177758,None,284.9528604177758,None,,,283.78649504180066,None,,,,,1,2022_Apr_12_1103,Real-fake-judgement-flashing-group1,2021.1.2,59.73953215431014,
61,Trial # 59,Group1-stimuli/group1-block1/real-group1-b1/Group1_IMG_0172.jpg,1,Group1_IMG_0172.jpg,,,,,0.0,58.0,58.0,58.0,,,,,,,,,,,,,,,,,,,285.2859859107993,None,,,1,0.3697519768029451,287.7533372249454,None,287.7533372249454,None,,,286.5863217168953,None,,,,,1,2022_Apr_12_1103,Real-fake-judgement-flashing-group1,2021.1.2,59.73953215431014,
62,Trial # 60,Group1-stimuli/group1-block1/real-group1-b1/Group1_IMG_4841.jpg,1,Group1_IMG_4841.jpg,,,,,0.0,59.0,59.0,59.0,,,,,,,,,,,,,,,,,,,288.1546562879812,None,,,1,0.3889014790765941,290.6541679818183,None,290.6541679818183,None,,,289.4715639608912,None,,,,,1,2022_Apr_12_1103,Real-fake-judgement-flashing-group1,2021.1.2,59.73953215431014,
63,Trial # 61,Group1-stimuli/group1-block1/fake-group2-b1/encoded_Group2_IMG_0352.jpg,0,encoded_Group2_IMG_0352.jpg,,,,,0.0,60.0,60.0,60.0,,,,,,,,,,,,,,,,,,,291.071059307782,None,,,1,1.7767328941263258,293.52225302997977,None,293.52225302997977,None,,,292.35436592181213,None,,,,,1,2022_Apr_12_1103,Real-fake-judgement-flashing-group1,2021.1.2,59.73953215431014,
64,Trial # 62,Group1-stimuli/group1-block1/fake-group2-b1/encoded_Group2_IMG_9726.jpg,0,encoded_Group2_IMG_9726.jpg,,,,,0.0,61.0,61.0,61.0,,,,,,,,,,,,,,,,,,,295.32220284687355,None,,,1,3.381215492961928,297.80585202691145,None,297.80585202691145,None,,,296.63923034397885,None,,,,,1,2022_Apr_12_1103,Real-fake-judgement-flashing-group1,2021.1.2,59.73953215431014,
65,Trial # 63,Group1-stimuli/group1-block1/fake-group2-b1/encoded_Group2_IMG_9785.jpg,0,encoded_Group2_IMG_9785.jpg,,,,,0.0,62.0,62.0,62.0,,,,,,,,,,,,,,,,,,,301.2075947509147,None,,,1,1.167550993850455,303.67545409989543,None,303.67545409989543,None,,,302.5079471038189,None,,,,,1,2022_Apr_12_1103,Real-fake-judgement-flashing-group1,2021.1.2,59.73953215431014,
66,Trial # 64,Group1-stimuli/group1-block1/fake-group2-b1/encoded_Group2_IMG_0440.jpg,0,encoded_Group2_IMG_0440.jpg,,,,,0.0,63.0,63.0,63.0,,,,,,,,,,,,,,,,,,,304.8753448778298,None,,,1,0.5482789790257812,307.34277913183905,None,307.34277913183905,None,,,306.17565337079577,None,,,,,1,2022_Apr_12_1103,Real-fake-judgement-flashing-group1,2021.1.2,59.73953215431014,
67,Trial # 65,Group1-stimuli/group1-block1/fake-group2-b1/encoded_Group2_IMG_1695.jpg,0,encoded_Group2_IMG_1695.jpg,,,,,0.0,64.0,64.0,64.0,,,,,,,,,,,,,,,,,,,307.9100787958596,None,,,0,0.3135644609574228,310.37749764998443,None,310.37749764998443,None,,,309.2109397689346,None,,,,,1,2022_Apr_12_1103,Real-fake-judgement-flashing-group1,2021.1.2,59.73953215431014,
68,Trial # 66,Group1-stimuli/group1-block1/real-group1-b1/Group1_IMG_0552.jpg,1,Group1_IMG_0552.jpg,,,,,0.0,65.0,65.0,65.0,,,,,,,,,,,,,,,,,,,310.71026298985817,None,,,1,0.2086786988656968,313.17838697484694,None,313.17838697484694,None,,,312.0940504767932,None,,,,,1,2022_Apr_12_1103,Real-fake-judgement-flashing-group1,2021.1.2,59.73953215431014,
69,Trial # 67,Group1-stimuli/group1-block1/real-group1-b1/Group1_IMG_1029.jpg,1,Group1_IMG_1029.jpg,,,,,0.0,66.0,66.0,66.0,,,,,,,,,,,,,,,,,,,313.41235912195407,None,,,0,0.3641966660507023,315.8788629428018,None,315.8788629428018,None,,,314.71162182395346,None,,,,,1,2022_Apr_12_1103,Real-fake-judgement-flashing-group1,2021.1.2,59.73953215431014,
70,Trial # 68,Group1-stimuli/group1-block1/fake-group2-b1/encoded_Group2_IMG_6517.jpg,0,encoded_Group2_IMG_6517.jpg,,,,,0.0,67.0,67.0,67.0,,,,,,,,,,,,,,,,,,,316.2622829638421,None,,,0,0.3681287970393896,318.73093684995547,None,318.73093684995547,None,,,317.59580967389047,None,,,,,1,2022_Apr_12_1103,Real-fake-judgement-flashing-group1,2021.1.2,59.73953215431014,
71,Trial # 69,Group1-stimuli/group1-block1/fake-group2-b1/encoded_Group2_IMG_0002.jpg,0,encoded_Group2_IMG_0002.jpg,,,,,0.0,68.0,68.0,68.0,,,,,,,,,,,,,,,,,,,319.131071240874,None,,,1,0.6291426329407841,321.6139265149832,None,321.6139265149832,None,,,320.4466967219487,None,,,,,1,2022_Apr_12_1103,Real-fake-judgement-flashing-group1,2021.1.2,59.73953215431014,
72,Trial # 70,Group1-stimuli/group1-block1/real-group1-b1/Group1_IMG_0495.jpg,1,Group1_IMG_0495.jpg,,,,,0.0,69.0,69.0,69.0,,,,,,,,,,,,,,,,,,,322.2638204349205,None,,,0,0.4217328811064362,324.7493088778574,None,324.7493088778574,None,,,323.58227851078846,None,,,,,1,2022_Apr_12_1103,Real-fake-judgement-flashing-group1,2021.1.2,59.73953215431014,
73,Trial # 71,Group1-stimuli/group1-block1/real-group1-b1/Group1_IMG_1391.jpg,1,Group1_IMG_1391.jpg,,,,,0.0,70.0,70.0,70.0,,,,,,,,,,,,,,,,,,,325.1984063158743,None,,,0,1.456567601999268,327.6825009959284,None,327.6825009959284,None,,,326.5159028507769,None,,,,,1,2022_Apr_12_1103,Real-fake-judgement-flashing-group1,2021.1.2,59.73953215431014,
74,Trial # 72,Group1-stimuli/group1-block1/real-group1-b1/Group1_IMG_0343.jpg,1,Group1_IMG_0343.jpg,,,,,0.0,71.0,71.0,71.0,,,,,,,,,,,,,,,,,,,329.1672553468961,None,,,1,0.4730546781793237,331.6500146768521,None,331.6500146768521,None,,,330.4830447367858,None,,,,,1,2022_Apr_12_1103,Real-fake-judgement-flashing-group1,2021.1.2,59.73953215431014,
75,Trial # 73,Group1-stimuli/group1-block1/fake-group2-b1/encoded_Group2_IMG_9810.jpg,0,encoded_Group2_IMG_9810.jpg,,,,,0.0,72.0,72.0,72.0,,,,,,,,,,,,,,,,,,,332.1504825379234,None,,,0,0.344133161008358,334.61898359889165,None,334.61898359889165,None,,,333.4519212418236,None,,,,,1,2022_Apr_12_1103,Real-fake-judgement-flashing-group1,2021.1.2,59.73953215431014,
76,Trial # 74,Group1-stimuli/group1-block1/fake-group2-b1/encoded_Group2_IMG_5900.jpg,0,encoded_Group2_IMG_5900.jpg,,,,,0.0,73.0,73.0,73.0,,,,,,,,,,,,,,,,,,,334.9848132068292,None,,,1,0.6149914679117501,337.45196547498927,None,337.45196547498927,None,,,336.28487852797844,None,,,,,1,2022_Apr_12_1103,Real-fake-judgement-flashing-group1,2021.1.2,59.73953215431014,
77,Trial # 75,Group1-stimuli/group1-block1/real-group1-b1/Group1_IMG_9679.jpg,1,Group1_IMG_9679.jpg,,,,,0.0,74.0,74.0,74.0,,,,,,,,,,,,,,,,,,,338.0860238659661,None,,,1,0.4652801100164652,340.56985809095204,None,340.56985809095204,None,,,339.403795909835,None,,,,,1,2022_Apr_12_1103,Real-fake-judgement-flashing-group1,2021.1.2,59.73953215431014,
78,Trial # 76,Group1-stimuli/group1-block1/fake-group2-b1/encoded_Group2_IMG_4249.jpg,0,encoded_Group2_IMG_4249.jpg,,,,,0.0,75.0,75.0,75.0,,,,,,,,,,,,,,,,,,,341.05303038679995,None,,,0,0.4186114359181374,343.5043807749171,None,343.5043807749171,None,,,342.33715964178555,None,,,,,1,2022_Apr_12_1103,Real-fake-judgement-flashing-group1,2021.1.2,59.73953215431014,
79,Trial # 77,Group1-stimuli/group1-block1/fake-group2-b1/encoded_Group2_IMG_0174.jpg,0,encoded_Group2_IMG_0174.jpg,,,,,0.0,76.0,76.0,76.0,,,,,,,,,,,,,,,,,,,343.95557682891376,None,,,0,1.293840483063832,346.4212345429696,None,346.4212345429696,None,,,345.2544133788906,None,,,,,1,2022_Apr_12_1103,Real-fake-judgement-flashing-group1,2021.1.2,59.73953215431014,
80,Trial # 78,Group1-stimuli/group1-block1/fake-group2-b1/encoded_Group2_IMG_0475.jpg,0,encoded_Group2_IMG_0475.jpg,,,,,0.0,77.0,77.0,77.0,,,,,,,,,,,,,,,,,,,347.73802912887186,None,,,0,0.404915499035269,350.2060898998752,None,350.2060898998752,None,,,349.04014656087384,None,,,,,1,2022_Apr_12_1103,Real-fake-judgement-flashing-group1,2021.1.2,59.73953215431014,
81,Trial # 79,Group1-stimuli/group1-block1/fake-group2-b1/encoded_Group2_IMG_9751.jpg,0,encoded_Group2_IMG_9751.jpg,,,,,0.0,78.0,78.0,78.0,,,,,,,,,,,,,,,,,,,350.63960246392526,None,,,1,0.5996699200477451,353.10739829484373,None,353.10739829484373,None,,,351.9397606397979,None,,,,,1,2022_Apr_12_1103,Real-fake-judgement-flashing-group1,2021.1.2,59.73953215431014,
82,Trial # 80,Group1-stimuli/group1-block1/fake-group2-b1/encoded_Group2_IMG_0492.jpg,0,encoded_Group2_IMG_0492.jpg,,,,,0.0,79.0,79.0,79.0,,,,,,,,,,,,,,,,,,,353.7242102068849,None,,,0,0.347746169893071,356.19125745096244,None,356.19125745096244,None,,,355.0241115519311,None,,,,,1,2022_Apr_12_1103,Real-fake-judgement-flashing-group1,2021.1.2,59.73953215431014,
83,Trial # 81,Group1-stimuli/group1-block1/real-group1-b1/Group1_IMG_0535.jpg,1,Group1_IMG_0535.jpg,,,,,0.0,80.0,80.0,80.0,,,,,,,,,,,,,,,,,,,356.5579124977812,None,,,1,0.3131608280818909,359.02590638492256,None,359.02590638492256,None,,,357.87616720981896,None,,,,,1,2022_Apr_12_1103,Real-fake-judgement-flashing-group1,2021.1.2,59.73953215431014,
84,Trial # 82,Group1-stimuli/group1-block1/real-group1-b1/Group1_IMG_0077.jpg,1,Group1_IMG_0077.jpg,,,,,0.0,81.0,81.0,81.0,,,,,,,,,,,,,,,,,,,359.3602086189203,None,,,0,0.8485197841655463,361.8264754589181,None,361.8264754589181,None,,,360.6591048208065,None,,,,,1,2022_Apr_12_1103,Real-fake-judgement-flashing-group1,2021.1.2,59.73953215431014,
85,Trial # 83,Group1-stimuli/group1-block1/fake-group2-b1/encoded_Group2_IMG_9702.jpg,0,encoded_Group2_IMG_9702.jpg,,,,,0.0,82.0,82.0,82.0,,,,,,,,,,,,,,,,,,,362.6932970469352,None,,,1,0.2732569309882819,365.1777321009431,None,365.1777321009431,None,,,364.01139185996726,None,,,,,1,2022_Apr_12_1103,Real-fake-judgement-flashing-group1,2021.1.2,59.73953215431014,
86,Trial # 84,Group1-stimuli/group1-block1/real-group1-b1/Group1_IMG_0357.jpg,1,Group1_IMG_0357.jpg,,,,,0.0,83.0,83.0,83.0,,,,,,,,,,,,,,,,,,,365.47769930190407,None,,,1,0.3297242631670087,367.945340721868,None,367.945340721868,None,,,366.77772430190817,None,,,,,1,2022_Apr_12_1103,Real-fake-judgement-flashing-group1,2021.1.2,59.73953215431014,
87,Trial # 85,Group1-stimuli/group1-block1/real-group1-b1/Group1_IMG_9772.jpg,1,Group1_IMG_9772.jpg,,,,,0.0,84.0,84.0,84.0,,,,,,,,,,,,,,,,,,,368.2960093829315,None,,,1,0.3362365218345076,370.7788552469574,None,370.7788552469574,None,,,369.6131154489704,None,,,,,1,2022_Apr_12_1103,Real-fake-judgement-flashing-group1,2021.1.2,59.73953215431014,
88,Trial # 86,Group1-stimuli/group1-block1/real-group1-b1/Group1_IMG_0482.jpg,1,Group1_IMG_0482.jpg,,,,,0.0,85.0,85.0,85.0,,,,,,,,,,,,,,,,,,,371.1468317278195,None,,,0,0.3173490820918232,373.61373108485714,None,373.61373108485714,None,,,372.4628857558128,None,,,,,1,2022_Apr_12_1103,Real-fake-judgement-flashing-group1,2021.1.2,59.73953215431014,
89,Trial # 87,Group1-stimuli/group1-block1/real-group1-b1/Group1_IMG_0299.jpg,1,Group1_IMG_0299.jpg,,,,,0.0,86.0,86.0,86.0,,,,,,,,,,,,,,,,,,,373.94693058985285,None,,,1,0.3410858327988535,376.4139817690011,None,376.4139817690011,None,,,375.2471594978124,None,,,,,1,2022_Apr_12_1103,Real-fake-judgement-flashing-group1,2021.1.2,59.73953215431014,
90,Trial # 88,Group1-stimuli/group1-block1/fake-group2-b1/encoded_Group2_IMG_0301.jpg,0,encoded_Group2_IMG_0301.jpg,,,,,0.0,87.0,87.0,87.0,,,,,,,,,,,,,,,,,,,376.7804498018231,None,,,1,0.3793160722125321,379.2317508738488,None,379.2317508738488,None,,,378.0649566887878,None,,,,,1,2022_Apr_12_1103,Real-fake-judgement-flashing-group1,2021.1.2,59.73953215431014,
91,Trial # 89,Group1-stimuli/group1-block1/fake-group2-b1/encoded_Group2_IMG_5136.jpg,0,encoded_Group2_IMG_5136.jpg,,,,,0.0,88.0,88.0,88.0,,,,,,,,,,,,,,,,,,,379.6328559459653,None,,,1,1.1593867021147162,382.1156790878158,None,382.1156790878158,None,,,380.9321744099725,None,,,,,1,2022_Apr_12_1103,Real-fake-judgement-flashing-group1,2021.1.2,59.73953215431014,
92,Trial # 90,Group1-stimuli/group1-block1/real-group1-b1/Group1_IMG_0460.jpg,1,Group1_IMG_0460.jpg,,,,,0.0,89.0,89.0,89.0,,,,,,,,,,,,,,,,,,,383.3008268319536,None,,,1,0.4354161010123789,385.783653186867,None,385.783653186867,None,,,384.6179344088305,None,,,,,1,2022_Apr_12_1103,Real-fake-judgement-flashing-group1,2021.1.2,59.73953215431014,
93,Trial # 91,Group1-stimuli/group1-block1/fake-group2-b1/encoded_Group2_IMG_0068.jpg,0,encoded_Group2_IMG_0068.jpg,,,,,0.0,90.0,90.0,90.0,,,,,,,,,,,,,,,,,,,386.25043457979336,None,,,1,0.3717542178928852,388.7193147118669,None,388.7193147118669,None,,,387.551293636905,None,,,,,1,2022_Apr_12_1103,Real-fake-judgement-flashing-group1,2021.1.2,59.73953215431014,
94,Trial # 92,Group1-stimuli/group1-block1/real-group1-b1/Group1_IMG_0337.jpg,1,Group1_IMG_0337.jpg,,,,,0.0,91.0,91.0,91.0,,,,,,,,,,,,,,,,,,,389.1192033388652,None,,,0,0.361650621984154,391.5854177128058,None,391.5854177128058,None,,,390.4184974639211,None,,,,,1,2022_Apr_12_1103,Real-fake-judgement-flashing-group1,2021.1.2,59.73953215431014,
95,Trial # 93,Group1-stimuli/group1-block1/fake-group2-b1/encoded_Group2_IMG_0346.jpg,0,encoded_Group2_IMG_0346.jpg,,,,,0.0,92.0,92.0,92.0,,,,,,,,,,,,,,,,,,,391.9689736058936,None,,,1,5.470172536093742,394.4209275348112,None,394.4209275348112,None,,,393.2530312859453,None,,,,,1,2022_Apr_12_1103,Real-fake-judgement-flashing-group1,2021.1.2,59.73953215431014,
96,Trial # 94,Group1-stimuli/group1-block1/real-group1-b1/Group1_IMG_4253.jpg,1,Group1_IMG_4253.jpg,,,,,0.0,93.0,93.0,93.0,,,,,,,,,,,,,,,,,,,399.9216946878005,None,,,1,0.3654722280334681,402.4055447888095,None,402.4055447888095,None,,,401.2218885878101,None,,,,,1,2022_Apr_12_1103,Real-fake-judgement-flashing-group1,2021.1.2,59.73953215431014,
97,Trial # 95,Group1-stimuli/group1-block1/fake-group2-b1/encoded_Group2_IMG_9280.jpg,0,encoded_Group2_IMG_9280.jpg,,,,,0.0,94.0,94.0,94.0,,,,,,,,,,,,,,,,,,,402.789308618987,None,,,0,0.3232515179552138,405.2398185699713,None,405.2398185699713,None,,,404.0738332069013,None,,,,,1,2022_Apr_12_1103,Real-fake-judgement-flashing-group1,2021.1.2,59.73953215431014,
98,Trial # 96,Group1-stimuli/group1-block1/real-group1-b1/Group1_IMG_0417.jpg,1,Group1_IMG_0417.jpg,,,,,0.0,95.0,95.0,95.0,,,,,,,,,,,,,,,,,,,405.5907708818559,None,,,1,0.3368915140163153,408.0742157548666,None,408.0742157548666,None,,,406.906832553912,None,,,,,1,2022_Apr_12_1103,Real-fake-judgement-flashing-group1,2021.1.2,59.73953215431014,
99,Trial # 97,Group1-stimuli/group1-block1/fake-group2-b1/encoded_Group2_IMG_9695.jpg,0,encoded_Group2_IMG_9695.jpg,,,,,0.0,96.0,96.0,96.0,,,,,,,,,,,,,,,,,,,408.4421548359096,None,,,0,0.2708331991452724,410.908257661853,None,410.908257661853,None,,,409.74223932879977,None,,,,,1,2022_Apr_12_1103,Real-fake-judgement-flashing-group1,2021.1.2,59.73953215431014,
100,Trial # 98,Group1-stimuli/group1-block1/real-group1-b1/Group1_IMG_1160.jpg,1,Group1_IMG_1160.jpg,,,,,0.0,97.0,97.0,97.0,,,,,,,,,,,,,,,,,,,411.2083373109344,None,,,0,0.4940854350570589,413.6769831269048,None,413.6769831269048,None,,,412.5252340969164,None,,,,,1,2022_Apr_12_1103,Real-fake-judgement-flashing-group1,2021.1.2,59.73953215431014,
101,Trial # 99,Group1-stimuli/group1-block1/real-group1-b1/Group1_IMG_0448.jpg,1,Group1_IMG_0448.jpg,,,,,0.0,98.0,98.0,98.0,,,,,,,,,,,,,,,,,,,414.19381219288334,None,,,0,1.3905685381032526,416.6765001248568,None,416.6765001248568,None,,,415.5095031138044,None,,,,,1,2022_Apr_12_1103,Real-fake-judgement-flashing-group1,2021.1.2,59.73953215431014,
102,Trial # 100,Group1-stimuli/group1-block1/fake-group2-b1/encoded_Group2_IMG_0393.jpg,0,encoded_Group2_IMG_0393.jpg,,,,,0.0,99.0,99.0,99.0,,,,,,,,,,,,,,,,,,,418.0947785368189,None,,,1,6.937109397025779,420.57795766578056,None,420.57795766578056,None,,,419.4118799159769,None,,,,,1,2022_Apr_12_1103,Real-fake-judgement-flashing-group1,2021.1.2,59.73953215431014,
103,Trial # 101,Group1-stimuli/group1-block1/real-group1-b1/Group1_IMG_0090.jpg,1,Group1_IMG_0090.jpg,,,,,0.0,100.0,100.0,100.0,,,,,,,,,,,,,,,,,,,427.5467389419209,None,,,1,1.6117886709980669,430.0152761458885,None,430.0152761458885,None,,,428.86384367989376,None,,,,,1,2022_Apr_12_1103,Real-fake-judgement-flashing-group1,2021.1.2,59.73953215431014,
104,Trial # 102,Group1-stimuli/group1-block1/real-group1-b1/Group1_IMG_0310.jpg,1,Group1_IMG_0310.jpg,,,,,0.0,101.0,101.0,101.0,,,,,,,,,,,,,,,,,,,431.6476342268288,None,,,1,0.3105962518602609,434.1164735418279,None,434.1164735418279,None,,,432.9661201359704,None,,,,,1,2022_Apr_12_1103,Real-fake-judgement-flashing-group1,2021.1.2,59.73953215431014,
105,Trial # 103,Group1-stimuli/group1-block1/fake-group2-b1/encoded_Group2_IMG_0528.jpg,0,encoded_Group2_IMG_0528.jpg,,,,,0.0,102.0,102.0,102.0,,,,,,,,,,,,,,,,,,,434.4503324399702,None,,,0,0.3022897180635482,436.9327801798936,None,436.9327801798936,None,,,435.7658308818936,None,,,,,1,2022_Apr_12_1103,Real-fake-judgement-flashing-group1,2021.1.2,59.73953215431014,
106,Trial # 104,Group1-stimuli/group1-block1/fake-group2-b1/encoded_Group2_IMG_1975.jpg,0,encoded_Group2_IMG_1975.jpg,,,,,0.0,103.0,103.0,103.0,,,,,,,,,,,,,,,,,,,437.2661729208194,None,,,1,0.3000197000801563,439.7350429189392,None,439.7350429189392,None,,,438.5675654159859,None,,,,,1,2022_Apr_12_1103,Real-fake-judgement-flashing-group1,2021.1.2,59.73953215431014,
107,Trial # 105,Group1-stimuli/group1-block1/fake-group2-b1/encoded_Group2_IMG_0052.jpg,0,encoded_Group2_IMG_0052.jpg,,,,,0.0,104.0,104.0,104.0,,,,,,,,,,,,,,,,,,,440.0505824338179,None,,,0,0.269200064940378,442.5178706569132,None,442.5178706569132,None,,,441.35088549391367,None,,,,,1,2022_Apr_12_1103,Real-fake-judgement-flashing-group1,2021.1.2,59.73953215431014,
108,Trial # 106,Group1-stimuli/group1-block1/fake-group2-b1/encoded_Group2_IMG_0225.jpg,0,encoded_Group2_IMG_0225.jpg,,,,,0.0,105.0,105.0,105.0,,,,,,,,,,,,,,,,,,,442.81786760594696,None,,,1,0.4461983570363372,445.2688791169785,None,445.2688791169785,None,,,444.1028215098195,None,,,,,1,2022_Apr_12_1103,Real-fake-judgement-flashing-group1,2021.1.2,59.73953215431014,
109,Trial # 107,Group1-stimuli/group1-block1/real-group1-b1/Group1_IMG_2231.jpg,1,Group1_IMG_2231.jpg,,,,,0.0,106.0,106.0,106.0,,,,,,,,,,,,,,,,,,,445.7365188947879,None,,,1,0.1507088309153914,448.20427420083433,None,448.20427420083433,None,,,447.05260594189167,None,,,,,1,2022_Apr_12_1103,Real-fake-judgement-flashing-group1,2021.1.2,59.73953215431014,
110,Trial # 108,Group1-stimuli/group1-block1/real-group1-b1/Group1_IMG_0217.jpg,1,Group1_IMG_0217.jpg,,,,,0.0,107.0,107.0,107.0,,,,,,,,,,,,,,,,,,,448.3877134169452,None,,,1,0.5249131270684302,450.8702070999425,None,450.8702070999425,None,,,449.7034197659232,None,,,,,1,2022_Apr_12_1103,Real-fake-judgement-flashing-group1,2021.1.2,59.73953215431014,
111,Trial # 109,Group1-stimuli/group1-block1/real-group1-b1/Group1_IMG_0264.jpg,1,Group1_IMG_0264.jpg,,,,,0.0,108.0,108.0,108.0,,,,,,,,,,,,,,,,,,,451.420707480982,None,,,1,0.3378454979974776,453.88922227197327,None,453.88922227197327,None,,,452.7710209209472,None,,,,,1,2022_Apr_12_1103,Real-fake-judgement-flashing-group1,2021.1.2,59.73953215431014,
112,Trial # 110,Group1-stimuli/group1-block1/fake-group2-b1/encoded_Group2_IMG_0254.jpg,0,encoded_Group2_IMG_0254.jpg,,,,,0.0,109.0,109.0,109.0,,,,,,,,,,,,,,,,,,,454.2562521698419,None,,,0,0.8252377479802817,456.7058290138375,None,456.7058290138375,None,,,455.5385555389803,None,,,,,1,2022_Apr_12_1103,Real-fake-judgement-flashing-group1,2021.1.2,59.73953215431014,
113,Trial # 111,Group1-stimuli/group1-block1/fake-group2-b1/encoded_Group2_IMG_5433.jpg,0,encoded_Group2_IMG_5433.jpg,,,,,0.0,110.0,110.0,110.0,,,,,,,,,,,,,,,,,,,457.5559177219402,None,,,0,0.3385067130438983,460.0245597928297,None,460.0245597928297,None,,,458.8907672849018,None,,,,,1,2022_Apr_12_1103,Real-fake-judgement-flashing-group1,2021.1.2,59.73953215431014,
114,Trial # 112,Group1-stimuli/group1-block1/real-group1-b1/Group1_IMG_0252.jpg,1,Group1_IMG_0252.jpg,,,,,0.0,111.0,111.0,111.0,,,,,,,,,,,,,,,,,,,460.3901505309623,None,,,1,0.5772480429150164,462.8738201479428,None,462.8738201479428,None,,,461.7071909778752,None,,,,,1,2022_Apr_12_1103,Real-fake-judgement-flashing-group1,2021.1.2,59.73953215431014,
115,Trial # 113,Group1-stimuli/group1-block1/real-group1-b1/Group1_IMG_9720.jpg,1,Group1_IMG_9720.jpg,,,,,0.0,112.0,112.0,112.0,,,,,,,,,,,,,,,,,,,463.4755206478294,None,,,1,0.4446092639118433,465.95843849377707,None,465.95843849377707,None,,,464.7915915218182,None,,,,,1,2022_Apr_12_1103,Real-fake-judgement-flashing-group1,2021.1.2,59.73953215431014,
116,Trial # 114,Group1-stimuli/group1-block1/fake-group2-b1/encoded_Group2_IMG_0550.jpg,0,encoded_Group2_IMG_0550.jpg,,,,,0.0,113.0,113.0,113.0,,,,,,,,,,,,,,,,,,,466.4248139518313,None,,,0,0.3491650098003447,468.8939132748637,None,468.8939132748637,None,,,467.7251654518768,None,,,,,1,2022_Apr_12_1103,Real-fake-judgement-flashing-group1,2021.1.2,59.73953215431014,
117,Trial # 115,Group1-stimuli/group1-block1/real-group1-b1/Group1_IMG_9915.jpg,1,Group1_IMG_9915.jpg,,,,,0.0,114.0,114.0,114.0,,,,,,,,,,,,,,,,,,,469.2608392029069,None,,,1,0.1713429600931704,471.7437444599345,None,471.7437444599345,None,,,470.5766328338068,None,,,,,1,2022_Apr_12_1103,Real-fake-judgement-flashing-group1,2021.1.2,59.73953215431014,
118,Trial # 116,Group1-stimuli/group1-block1/real-group1-b1/Group1_IMG_9850.jpg,1,Group1_IMG_9850.jpg,,,,,0.0,115.0,115.0,115.0,,,,,,,,,,,,,,,,,,,471.9443822959438,None,,,1,0.8148170178756118,474.4122634488158,None,474.4122634488158,None,,,473.2451020458248,None,,,,,1,2022_Apr_12_1103,Real-fake-judgement-flashing-group1,2021.1.2,59.73953215431014,
119,Trial # 117,Group1-stimuli/group1-block1/real-group1-b1/Group1_IMG_3579.jpg,1,Group1_IMG_3579.jpg,,,,,0.0,116.0,116.0,116.0,,,,,,,,,,,,,,,,,,,475.2448869128712,None,,,1,0.3948974730446934,477.71221669600345,None,477.71221669600345,None,,,476.5449498659,None,,,,,1,2022_Apr_12_1103,Real-fake-judgement-flashing-group1,2021.1.2,59.73953215431014,
120,Trial # 118,Group1-stimuli/group1-block1/fake-group2-b1/encoded_Group2_IMG_0377.jpg,0,encoded_Group2_IMG_0377.jpg,,,,,0.0,117.0,117.0,117.0,,,,,,,,,,,,,,,,,,,478.130468636984,None,,,0,0.3659237131942063,480.61313551897183,None,480.61313551897183,None,,,479.4472796937917,None,,,,,1,2022_Apr_12_1103,Real-fake-judgement-flashing-group1,2021.1.2,59.73953215431014,
121,Trial # 119,Group1-stimuli/group1-block1/real-group1-b1/Group1_IMG_0469.jpg,1,Group1_IMG_0469.jpg,,,,,0.0,118.0,118.0,118.0,,,,,,,,,,,,,,,,,,,480.996558487881,None,,,1,10.737705970881509,483.4653709158301,None,483.4653709158301,None,,,482.3141876137816,None,,,,,1,2022_Apr_12_1103,Real-fake-judgement-flashing-group1,2021.1.2,59.73953215431014,
122,Trial # 120,Group1-stimuli/group1-block1/fake-group2-b1/encoded_Group2_IMG_0100.jpg,0,encoded_Group2_IMG_0100.jpg,,,,,0.0,119.0,119.0,119.0,,,,,,,,,,,,,,,,,,,494.234066874953,None,,,0,0.1016251828987151,496.7014422218781,None,496.7014422218781,None,,,495.5343026709743,None,,,,,1,2022_Apr_12_1103,Real-fake-judgement-flashing-group1,2021.1.2,59.73953215431014,
123,Trial # 121,Group1-stimuli/group1-block1/real-group1-b1/Group1_IMG_5359.jpg,1,Group1_IMG_5359.jpg,,,,,0.0,120.0,120.0,120.0,,,,,,,,,,,,,,,,,,,496.835142403841,None,,,1,0.100088007049635,499.3189864258748,None,499.3189864258748,None,,,498.1363046949264,None,,,,,1,2022_Apr_12_1103,Real-fake-judgement-flashing-group1,2021.1.2,59.73953215431014,
124,Trial # 122,Group1-stimuli/group1-block1/fake-group2-b1/encoded_Group2_IMG_0304.jpg,0,encoded_Group2_IMG_0304.jpg,,,,,0.0,121.0,121.0,121.0,,,,,,,,,,,,,,,,,,,499.43684239988215,None,,,1,0.32478175801225,501.8862865038682,None,501.8862865038682,None,,,500.7192047969438,None,,,,,1,2022_Apr_12_1103,Real-fake-judgement-flashing-group1,2021.1.2,59.73953215431014,
125,Trial # 123,Group1-stimuli/group1-block1/real-group1-b1/Group1_IMG_0306.jpg,1,Group1_IMG_0306.jpg,,,,,0.0,122.0,122.0,122.0,,,,,,,,,,,,,,,,,,,502.2366113509052,None,,,1,0.394111187197268,504.7209462597966,None,504.7209462597966,None,,,503.5547244199552,None,,,,,1,2022_Apr_12_1103,Real-fake-judgement-flashing-group1,2021.1.2,59.73953215431014,
126,Trial # 124,Group1-stimuli/group1-block1/real-group1-b1/Group1_IMG_0224.jpg,1,Group1_IMG_0224.jpg,,,,,0.0,123.0,123.0,123.0,,,,,,,,,,,,,,,,,,,505.1374463839456,None,,,1,0.5983613249845803,507.60468129091896,None,507.60468129091896,None,,,506.4376611048356,None,,,,,1,2022_Apr_12_1103,Real-fake-judgement-flashing-group1,2021.1.2,59.73953215431014,
127,Trial # 125,Group1-stimuli/group1-block1/real-group1-b1/Group1_IMG_9889.jpg,1,Group1_IMG_9889.jpg,,,,,0.0,124.0,124.0,124.0,,,,,,,,,,,,,,,,,,,508.22294824081473,None,,,0,0.3459734718780964,510.6891453329008,None,510.6891453329008,None,,,509.5232358118519,None,,,,,1,2022_Apr_12_1103,Real-fake-judgement-flashing-group1,2021.1.2,59.73953215431014,
128,Trial # 126,Group1-stimuli/group1-block1/real-group1-b1/Group1_IMG_0293.jpg,1,Group1_IMG_0293.jpg,,,,,0.0,125.0,125.0,125.0,,,,,,,,,,,,,,,,,,,511.0560102169402,None,,,0,0.3827540639322251,513.5403240299784,None,513.5403240299784,None,,,512.3562726839446,None,,,,,1,2022_Apr_12_1103,Real-fake-judgement-flashing-group1,2021.1.2,59.73953215431014,
129,Trial # 127,Group1-stimuli/group1-block1/fake-group2-b1/encoded_Group2_IMG_0321.jpg,0,encoded_Group2_IMG_0321.jpg,,,,,0.0,126.0,126.0,126.0,,,,,,,,,,,,,,,,,,,513.9413003418595,None,,,0,1.8598942537792027,516.3911733150017,None,516.3911733150017,None,,,515.2237076458987,None,,,,,1,2022_Apr_12_1103,Real-fake-judgement-flashing-group1,2021.1.2,59.73953215431014,
130,Trial # 128,Group1-stimuli/group1-block1/fake-group2-b1/encoded_Group2_IMG_0400.jpg,0,encoded_Group2_IMG_0400.jpg,,,,,0.0,127.0,127.0,127.0,,,,,,,,,,,,,,,,,,,518.2750557179097,None,,,0,1.4289543409831822,520.7421135460027,None,520.7421135460027,None,,,519.5762260258198,None,,,,,1,2022_Apr_12_1103,Real-fake-judgement-flashing-group1,2021.1.2,59.73953215431014,
131,Trial # 129,Group1-stimuli/group1-block1/fake-group2-b1/encoded_Group2_IMG_0443.jpg,0,encoded_Group2_IMG_0443.jpg,,,,,0.0,128.0,128.0,128.0,,,,,,,,,,,,,,,,,,,522.1926274059806,None,,,1,0.2221811469644308,524.6768878658768,None,524.6768878658768,None,,,523.4941074620001,None,,,,,1,2022_Apr_12_1103,Real-fake-judgement-flashing-group1,2021.1.2,59.73953215431014,
132,Trial # 130,Group1-stimuli/group1-block1/fake-group2-b1/encoded_Group2_IMG_0542.jpg,0,encoded_Group2_IMG_0542.jpg,,,,,0.0,129.0,129.0,129.0,,,,,,,,,,,,,,,,,,,524.9268772099167,None,,,0,0.2576327659189701,527.3774352658074,None,527.3774352658074,None,,,526.2103739408776,None,,,,,1,2022_Apr_12_1103,Real-fake-judgement-flashing-group1,2021.1.2,59.73953215431014,
133,Trial # 131,Group1-stimuli/group1-block1/real-group1-b1/Group1_IMG_0885.jpg,1,Group1_IMG_0885.jpg,,,,,0.0,130.0,130.0,130.0,,,,,,,,,,,,,,,,,,,527.6615431879181,None,,,1,0.2419235270936042,530.1451918608509,None,530.1451918608509,None,,,528.9624821748585,None,,,,,1,2022_Apr_12_1103,Real-fake-judgement-flashing-group1,2021.1.2,59.73953215431014,
134,Trial # 132,Group1-stimuli/group1-block1/real-group1-b1/Group1_IMG_0375.jpg,1,Group1_IMG_0375.jpg,,,,,0.0,131.0,131.0,131.0,,,,,,,,,,,,,,,,,,,530.4119536429644,None,,,0,0.2444578520953655,532.8786185299978,None,532.8786185299978,None,,,531.7122558278497,None,,,,,1,2022_Apr_12_1103,Real-fake-judgement-flashing-group1,2021.1.2,59.73953215431014,
135,Trial # 133,Group1-stimuli/group1-block1/fake-group2-b1/encoded_Group2_IMG_7351.jpg,0,encoded_Group2_IMG_7351.jpg,,,,,0.0,132.0,132.0,132.0,,,,,,,,,,,,,,,,,,,533.1469587970059,None,,,1,0.3417318619322032,535.6133364217822,None,535.6133364217822,None,,,534.4475532278884,None,,,,,1,2022_Apr_12_1103,Real-fake-judgement-flashing-group1,2021.1.2,59.73953215431014,
136,Trial # 134,Group1-stimuli/group1-block1/fake-group2-b1/encoded_Group2_IMG_0416.jpg,0,encoded_Group2_IMG_0416.jpg,,,,,0.0,133.0,133.0,133.0,,,,,,,,,,,,,,,,,,,535.9803257777821,None,,,1,0.2983534270897507,538.448723279871,None,538.448723279871,None,,,537.2808961269911,None,,,,,1,2022_Apr_12_1103,Real-fake-judgement-flashing-group1,2021.1.2,59.73953215431014,
137,Trial # 135,Group1-stimuli/group1-block1/fake-group2-b1/encoded_Group2_IMG_0139.jpg,0,encoded_Group2_IMG_0139.jpg,,,,,0.0,134.0,134.0,134.0,,,,,,,,,,,,,,,,,,,538.7695539637934,None,,,0,0.1864719230215996,541.248596309917,None,541.248596309917,None,,,540.0817528078333,None,,,,,1,2022_Apr_12_1103,Real-fake-judgement-flashing-group1,2021.1.2,59.73953215431014,
138,Trial # 136,Group1-stimuli/group1-block1/real-group1-b1/Group1_IMG_9677.jpg,1,Group1_IMG_9677.jpg,,,,,0.0,135.0,135.0,135.0,,,,,,,,,,,,,,,,,,,541.4651151909493,None,,,0,0.228449986083433,543.9506289667916,None,543.9506289667916,None,,,542.7822673779447,None,,,,,1,2022_Apr_12_1103,Real-fake-judgement-flashing-group1,2021.1.2,59.73953215431014,
139,Trial # 137,Group1-stimuli/group1-block1/fake-group2-b1/encoded_Group2_IMG_5982.jpg,0,encoded_Group2_IMG_5982.jpg,,,,,0.0,136.0,136.0,136.0,,,,,,,,,,,,,,,,,,,544.2007422188763,None,,,1,1.0636861759703606,546.6673829159699,None,546.6673829159699,None,,,545.4997742557898,None,,,,,1,2022_Apr_12_1103,Real-fake-judgement-flashing-group1,2021.1.2,59.73953215431014,
140,Trial # 138,Group1-stimuli/group1-block1/fake-group2-b1/encoded_Group2_IMG_1144.jpg,0,encoded_Group2_IMG_1144.jpg,,,,,0.0,137.0,137.0,137.0,,,,,,,,,,,,,,,,,,,547.7546169538982,None,,,1,0.3914549679029733,550.2516127119306,None,550.2516127119306,None,,,549.0687431369442,None,,,,,1,2022_Apr_12_1103,Real-fake-judgement-flashing-group1,2021.1.2,59.73953215431014,
141,Trial # 139,Group1-stimuli/group1-block1/fake-group2-b1/encoded_Group2_IMG_0315.jpg,0,encoded_Group2_IMG_0315.jpg,,,,,0.0,138.0,138.0,138.0,,,,,,,,,,,,,,,,,,,550.6687211678363,None,,,1,0.410260614939034,553.1368076119106,None,553.1368076119106,None,,,551.9685140948277,None,,,,,1,2022_Apr_12_1103,Real-fake-judgement-flashing-group1,2021.1.2,59.73953215431014,
142,Trial # 140,Group1-stimuli/group1-block1/real-group1-b1/Group1_IMG_130.jpg,1,Group1_IMG_130.jpg,,,,,0.0,139.0,139.0,139.0,,,,,,,,,,,,,,,,,,,553.5693612687755,None,,,1,0.3258435011375695,556.0532239428721,None,556.0532239428721,None,,,554.8858844009228,None,,,,,1,2022_Apr_12_1103,Real-fake-judgement-flashing-group1,2021.1.2,59.73953215431014,
143,Trial # 141,Group1-stimuli/group1-block1/real-group1-b1/Group1_IMG_0024.jpg,1,Group1_IMG_0024.jpg,,,,,0.0,140.0,140.0,140.0,,,,,,,,,,,,,,,,,,,556.4035184539389,None,,,1,1.403904999839142,558.8711963279638,None,558.8711963279638,None,,,557.7033355608582,None,,,,,1,2022_Apr_12_1103,Real-fake-judgement-flashing-group1,2021.1.2,59.73953215431014,
144,Trial # 142,Group1-stimuli/group1-block1/fake-group2-b1/encoded_Group2_IMG_5012.jpg,0,encoded_Group2_IMG_5012.jpg,,,,,0.0,141.0,141.0,141.0,,,,,,,,,,,,,,,,,,,560.3045912389643,None,,,0,0.4799090691376477,562.75520166778,None,562.75520166778,None,,,561.588148279814,None,,,,,1,2022_Apr_12_1103,Real-fake-judgement-flashing-group1,2021.1.2,59.73953215431014,
145,Trial # 143,Group1-stimuli/group1-block1/fake-group2-b1/encoded_Group2_IMG_0209.jpg,0,encoded_Group2_IMG_0209.jpg,,,,,0.0,142.0,142.0,142.0,,,,,,,,,,,,,,,,,,,563.2568571779411,None,,,1,0.3203371558338403,565.722731951857,None,565.722731951857,None,,,564.5569147728384,None,,,,,1,2022_Apr_12_1103,Real-fake-judgement-flashing-group1,2021.1.2,59.73953215431014,
146,Trial # 144,Group1-stimuli/group1-block1/real-group1-b1/Group1_IMG_0373.jpg,1,Group1_IMG_0373.jpg,,,,,0.0,143.0,143.0,143.0,,,,,,,,,,,,,,,,,,,566.0729983609635,None,,,0,0.2774446939583868,568.541592419846,None,568.541592419846,None,,,567.3899638177827,None,,,,,1,2022_Apr_12_1103,Real-fake-judgement-flashing-group1,2021.1.2,59.73953215431014,
147,Trial # 145,Group1-stimuli/group1-block1/real-group1-b1/Group1_IMG_5899.jpg,1,Group1_IMG_5899.jpg,,,,,0.0,144.0,144.0,144.0,,,,,,,,,,,,,,,,,,,568.8418243858032,None,,,0,0.2865290741901845,571.3245239548851,None,571.3245239548851,None,,,570.1574522617739,None,,,,,1,2022_Apr_12_1103,Real-fake-judgement-flashing-group1,2021.1.2,59.73953215431014,
148,Trial # 146,Group1-stimuli/group1-block1/real-group1-b1/Group1_IMG_0162.jpg,1,Group1_IMG_0162.jpg,,,,,0.0,145.0,145.0,145.0,,,,,,,,,,,,,,,,,,,571.6410642189439,None,,,1,0.6611120298039168,574.1099663788918,None,574.1099663788918,None,,,572.9594581169076,None,,,,,1,2022_Apr_12_1103,Real-fake-judgement-flashing-group1,2021.1.2,59.73953215431014,
149,Trial # 147,Group1-stimuli/group1-block1/real-group1-b1/Group1_IMG_0543.jpg,1,Group1_IMG_0543.jpg,,,,,0.0,146.0,146.0,146.0,,,,,,,,,,,,,,,,,,,574.7935551009141,None,,,0,0.3587095520924777,577.276344871847,None,577.276344871847,None,,,576.1092533709016,None,,,,,1,2022_Apr_12_1103,Real-fake-judgement-flashing-group1,2021.1.2,59.73953215431014,
150,Trial # 148,Group1-stimuli/group1-block1/fake-group2-b1/encoded_Group2_IMG_0355.jpg,0,encoded_Group2_IMG_0355.jpg,,,,,0.0,147.0,147.0,147.0,,,,,,,,,,,,,,,,,,,577.6593862557784,None,,,1,0.3724234378896653,580.1106678119395,None,580.1106678119395,None,,,578.9446829799563,None,,,,,1,2022_Apr_12_1103,Real-fake-judgement-flashing-group1,2021.1.2,59.73953215431014,
151,Trial # 149,Group1-stimuli/group1-block1/real-group1-b1/Group1_IMG_9765.jpg,1,Group1_IMG_9765.jpg,,,,,0.0,148.0,148.0,148.0,,,,,,,,,,,,,,,,,,,580.5113463248126,None,,,1,0.3684655390679836,582.9786043767817,None,582.9786043767817,None,,,581.8110143668018,None,,,,,1,2022_Apr_12_1103,Real-fake-judgement-flashing-group1,2021.1.2,59.73953215431014,
152,Trial # 150,Group1-stimuli/group1-block1/fake-group2-b1/encoded_Group2_IMG_1378.jpg,0,encoded_Group2_IMG_1378.jpg,,,,,0.0,149.0,149.0,149.0,,,,,,,,,,,,,,,,,,,583.378780227853,None,,,1,0.4054483990184963,585.8456587558612,None,585.8456587558612,None,,,584.6796977368649,None,,,,,1,2022_Apr_12_1103,Real-fake-judgement-flashing-group1,2021.1.2,59.73953215431014,
153,Trial # 1,Group1-stimuli/group1-block2/fake-group2-b2/encoded_Group2_IMG_0155.jpg,0,encoded_Group2_IMG_0155.jpg,,,,,,,,,0.0,0.0,0.0,0.0,,,,,,,,,,,,,,,606.401986746816,None,,,1,0.3098670891486108,608.8372007168364,None,608.8372007168364,None,590.5137751358561,None,607.702878032811,None,586.2792571459431,None,,,1,2022_Apr_12_1103,Real-fake-judgement-flashing-group1,2021.1.2,59.73953215431014,
154,Trial # 2,Group1-stimuli/group1-block2/real-group1-b2/Group1_IMG_0519.jpg,1,Group1_IMG_0519.jpg,,,,,,,,,0.0,1.0,1.0,1.0,,,,,,,,,,,,,,,609.1710175687913,None,,,1,1.5733551040757447,611.6537145317998,None,611.6537145317998,None,,,610.5032964099664,None,,,,,1,2022_Apr_12_1103,Real-fake-judgement-flashing-group1,2021.1.2,59.73953215431014,
155,Trial # 3,Group1-stimuli/group1-block2/fake-group2-b2/encoded_Group2_IMG_0135.jpg,0,encoded_Group2_IMG_0135.jpg,,,,,,,,,0.0,2.0,2.0,2.0,,,,,,,,,,,,,,,613.2547780508175,None,,,0,0.3207488011103123,615.7383208777755,None,615.7383208777755,None,,,614.5723874049727,None,,,,,1,2022_Apr_12_1103,Real-fake-judgement-flashing-group1,2021.1.2,59.73953215431014,
156,Trial # 4,Group1-stimuli/group1-block2/real-group1-b2/Group1_IMG_5310.jpg,1,Group1_IMG_5310.jpg,,,,,,,,,0.0,3.0,3.0,3.0,,,,,,,,,,,,,,,616.0884519969113,None,,,1,0.3668344090692699,618.5562452150043,None,618.5562452150043,None,,,617.4050053569954,None,,,,,1,2022_Apr_12_1103,Real-fake-judgement-flashing-group1,2021.1.2,59.73953215431014,
157,Trial # 5,Group1-stimuli/group1-block2/real-group1-b2/Group1_IMG_0522.jpg,1,Group1_IMG_0522.jpg,,,,,,,,,0.0,4.0,4.0,4.0,,,,,,,,,,,,,,,618.9406264128629,None,,,0,0.3796846868935972,621.4233844098635,None,621.4233844098635,None,,,620.256283191964,None,,,,,1,2022_Apr_12_1103,Real-fake-judgement-flashing-group1,2021.1.2,59.73953215431014,
158,Trial # 6,Group1-stimuli/group1-block2/fake-group2-b2/encoded_Group2_IMG_0484.jpg,0,encoded_Group2_IMG_0484.jpg,,,,,,,,,0.0,5.0,5.0,5.0,,,,,,,,,,,,,,,621.823889371939,None,,,1,0.2243781830184161,624.2746892999858,None,624.2746892999858,None,,,623.1084131998941,None,,,,,1,2022_Apr_12_1103,Real-fake-judgement-flashing-group1,2021.1.2,59.73953215431014,
159,Trial # 7,Group1-stimuli/group1-block2/fake-group2-b2/encoded_Group2_IMG_5948.jpg,0,encoded_Group2_IMG_5948.jpg,,,,,,,,,0.0,6.0,6.0,6.0,,,,,,,,,,,,,,,624.5256281518377,None,,,1,0.3145594908855855,627.0084719997831,None,627.0084719997831,None,,,625.8413837719709,None,,,,,1,2022_Apr_12_1103,Real-fake-judgement-flashing-group1,2021.1.2,59.73953215431014,
160,Trial # 8,Group1-stimuli/group1-block2/fake-group2-b2/encoded_Group2_IMG_3591.jpg,0,encoded_Group2_IMG_3591.jpg,,,,,,,,,0.0,7.0,7.0,7.0,,,,,,,,,,,,,,,627.3423157630023,None,,,0,0.3606280309613794,629.8264419378247,None,629.8264419378247,None,,,628.6600556538906,None,,,,,1,2022_Apr_12_1103,Real-fake-judgement-flashing-group1,2021.1.2,59.73953215431014,
161,Trial # 9,Group1-stimuli/group1-block2/real-group1-b2/Group1_IMG_9835.jpg,1,Group1_IMG_9835.jpg,,,,,,,,,0.0,8.0,8.0,8.0,,,,,,,,,,,,,,,630.2098587108776,None,,,0,0.4054585820995271,632.6936291928869,None,632.6936291928869,None,,,631.5264447969384,None,,,,,1,2022_Apr_12_1103,Real-fake-judgement-flashing-group1,2021.1.2,59.73953215431014,
162,Trial # 10,Group1-stimuli/group1-block2/real-group1-b2/Group1_IMG_0556.jpg,1,Group1_IMG_0556.jpg,,,,,,,,,0.0,9.0,9.0,9.0,,,,,,,,,,,,,,,633.1281829038635,None,,,1,0.3519397501368075,635.6111298038159,None,635.6111298038159,None,,,634.4451925619505,None,,,,,1,2022_Apr_12_1103,Real-fake-judgement-flashing-group1,2021.1.2,59.73953215431014,
163,Trial # 11,Group1-stimuli/group1-block2/fake-group2-b2/encoded_Group2_IMG_9736.jpg,0,encoded_Group2_IMG_9736.jpg,,,,,,,,,0.0,10.0,10.0,10.0,,,,,,,,,,,,,,,635.9954092819244,None,,,1,0.2527276701293885,638.4623418748379,None,638.4623418748379,None,,,637.3116027738433,None,,,,,1,2022_Apr_12_1103,Real-fake-judgement-flashing-group1,2021.1.2,59.73953215431014,
164,Trial # 12,Group1-stimuli/group1-block2/real-group1-b2/Group1_IMG_9867.jpg,1,Group1_IMG_9867.jpg,,,,,,,,,0.0,11.0,11.0,11.0,,,,,,,,,,,,,,,638.7466158198658,None,,,1,0.2377591279800981,641.2293093767948,None,641.2293093767948,None,,,640.062493275851,None,,,,,1,2022_Apr_12_1103,Real-fake-judgement-flashing-group1,2021.1.2,59.73953215431014,
165,Trial # 13,Group1-stimuli/group1-block2/fake-group2-b2/encoded_Group2_IMG_9886.jpg,0,encoded_Group2_IMG_9886.jpg,,,,,,,,,0.0,12.0,12.0,12.0,,,,,,,,,,,,,,,641.4963519098237,None,,,1,0.5988766648806632,643.9641281659715,None,643.9641281659715,None,,,642.8127116288524,None,,,,,1,2022_Apr_12_1103,Real-fake-judgement-flashing-group1,2021.1.2,59.73953215431014,
166,Trial # 14,Group1-stimuli/group1-block2/fake-group2-b2/encoded_Group2_IMG_2245.jpg,0,encoded_Group2_IMG_2245.jpg,,,,,,,,,0.0,13.0,13.0,13.0,,,,,,,,,,,,,,,644.5818410278298,None,,,1,4.21897064591758,647.0480330768041,None,647.0480330768041,None,,,645.881834174972,None,,,,,1,2022_Apr_12_1103,Real-fake-judgement-flashing-group1,2021.1.2,59.73953215431014,
167,Trial # 15,Group1-stimuli/group1-block2/fake-group2-b2/encoded_Group2_IMG_0507.jpg,0,encoded_Group2_IMG_0507.jpg,,,,,,,,,0.0,14.0,14.0,14.0,,,,,,,,,,,,,,,651.2992051839828,None,,,1,0.1311547490768134,653.767929441994,None,653.767929441994,None,,,652.5994411818683,None,,,,,1,2022_Apr_12_1103,Real-fake-judgement-flashing-group1,2021.1.2,59.73953215431014,
168,Trial # 16,Group1-stimuli/group1-block2/fake-group2-b2/encoded_Group2_IMG_0338.jpg,0,encoded_Group2_IMG_0338.jpg,,,,,,,,,0.0,15.0,15.0,15.0,,,,,,,,,,,,,,,653.9174863209482,None,,,0,2.0903005830477923,656.4007866589818,None,656.4007866589818,None,,,655.2339032888412,None,,,,,1,2022_Apr_12_1103,Real-fake-judgement-flashing-group1,2021.1.2,59.73953215431014,
169,Trial # 17,Group1-stimuli/group1-block2/real-group1-b2/Group1_IMG_0376.jpg,1,Group1_IMG_0376.jpg,,,,,,,,,0.0,16.0,16.0,16.0,,,,,,,,,,,,,,,658.5196560088079,None,,,0,0.2807407961227,661.0023322219495,None,661.0023322219495,None,,,659.8363064248115,None,,,,,1,2022_Apr_12_1103,Real-fake-judgement-flashing-group1,2021.1.2,59.73953215431014,
170,Trial # 18,Group1-stimuli/group1-block2/real-group1-b2/Group1_IMG_9821.jpg,1,Group1_IMG_9821.jpg,,,,,,,,,0.0,17.0,17.0,17.0,,,,,,,,,,,,,,,661.3024368758779,None,,,1,0.2407802168745547,663.7703059928026,None,663.7703059928026,None,,,662.6026787399314,None,,,,,1,2022_Apr_12_1103,Real-fake-judgement-flashing-group1,2021.1.2,59.73953215431014,
171,Trial # 19,Group1-stimuli/group1-block2/fake-group2-b2/encoded_Group2_IMG_0388.jpg,0,encoded_Group2_IMG_0388.jpg,,,,,,,,,0.0,18.0,18.0,18.0,,,,,,,,,,,,,,,664.0377411299851,None,,,1,0.3389982518274337,666.5040789658669,None,666.5040789658669,None,,,665.3369327248074,None,,,,,1,2022_Apr_12_1103,Real-fake-judgement-flashing-group1,2021.1.2,59.73953215431014,
172,Trial # 20,Group1-stimuli/group1-block2/fake-group2-b2/encoded_Group2_IMG_0222.jpg,0,encoded_Group2_IMG_0222.jpg,,,,,,,,,0.0,19.0,19.0,19.0,,,,,,,,,,,,,,,666.8703778609633,None,,,1,2.20762707805261,669.3394412337802,None,669.3394412337802,None,,,668.1723102859687,None,,,,,1,2022_Apr_12_1103,Real-fake-judgement-flashing-group1,2021.1.2,59.73953215431014,
173,Trial # 21,Group1-stimuli/group1-block2/fake-group2-b2/encoded_Group2_IMG_2215.jpg,0,encoded_Group2_IMG_2215.jpg,,,,,,,,,0.0,20.0,20.0,20.0,,,,,,,,,,,,,,,671.5725307317916,None,,,0,0.1467847321182489,674.0242891018279,None,674.0242891018279,None,,,672.8553849889431,None,,,,,1,2022_Apr_12_1103,Real-fake-judgement-flashing-group1,2021.1.2,59.73953215431014,
174,Trial # 22,Group1-stimuli/group1-block2/real-group1-b2/Group1_IMG_9760.jpg,1,Group1_IMG_9760.jpg,,,,,,,,,0.0,21.0,21.0,21.0,,,,,,,,,,,,,,,674.191043447936,None,,,1,0.393338660011068,676.6737400928978,None,676.6737400928978,None,,,675.5067203089129,None,,,,,1,2022_Apr_12_1103,Real-fake-judgement-flashing-group1,2021.1.2,59.73953215431014,
175,Trial # 23,Group1-stimuli/group1-block2/real-group1-b2/Group1_IMG_9897.jpg,1,Group1_IMG_9897.jpg,,,,,,,,,0.0,22.0,22.0,22.0,,,,,,,,,,,,,,,677.0904757219832,None,,,1,1.7317570399027318,679.5593236149289,None,679.5593236149289,None,,,678.4088525949046,None,,,,,1,2022_Apr_12_1103,Real-fake-judgement-flashing-group1,2021.1.2,59.73953215431014,
176,Trial # 24,Group1-stimuli/group1-block2/real-group1-b2/Group1_IMG_4250.jpg,1,Group1_IMG_4250.jpg,,,,,,,,,0.0,23.0,23.0,23.0,,,,,,,,,,,,,,,681.3086407468654,None,,,0,0.4261066038161516,683.7769621149637,None,683.7769621149637,None,,,682.6250421039294,None,,,,,1,2022_Apr_12_1103,Real-fake-judgement-flashing-group1,2021.1.2,59.73953215431014,
177,Trial # 25,Group1-stimuli/group1-block2/real-group1-b2/Group1_IMG_2244.jpg,1,Group1_IMG_2244.jpg,,,,,,,,,0.0,24.0,24.0,24.0,,,,,,,,,,,,,,,684.2274863249622,None,,,1,1.1166420250665396,686.7103330509271,None,686.7103330509271,None,,,685.5439189358149,None,,,,,1,2022_Apr_12_1103,Real-fake-judgement-flashing-group1,2021.1.2,59.73953215431014,
178,Trial # 26,Group1-stimuli/group1-block2/fake-group2-b2/encoded_Group2_IMG_0501.jpg,0,encoded_Group2_IMG_0501.jpg,,,,,,,,,0.0,25.0,25.0,25.0,,,,,,,,,,,,,,,687.8440467598848,None,,,1,0.2998264380730688,690.3112342678942,None,690.3112342678942,None,,,689.1454934789799,None,,,,,1,2022_Apr_12_1103,Real-fake-judgement-flashing-group1,2021.1.2,59.73953215431014,
179,Trial # 27,Group1-stimuli/group1-block2/real-group1-b2/Group1_IMG_9684.jpg,1,Group1_IMG_9684.jpg,,,,,,,,,0.0,26.0,26.0,26.0,,,,,,,,,,,,,,,690.6281264959835,None,,,1,0.4102077861316502,693.1128583718091,None,693.1128583718091,None,,,691.945202378789,None,,,,,1,2022_Apr_12_1103,Real-fake-judgement-flashing-group1,2021.1.2,59.73953215431014,
180,Trial # 28,Group1-stimuli/group1-block2/real-group1-b2/Group1_IMG_1039.jpg,1,Group1_IMG_1039.jpg,,,,,,,,,0.0,27.0,27.0,27.0,,,,,,,,,,,,,,,693.5466953997966,None,,,1,0.4293335077818483,696.0297321968246,None,696.0297321968246,None,,,694.8626503359992,None,,,,,1,2022_Apr_12_1103,Real-fake-judgement-flashing-group1,2021.1.2,59.73953215431014,
181,Trial # 29,Group1-stimuli/group1-block2/fake-group2-b2/encoded_Group2_IMG_0251.jpg,0,encoded_Group2_IMG_0251.jpg,,,,,,,,,0.0,28.0,28.0,28.0,,,,,,,,,,,,,,,696.4798139717896,None,,,1,1.1273515541106462,698.9477639179677,None,698.9477639179677,None,,,697.7968875889201,None,,,,,1,2022_Apr_12_1103,Real-fake-judgement-flashing-group1,2021.1.2,59.73953215431014,
182,Trial # 30,Group1-stimuli/group1-block2/real-group1-b2/Group1_IMG_9692.jpg,1,Group1_IMG_9692.jpg,,,,,,,,,0.0,29.0,29.0,29.0,,,,,,,,,,,,,,,700.0989389519673,None,,,0,0.2211671560071408,702.5819087519776,None,702.5819087519776,None,,,701.4145650339779,None,,,,,1,2022_Apr_12_1103,Real-fake-judgement-flashing-group1,2021.1.2,59.73953215431014,
183,Trial # 31,Group1-stimuli/group1-block2/real-group1-b2/Group1_IMG_0512.jpg,1,Group1_IMG_0512.jpg,,,,,,,,,0.0,30.0,30.0,30.0,,,,,,,,,,,,,,,702.8320540008135,None,,,0,0.3356705098412931,705.2993467180058,None,705.2993467180058,None,,,704.1501393828075,None,,,,,1,2022_Apr_12_1103,Real-fake-judgement-flashing-group1,2021.1.2,59.73953215431014,
184,Trial # 32,Group1-stimuli/group1-block2/fake-group2-b2/encoded_Group2_IMG_9673.jpg,0,encoded_Group2_IMG_9673.jpg,,,,,,,,,0.0,31.0,31.0,31.0,,,,,,,,,,,,,,,705.6662109808531,None,,,1,0.6046051529701799,708.1504565789364,None,708.1504565789364,None,,,706.9829320209101,None,,,,,1,2022_Apr_12_1103,Real-fake-judgement-flashing-group1,2021.1.2,59.73953215431014,
185,Trial # 33,Group1-stimuli/group1-block2/fake-group2-b2/encoded_Group2_IMG_5135.jpg,0,encoded_Group2_IMG_5135.jpg,,,,,,,,,0.0,32.0,32.0,32.0,,,,,,,,,,,,,,,708.7849106688518,None,,,1,0.3600278319790959,711.2510405560024,None,711.2510405560024,None,,,710.0841053798795,None,,,,,1,2022_Apr_12_1103,Real-fake-judgement-flashing-group1,2021.1.2,59.73953215431014,
186,Trial # 34,Group1-stimuli/group1-block2/real-group1-b2/Group1_IMG_0396.jpg,1,Group1_IMG_0396.jpg,,,,,,,,,0.0,33.0,33.0,33.0,,,,,,,,,,,,,,,711.6344804589171,None,,,0,0.3404567069374025,714.102558295941,None,714.102558295941,None,,,712.9356376437936,None,,,,,1,2022_Apr_12_1103,Real-fake-judgement-flashing-group1,2021.1.2,59.73953215431014,
187,Trial # 35,Group1-stimuli/group1-block2/real-group1-b2/Group1_IMG_4919.jpg,1,Group1_IMG_4919.jpg,,,,,,,,,0.0,34.0,34.0,34.0,,,,,,,,,,,,,,,714.4697959558107,None,,,1,3.818546247901395,716.9525747909211,None,716.9525747909211,None,,,715.7691828999668,None,,,,,1,2022_Apr_12_1103,Real-fake-judgement-flashing-group1,2021.1.2,59.73953215431014,
188,Trial # 36,Group1-stimuli/group1-block2/real-group1-b2/Group1_IMG_0449.jpg,1,Group1_IMG_0449.jpg,,,,,,,,,0.0,35.0,35.0,35.0,,,,,,,,,,,,,,,720.78717976599,None,,,0,0.3788209180347621,723.272197172977,None,723.272197172977,None,,,722.1050108368509,None,,,,,1,2022_Apr_12_1103,Real-fake-judgement-flashing-group1,2021.1.2,59.73953215431014,
189,Trial # 37,Group1-stimuli/group1-block2/fake-group2-b2/encoded_Group2_IMG_0539.jpg,0,encoded_Group2_IMG_0539.jpg,,,,,,,,,0.0,36.0,36.0,36.0,,,,,,,,,,,,,,,723.6730307887774,None,,,1,0.2235610168427229,726.1394273778424,None,726.1394273778424,None,,,724.955475450959,None,,,,,1,2022_Apr_12_1103,Real-fake-judgement-flashing-group1,2021.1.2,59.73953215431014,
190,Trial # 38,Group1-stimuli/group1-block2/real-group1-b2/Group1_IMG_0453.jpg,1,Group1_IMG_0453.jpg,,,,,,,,,0.0,37.0,37.0,37.0,,,,,,,,,,,,,,,726.3889178847894,None,,,0,0.4334977529942989,728.8575430158526,None,728.8575430158526,None,,,727.7063078479841,None,,,,,1,2022_Apr_12_1103,Real-fake-judgement-flashing-group1,2021.1.2,59.73953215431014,
191,Trial # 39,Group1-stimuli/group1-block2/fake-group2-b2/encoded_Group2_IMG_0318.jpg,0,encoded_Group2_IMG_0318.jpg,,,,,,,,,0.0,38.0,38.0,38.0,,,,,,,,,,,,,,,729.324466467835,None,,,1,0.244359839009121,731.7907073039096,None,731.7907073039096,None,,,730.6234394039493,None,,,,,1,2022_Apr_12_1103,Real-fake-judgement-flashing-group1,2021.1.2,59.73953215431014,
192,Trial # 40,Group1-stimuli/group1-block2/real-group1-b2/Group1_IMG_1678.jpg,1,Group1_IMG_1678.jpg,,,,,,,,,0.0,39.0,39.0,39.0,,,,,,,,,,,,,,,732.0572669068351,None,,,0,0.1400312590412795,734.5429697299842,None,734.5429697299842,None,,,733.3759543239139,None,,,,,1,2022_Apr_12_1103,Real-fake-judgement-flashing-group1,2021.1.2,59.73953215431014,
193,Trial # 41,Group1-stimuli/group1-block2/fake-group2-b2/encoded_Group2_IMG_0325.jpg,0,encoded_Group2_IMG_0325.jpg,,,,,,,,,0.0,40.0,40.0,40.0,,,,,,,,,,,,,,,734.7095690518618,None,,,0,1.2512062729801985,737.1918721958064,None,737.1918721958064,None,,,736.0423414318357,None,,,,,1,2022_Apr_12_1103,Real-fake-judgement-flashing-group1,2021.1.2,59.73953215431014,
194,Trial # 42,Group1-stimuli/group1-block2/fake-group2-b2/encoded_Group2_IMG_9935.jpg,0,encoded_Group2_IMG_9935.jpg,,,,,,,,,0.0,41.0,41.0,41.0,,,,,,,,,,,,,,,738.4608839279972,None,,,0,0.8982689059339464,740.9607276099268,None,740.9607276099268,None,,,739.777273431886,None,,,,,1,2022_Apr_12_1103,Real-fake-judgement-flashing-group1,2021.1.2,59.73953215431014,
195,Trial # 43,Group1-stimuli/group1-block2/fake-group2-b2/encoded_Group2_IMG_0308.jpg,0,encoded_Group2_IMG_0308.jpg,,,,,,,,,0.0,42.0,42.0,42.0,,,,,,,,,,,,,,,741.8772755158134,None,,,1,0.5047778610605747,744.3462259219959,None,744.3462259219959,None,,,743.1782024509739,None,,,,,1,2022_Apr_12_1103,Real-fake-judgement-flashing-group1,2021.1.2,59.73953215431014,
196,Trial # 44,Group1-stimuli/group1-block2/real-group1-b2/Group1_IMG_0467.jpg,1,Group1_IMG_0467.jpg,,,,,,,,,0.0,43.0,43.0,43.0,,,,,,,,,,,,,,,744.8784576437902,None,,,0,1.8325572428293528,747.3624469339848,None,747.3624469339848,None,,,746.1959044749383,None,,,,,1,2022_Apr_12_1103,Real-fake-judgement-flashing-group1,2021.1.2,59.73953215431014,
197,Trial # 45,Group1-stimuli/group1-block2/fake-group2-b2/encoded_Group2_IMG_9839.jpg,0,encoded_Group2_IMG_9839.jpg,,,,,,,,,0.0,44.0,44.0,44.0,,,,,,,,,,,,,,,749.2141200848855,None,,,0,0.9628199650906026,751.6802471878473,None,751.6802471878473,None,,,750.513543725945,None,,,,,1,2022_Apr_12_1103,Real-fake-judgement-flashing-group1,2021.1.2,59.73953215431014,
198,Trial # 46,Group1-stimuli/group1-block2/fake-group2-b2/encoded_Group2_IMG_9681.jpg,0,encoded_Group2_IMG_9681.jpg,,,,,,,,,0.0,45.0,45.0,45.0,,,,,,,,,,,,,,,752.6634390719701,None,,,0,0.3670377619564533,755.1479207058437,None,755.1479207058437,None,,,753.9645432448015,None,,,,,1,2022_Apr_12_1103,Real-fake-judgement-flashing-group1,2021.1.2,59.73953215431014,
199,Trial # 47,Group1-stimuli/group1-block2/fake-group2-b2/encoded_Group2_IMG_0458.jpg,0,encoded_Group2_IMG_0458.jpg,,,,,,,,,0.0,46.0,46.0,46.0,,,,,,,,,,,,,,,755.5482377589215,None,,,1,0.3454838129691779,758.0335800799076,None,758.0335800799076,None,,,756.8816737579182,None,,,,,1,2022_Apr_12_1103,Real-fake-judgement-flashing-group1,2021.1.2,59.73953215431014,
200,Trial # 48,Group1-stimuli/group1-block2/real-group1-b2/Group1_IMG_1095.jpg,1,Group1_IMG_1095.jpg,,,,,,,,,0.0,47.0,47.0,47.0,,,,,,,,,,,,,,,758.3993535069749,None,,,0,1.2006181059405208,760.8663800228387,None,760.8663800228387,None,,,759.7003992628306,None,,,,,1,2022_Apr_12_1103,Real-fake-judgement-flashing-group1,2021.1.2,59.73953215431014,
201,Trial # 49,Group1-stimuli/group1-block2/fake-group2-b2/encoded_Group2_IMG_9710.jpg,0,encoded_Group2_IMG_9710.jpg,,,,,,,,,0.0,48.0,48.0,48.0,,,,,,,,,,,,,,,762.1000107559375,None,,,0,0.5387287160847336,764.5842675399035,None,764.5842675399035,None,,,763.4014076269232,None,,,,,1,2022_Apr_12_1103,Real-fake-judgement-flashing-group1,2021.1.2,59.73953215431014,
202,Trial # 50,Group1-stimuli/group1-block2/fake-group2-b2/encoded_Group2_IMG_9819.jpg,0,encoded_Group2_IMG_9819.jpg,,,,,,,,,0.0,49.0,49.0,49.0,,,,,,,,,,,,,,,765.1515026299749,None,,,0,0.3371091769076884,767.6179063159507,None,767.6179063159507,None,,,766.4511052609887,None,,,,,1,2022_Apr_12_1103,Real-fake-judgement-flashing-group1,2021.1.2,59.73953215431014,
203,Trial # 51,Group1-stimuli/group1-block2/real-group1-b2/Group1_IMG_0064.jpg,1,Group1_IMG_0064.jpg,,,,,,,,,0.0,50.0,50.0,50.0,,,,,,,,,,,,,,,767.986848309869,None,,,1,0.7895069280639291,770.4535613129847,None,770.4535613129847,None,,,769.3032240048051,None,,,,,1,2022_Apr_12_1103,Real-fake-judgement-flashing-group1,2021.1.2,59.73953215431014,
204,Trial # 52,Group1-stimuli/group1-block2/fake-group2-b2/encoded_Group2_IMG_9756.jpg,0,encoded_Group2_IMG_9756.jpg,,,,,,,,,0.0,51.0,51.0,51.0,,,,,,,,,,,,,,,771.2706633289345,None,,,1,0.2086287240963429,773.738473498961,None,773.738473498961,None,,,772.5868633289356,None,,,,,1,2022_Apr_12_1103,Real-fake-judgement-flashing-group1,2021.1.2,59.73953215431014,
205,Trial # 53,Group1-stimuli/group1-block2/fake-group2-b2/encoded_Group2_IMG_5888.jpg,0,encoded_Group2_IMG_5888.jpg,,,,,,,,,0.0,52.0,52.0,52.0,,,,,,,,,,,,,,,773.971586280968,None,,,0,0.7720111750531942,776.4549906319007,None,776.4549906319007,None,,,775.3210651648697,None,,,,,1,2022_Apr_12_1103,Real-fake-judgement-flashing-group1,2021.1.2,59.73953215431014,
206,Trial # 54,Group1-stimuli/group1-block2/real-group1-b2/Group1_IMG_1476.jpg,1,Group1_IMG_1476.jpg,,,,,,,,,0.0,53.0,53.0,53.0,,,,,,,,,,,,,,,777.254404587904,None,,,1,1.6884979861788452,779.7225696039386,None,779.7225696039386,None,,,778.5732514588162,None,,,,,1,2022_Apr_12_1103,Real-fake-judgement-flashing-group1,2021.1.2,59.73953215431014,
207,Trial # 55,Group1-stimuli/group1-block2/real-group1-b2/Group1_IMG_1917.jpg,1,Group1_IMG_1917.jpg,,,,,,,,,0.0,54.0,54.0,54.0,,,,,,,,,,,,,,,781.4399193718564,None,,,0,0.6066073649562895,783.9083956209943,None,783.9083956209943,None,,,782.740403305972,None,,,,,1,2022_Apr_12_1103,Real-fake-judgement-flashing-group1,2021.1.2,59.73953215431014,
208,Trial # 56,Group1-stimuli/group1-block2/real-group1-b2/Group1_IMG_0413.jpg,1,Group1_IMG_0413.jpg,,,,,,,,,0.0,55.0,55.0,55.0,,,,,,,,,,,,,,,784.5418047909625,None,,,0,0.4267741879448294,787.0242249597795,None,787.0242249597795,None,,,785.8572034218814,None,,,,,1,2022_Apr_12_1103,Real-fake-judgement-flashing-group1,2021.1.2,59.73953215431014,
209,Trial # 57,Group1-stimuli/group1-block2/real-group1-b2/Group1_IMG_1001.jpg,1,Group1_IMG_1001.jpg,,,,,,,,,0.0,56.0,56.0,56.0,,,,,,,,,,,,,,,787.4745893408544,None,,,1,0.4042295799590647,789.9427746208385,None,789.9427746208385,None,,,788.7764670699835,None,,,,,1,2022_Apr_12_1103,Real-fake-judgement-flashing-group1,2021.1.2,59.73953215431014,
210,Trial # 58,Group1-stimuli/group1-block2/fake-group2-b2/encoded_Group2_IMG_0441.jpg,0,encoded_Group2_IMG_0441.jpg,,,,,,,,,0.0,57.0,57.0,57.0,,,,,,,,,,,,,,,790.3757916369941,None,,,1,0.4232061950024217,792.8597952767741,None,792.8597952767741,None,,,791.6765408099163,None,,,,,1,2022_Apr_12_1103,Real-fake-judgement-flashing-group1,2021.1.2,59.73953215431014,
211,Trial # 59,Group1-stimuli/group1-block2/real-group1-b2/Group1_IMG_9774.jpg,1,Group1_IMG_9774.jpg,,,,,,,,,0.0,58.0,58.0,58.0,,,,,,,,,,,,,,,793.3113880360033,None,,,1,4.409537493949756,795.7935839858837,None,795.7935839858837,None,,,794.6275095290039,None,,,,,1,2022_Apr_12_1103,Real-fake-judgement-flashing-group1,2021.1.2,59.73953215431014,
212,Trial # 60,Group1-stimuli/group1-block2/fake-group2-b2/encoded_Group2_IMG_2751.jpg,0,encoded_Group2_IMG_2751.jpg,,,,,,,,,0.0,59.0,59.0,59.0,,,,,,,,,,,,,,,800.2296359548345,None,,,1,6.3149010019842535,802.6961641269736,None,802.6961641269736,None,,,801.5288005918264,None,,,,,1,2022_Apr_12_1103,Real-fake-judgement-flashing-group1,2021.1.2,59.73953215431014,
213,Trial # 61,Group1-stimuli/group1-block2/fake-group2-b2/encoded_Group2_IMG_0409.jpg,0,encoded_Group2_IMG_0409.jpg,,,,,,,,,0.0,60.0,60.0,60.0,,,,,,,,,,,,,,,809.0326108979061,None,,,1,0.3107965460512787,811.5322673809715,None,811.5322673809715,None,,,810.3330720257945,None,,,,,1,2022_Apr_12_1103,Real-fake-judgement-flashing-group1,2021.1.2,59.73953215431014,
214,Trial # 62,Group1-stimuli/group1-block2/real-group1-b2/Group1_IMG_1346.jpg,1,Group1_IMG_1346.jpg,,,,,,,,,0.0,61.0,61.0,61.0,,,,,,,,,,,,,,,811.8652473387774,None,,,1,0.3575091320089996,814.3334931428544,None,814.3334931428544,None,,,813.1828078588005,None,,,,,1,2022_Apr_12_1103,Real-fake-judgement-flashing-group1,2021.1.2,59.73953215431014,
215,Trial # 63,Group1-stimuli/group1-block2/real-group1-b2/Group1_IMG_0481.jpg,1,Group1_IMG_0481.jpg,,,,,,,,,0.0,62.0,62.0,62.0,,,,,,,,,,,,,,,814.7168959558476,None,,,1,0.4823563529644161,817.2006439149845,None,817.2006439149845,None,,,816.0166726207826,None,,,,,1,2022_Apr_12_1103,Real-fake-judgement-flashing-group1,2021.1.2,59.73953215431014,
216,Trial # 64,Group1-stimuli/group1-block2/fake-group2-b2/encoded_Group2_IMG_4718.jpg,0,encoded_Group2_IMG_4718.jpg,,,,,,,,,0.0,63.0,63.0,63.0,,,,,,,,,,,,,,,817.7008373269346,None,,,1,0.4673986281268298,820.1516523140017,None,820.1516523140017,None,,,818.9846441638656,None,,,,,1,2022_Apr_12_1103,Real-fake-judgement-flashing-group1,2021.1.2,59.73953215431014,
217,Trial # 65,Group1-stimuli/group1-block2/real-group1-b2/Group1_IMG_0540.jpg,1,Group1_IMG_0540.jpg,,,,,,,,,0.0,64.0,64.0,64.0,,,,,,,,,,,,,,,820.636026844848,None,,,0,0.2356096499133855,823.1193866247777,None,823.1193866247777,None,,,822.0522269629873,None,,,,,1,2022_Apr_12_1103,Real-fake-judgement-flashing-group1,2021.1.2,59.73953215431014,
218,Trial # 66,Group1-stimuli/group1-block2/fake-group2-b2/encoded_Group2_IMG_0166.jpg,0,encoded_Group2_IMG_0166.jpg,,,,,,,,,0.0,65.0,65.0,65.0,,,,,,,,,,,,,,,823.3870910729747,None,,,1,0.2852314140181988,825.8538738228381,None,825.8538738228381,None,,,824.6870969349984,None,,,,,1,2022_Apr_12_1103,Real-fake-judgement-flashing-group1,2021.1.2,59.73953215431014,
219,Trial # 67,Group1-stimuli/group1-block2/fake-group2-b2/encoded_Group2_IMG_0412.jpg,0,encoded_Group2_IMG_0412.jpg,,,,,,,,,0.0,66.0,66.0,66.0,,,,,,,,,,,,,,,826.1704609368462,None,,,1,0.1886046710424125,828.6544713398907,None,828.6544713398907,None,,,827.5366589999758,None,,,,,1,2022_Apr_12_1103,Real-fake-judgement-flashing-group1,2021.1.2,59.73953215431014,
220,Trial # 68,Group1-stimuli/group1-block2/real-group1-b2/Group1_IMG_0485.jpg,1,Group1_IMG_0485.jpg,,,,,,,,,0.0,67.0,67.0,67.0,,,,,,,,,,,,,,,828.8713784469292,None,,,0,0.1116139800287783,831.3554791088682,None,831.3554791088682,None,,,830.18871957995,None,,,,,1,2022_Apr_12_1103,Real-fake-judgement-flashing-group1,2021.1.2,59.73953215431014,
221,Trial # 69,Group1-stimuli/group1-block2/fake-group2-b2/encoded_Group2_IMG_1495.jpg,0,encoded_Group2_IMG_1495.jpg,,,,,,,,,0.0,68.0,68.0,68.0,,,,,,,,,,,,,,,831.4885709078517,None,,,0,1.1584979121107608,833.956493075937,None,833.956493075937,None,,,832.7888560427818,None,,,,,1,2022_Apr_12_1103,Real-fake-judgement-flashing-group1,2021.1.2,59.73953215431014,
222,Trial # 70,Group1-stimuli/group1-block2/real-group1-b2/Group1_IMG_0426.jpg,1,Group1_IMG_0426.jpg,,,,,,,,,0.0,69.0,69.0,69.0,,,,,,,,,,,,,,,835.1405556479003,None,,,0,0.3320205940399319,837.6230017929338,None,837.6230017929338,None,,,836.4401944139972,None,,,,,1,2022_Apr_12_1103,Real-fake-judgement-flashing-group1,2021.1.2,59.73953215431014,
223,Trial # 71,Group1-stimuli/group1-block2/real-group1-b2/Group1_IMG_0349.jpg,1,Group1_IMG_0349.jpg,,,,,,,,,0.0,70.0,70.0,70.0,,,,,,,,,,,,,,,837.9738352068234,None,,,1,0.8084216699935496,840.4426137779374,None,840.4426137779374,None,,,839.2915505799465,None,,,,,1,2022_Apr_12_1103,Real-fake-judgement-flashing-group1,2021.1.2,59.73953215431014,
224,Trial # 72,Group1-stimuli/group1-block2/real-group1-b2/Group1_IMG_0414.jpg,1,Group1_IMG_0414.jpg,,,,,,,,,0.0,71.0,71.0,71.0,,,,,,,,,,,,,,,841.275143250823,None,,,0,5.3315561739727855,843.7435086709447,None,843.7435086709447,None,,,842.5745769659989,None,,,,,1,2022_Apr_12_1103,Real-fake-judgement-flashing-group1,2021.1.2,59.73953215431014,
225,Trial # 73,Group1-stimuli/group1-block2/fake-group2-b2/encoded_Group2_IMG_9856.jpg,0,encoded_Group2_IMG_9856.jpg,,,,,,,,,0.0,72.0,72.0,72.0,,,,,,,,,,,,,,,849.0948474498,None,,,0,0.3698801910504699,851.5611216868274,None,851.5611216868274,None,,,850.3946509028319,None,,,,,1,2022_Apr_12_1103,Real-fake-judgement-flashing-group1,2021.1.2,59.73953215431014,
226,Trial # 74,Group1-stimuli/group1-block2/fake-group2-b2/encoded_Group2_IMG_5313.jpg,0,encoded_Group2_IMG_5313.jpg,,,,,,,,,0.0,73.0,73.0,73.0,,,,,,,,,,,,,,,851.960761338938,None,,,1,0.3498834338970482,854.4291011609603,None,854.4291011609603,None,,,853.2624587479513,None,,,,,1,2022_Apr_12_1103,Real-fake-judgement-flashing-group1,2021.1.2,59.73953215431014,
227,Trial # 75,Group1-stimuli/group1-block2/fake-group2-b2/encoded_Group2_IMG_0421.jpg,0,encoded_Group2_IMG_0421.jpg,,,,,,,,,0.0,74.0,74.0,74.0,,,,,,,,,,,,,,,854.7966680799145,None,,,1,0.4436100858729332,857.2634667728562,None,857.2634667728562,None,,,856.0957083548419,None,,,,,1,2022_Apr_12_1103,Real-fake-judgement-flashing-group1,2021.1.2,59.73953215431014,
228,Trial # 76,Group1-stimuli/group1-block2/fake-group2-b2/encoded_Group2_IMG_0446.jpg,0,encoded_Group2_IMG_0446.jpg,,,,,,,,,0.0,75.0,75.0,75.0,,,,,,,,,,,,,,,857.7341593508609,None,,,0,1.156661381945014,860.1983602039982,None,860.1983602039982,None,,,859.0311876689084,None,,,,,1,2022_Apr_12_1103,Real-fake-judgement-flashing-group1,2021.1.2,59.73953215431014,
229,Trial # 77,Group1-stimuli/group1-block2/real-group1-b2/Group1_IMG_5999.jpg,1,Group1_IMG_5999.jpg,,,,,,,,,0.0,76.0,76.0,76.0,,,,,,,,,,,,,,,861.3807854237966,None,,,1,0.2821699280757457,863.848815004807,None,863.848815004807,None,,,862.6982687579002,None,,,,,1,2022_Apr_12_1103,Real-fake-judgement-flashing-group1,2021.1.2,59.73953215431014,
230,Trial # 78,Group1-stimuli/group1-block2/real-group1-b2/Group1_IMG_0107.jpg,1,Group1_IMG_0107.jpg,,,,,,,,,0.0,77.0,77.0,77.0,,,,,,,,,,,,,,,864.1489394009113,None,,,1,0.8512397620361298,866.6157626467757,None,866.6157626467757,None,,,865.4487010079902,None,,,,,1,2022_Apr_12_1103,Real-fake-judgement-flashing-group1,2021.1.2,59.73953215431014,
231,Trial # 79,Group1-stimuli/group1-block2/fake-group2-b2/encoded_Group2_IMG_0322.jpg,0,encoded_Group2_IMG_0322.jpg,,,,,,,,,0.0,78.0,78.0,78.0,,,,,,,,,,,,,,,867.4998986758292,None,,,0,0.411542140878737,869.9675329439342,None,869.9675329439342,None,,,868.8001325828955,None,,,,,1,2022_Apr_12_1103,Real-fake-judgement-flashing-group1,2021.1.2,59.73953215431014,
232,Trial # 80,Group1-stimuli/group1-block2/fake-group2-b2/encoded_Group2_IMG_4255.jpg,0,encoded_Group2_IMG_4255.jpg,,,,,,,,,0.0,79.0,79.0,79.0,,,,,,,,,,,,,,,870.4001909389626,None,,,0,0.2862712789792567,872.8847422648687,None,872.8847422648687,None,,,871.7011511109304,None,,,,,1,2022_Apr_12_1103,Real-fake-judgement-flashing-group1,2021.1.2,59.73953215431014,
233,Trial # 81,Group1-stimuli/group1-block2/fake-group2-b2/encoded_Group2_IMG_0219.jpg,0,encoded_Group2_IMG_0219.jpg,,,,,,,,,0.0,80.0,80.0,80.0,,,,,,,,,,,,,,,873.2016214909963,None,,,1,0.3334585311822593,875.6855448218994,None,875.6855448218994,None,,,874.5018499209546,None,,,,,1,2022_Apr_12_1103,Real-fake-judgement-flashing-group1,2021.1.2,59.73953215431014,
234,Trial # 82,Group1-stimuli/group1-block2/real-group1-b2/Group1_IMG_0548.jpg,1,Group1_IMG_0548.jpg,,,,,,,,,0.0,81.0,81.0,81.0,,,,,,,,,,,,,,,876.0360401249491,None,,,0,0.1453280700370669,878.5376729858108,None,878.5376729858108,None,,,877.3530633437913,None,,,,,1,2022_Apr_12_1103,Real-fake-judgement-flashing-group1,2021.1.2,59.73953215431014,
235,Trial # 83,Group1-stimuli/group1-block2/real-group1-b2/Group1_IMG_0229.jpg,1,Group1_IMG_0229.jpg,,,,,,,,,0.0,82.0,82.0,82.0,,,,,,,,,,,,,,,878.7042958219536,None,,,0,0.3034231609199196,881.1875784378499,None,881.1875784378499,None,,,880.0201767978724,None,,,,,1,2022_Apr_12_1103,Real-fake-judgement-flashing-group1,2021.1.2,59.73953215431014,
236,Trial # 84,Group1-stimuli/group1-block2/fake-group2-b2/encoded_Group2_IMG_0365.jpg,0,encoded_Group2_IMG_0365.jpg,,,,,,,,,0.0,83.0,83.0,83.0,,,,,,,,,,,,,,,881.5201546479948,None,,,1,0.4860578149091452,883.9890174588654,None,883.9890174588654,None,,,882.8376067539211,None,,,,,1,2022_Apr_12_1103,Real-fake-judgement-flashing-group1,2021.1.2,59.73953215431014,
237,Trial # 85,Group1-stimuli/group1-block2/real-group1-b2/Group1_IMG_9822.jpg,1,Group1_IMG_9822.jpg,,,,,,,,,0.0,84.0,84.0,84.0,,,,,,,,,,,,,,,884.5062947398983,None,,,1,0.2938354979269206,886.9891670788638,None,886.9891670788638,None,,,885.8223503779154,None,,,,,1,2022_Apr_12_1103,Real-fake-judgement-flashing-group1,2021.1.2,59.73953215431014,
238,Trial # 86,Group1-stimuli/group1-block2/fake-group2-b2/encoded_Group2_IMG_0195.jpg,0,encoded_Group2_IMG_0195.jpg,,,,,,,,,0.0,85.0,85.0,85.0,,,,,,,,,,,,,,,887.3062217088882,None,,,0,0.3652349079493433,889.7738977468107,None,889.7738977468107,None,,,888.6074196568225,None,,,,,1,2022_Apr_12_1103,Real-fake-judgement-flashing-group1,2021.1.2,59.73953215431014,
239,Trial # 87,Group1-stimuli/group1-block2/fake-group2-b2/encoded_Group2_IMG_0494.jpg,0,encoded_Group2_IMG_0494.jpg,,,,,,,,,0.0,86.0,86.0,86.0,,,,,,,,,,,,,,,890.1574649319518,None,,,1,0.2673059399239719,892.6237089890055,None,892.6237089890055,None,,,891.4565863048192,None,,,,,1,2022_Apr_12_1103,Real-fake-judgement-flashing-group1,2021.1.2,59.73953215431014,
240,Trial # 88,Group1-stimuli/group1-block2/real-group1-b2/Group1_IMG_0509.jpg,1,Group1_IMG_0509.jpg,,,,,,,,,0.0,87.0,87.0,87.0,,,,,,,,,,,,,,,892.9234676219057,None,,,0,1.770769463852048,895.392243713839,None,895.392243713839,None,,,894.2244973338675,None,,,,,1,2022_Apr_12_1103,Real-fake-judgement-flashing-group1,2021.1.2,59.73953215431014,
241,Trial # 89,Group1-stimuli/group1-block2/fake-group2-b2/encoded_Group2_IMG_8924.jpg,0,encoded_Group2_IMG_8924.jpg,,,,,,,,,0.0,88.0,88.0,88.0,,,,,,,,,,,,,,,897.1914844419807,None,,,1,0.2628048020415008,899.6601891180035,None,899.6601891180035,None,,,898.4929595598951,None,,,,,1,2022_Apr_12_1103,Real-fake-judgement-flashing-group1,2021.1.2,59.73953215431014,
242,Trial # 90,Group1-stimuli/group1-block2/real-group1-b2/Group1_IMG_0360.jpg,1,Group1_IMG_0360.jpg,,,,,,,,,0.0,89.0,89.0,89.0,,,,,,,,,,,,,,,899.9442139849998,None,,,0,0.0882115180138498,902.4268079597967,None,902.4268079597967,None,,,901.276823409833,None,,,,,1,2022_Apr_12_1103,Real-fake-judgement-flashing-group1,2021.1.2,59.73953215431014,
243,Trial # 91,Group1-stimuli/group1-block2/fake-group2-b2/encoded_Group2_IMG_0523.jpg,0,encoded_Group2_IMG_0523.jpg,,,,,,,,,0.0,90.0,90.0,90.0,,,,,,,,,,,,,,,902.543776041828,None,,,0,0.4720422998070717,904.9950570818036,None,904.9950570818036,None,,,903.8275242119562,None,,,,,1,2022_Apr_12_1103,Real-fake-judgement-flashing-group1,2021.1.2,59.73953215431014,
244,Trial # 92,Group1-stimuli/group1-block2/real-group1-b2/Group1_IMG_0518.jpg,1,Group1_IMG_0518.jpg,,,,,,,,,0.0,91.0,91.0,91.0,,,,,,,,,,,,,,,905.4943290678784,None,,,0,0.4727670780848712,907.9623011879156,None,907.9623011879156,None,,,906.7951078279876,None,,,,,1,2022_Apr_12_1103,Real-fake-judgement-flashing-group1,2021.1.2,59.73953215431014,
245,Trial # 93,Group1-stimuli/group1-block2/fake-group2-b2/encoded_Group2_IMG_0372.jpg,0,encoded_Group2_IMG_0372.jpg,,,,,,,,,0.0,92.0,92.0,92.0,,,,,,,,,,,,,,,908.4622970358467,None,,,0,0.3845001820009202,910.9305150918664,None,910.9305150918664,None,,,909.7631913069636,None,,,,,1,2022_Apr_12_1103,Real-fake-judgement-flashing-group1,2021.1.2,59.73953215431014,
246,Trial # 94,Group1-stimuli/group1-block2/fake-group2-b2/encoded_Group2_IMG_9761.jpg,0,encoded_Group2_IMG_9761.jpg,,,,,,,,,0.0,93.0,93.0,93.0,,,,,,,,,,,,,,,911.3470778078772,None,,,1,0.4360191829036921,913.8149802708068,None,913.8149802708068,None,,,912.6469959819224,None,,,,,1,2022_Apr_12_1103,Real-fake-judgement-flashing-group1,2021.1.2,59.73953215431014,
247,Trial # 95,Group1-stimuli/group1-block2/real-group1-b2/Group1_IMG_2690.jpg,1,Group1_IMG_2690.jpg,,,,,,,,,0.0,94.0,94.0,94.0,,,,,,,,,,,,,,,914.2816210358868,None,,,0,0.4623547031078487,916.7646344189998,None,916.7646344189998,None,,,915.5973251559772,None,,,,,1,2022_Apr_12_1103,Real-fake-judgement-flashing-group1,2021.1.2,59.73953215431014,
248,Trial # 96,Group1-stimuli/group1-block2/real-group1-b2/Group1_IMG_9855.jpg,1,Group1_IMG_9855.jpg,,,,,,,,,0.0,95.0,95.0,95.0,,,,,,,,,,,,,,,917.2487700928468,None,,,1,0.5509543770458549,919.7160873569082,None,919.7160873569082,None,,,918.5656246168072,None,,,,,1,2022_Apr_12_1103,Real-fake-judgement-flashing-group1,2021.1.2,59.73953215431014,
249,Trial # 97,Group1-stimuli/group1-block2/fake-group2-b2/encoded_Group2_IMG_0470.jpg,0,encoded_Group2_IMG_0470.jpg,,,,,,,,,0.0,96.0,96.0,96.0,,,,,,,,,,,,,,,920.2828151087742,None,,,0,0.1808105981908738,922.750191801926,None,922.750191801926,None,,,921.5826302219648,None,,,,,1,2022_Apr_12_1103,Real-fake-judgement-flashing-group1,2021.1.2,59.73953215431014,
250,Trial # 98,Group1-stimuli/group1-block2/fake-group2-b2/encoded_Group2_IMG_1191.jpg,0,encoded_Group2_IMG_1191.jpg,,,,,,,,,0.0,97.0,97.0,97.0,,,,,,,,,,,,,,,922.9500996479763,None,,,1,0.329009209992364,925.4180350929964,None,925.4180350929964,None,,,924.2510929799172,None,,,,,1,2022_Apr_12_1103,Real-fake-judgement-flashing-group1,2021.1.2,59.73953215431014,
251,Trial # 99,Group1-stimuli/group1-block2/real-group1-b2/Group1_IMG_9937.jpg,1,Group1_IMG_9937.jpg,,,,,,,,,0.0,98.0,98.0,98.0,,,,,,,,,,,,,,,925.7671968138312,None,,,1,0.4149022621568292,928.236100444803,None,928.236100444803,None,,,927.0675907249096,None,,,,,1,2022_Apr_12_1103,Real-fake-judgement-flashing-group1,2021.1.2,59.73953215431014,
252,Trial # 100,Group1-stimuli/group1-block2/fake-group2-b2/encoded_Group2_IMG_0106.jpg,0,encoded_Group2_IMG_0106.jpg,,,,,,,,,0.0,99.0,99.0,99.0,,,,,,,,,,,,,,,928.6697492739186,None,,,0,0.6185692220460624,931.1364292178768,None,931.1364292178768,None,,,929.9689880218356,None,,,,,1,2022_Apr_12_1103,Real-fake-judgement-flashing-group1,2021.1.2,59.73953215431014,
253,Trial # 101,Group1-stimuli/group1-block2/real-group1-b2/Group1_IMG_2790.jpg,1,Group1_IMG_2790.jpg,,,,,,,,,0.0,100.0,100.0,100.0,,,,,,,,,,,,,,,931.7857847029808,None,,,0,0.3324567608069628,934.2545440578832,None,934.2545440578832,None,,,933.086536504794,None,,,,,1,2022_Apr_12_1103,Real-fake-judgement-flashing-group1,2021.1.2,59.73953215431014,
254,Trial # 102,Group1-stimuli/group1-block2/real-group1-b2/Group1_IMG_9792.jpg,1,Group1_IMG_9792.jpg,,,,,,,,,0.0,101.0,101.0,101.0,,,,,,,,,,,,,,,934.6049014418386,None,,,1,0.3552893800660968,937.0878083938732,None,937.0878083938732,None,,,935.9213890079408,None,,,,,1,2022_Apr_12_1103,Real-fake-judgement-flashing-group1,2021.1.2,59.73953215431014,
255,Trial # 103,Group1-stimuli/group1-block2/real-group1-b2/Group1_IMG_1640.jpg,1,Group1_IMG_1640.jpg,,,,,,,,,0.0,102.0,102.0,102.0,,,,,,,,,,,,,,,937.4714750410058,None,,,1,0.3832665530499071,939.9397486508824,None,939.9397486508824,None,,,938.7724395808764,None,,,,,1,2022_Apr_12_1103,Real-fake-judgement-flashing-group1,2021.1.2,59.73953215431014,
256,Trial # 104,Group1-stimuli/group1-block2/real-group1-b2/Group1_IMG_0033.jpg,1,Group1_IMG_0033.jpg,,,,,,,,,0.0,103.0,103.0,103.0,,,,,,,,,,,,,,,940.3562471778132,None,,,1,0.4199136020615697,942.8391093788669,None,942.8391093788669,None,,,941.6724655639846,None,,,,,1,2022_Apr_12_1103,Real-fake-judgement-flashing-group1,2021.1.2,59.73953215431014,
257,Trial # 105,Group1-stimuli/group1-block2/real-group1-b2/Group1_IMG_0079.jpg,1,Group1_IMG_0079.jpg,,,,,,,,,0.0,104.0,104.0,104.0,,,,,,,,,,,,,,,943.2908769617788,None,,,1,2.558272266993299,945.7567246838008,None,945.7567246838008,None,,,944.5901604809332,None,,,,,1,2022_Apr_12_1103,Real-fake-judgement-flashing-group1,2021.1.2,59.73953215431014,
258,Trial # 106,Group1-stimuli/group1-block2/fake-group2-b2/encoded_Group2_IMG_9909.jpg,0,encoded_Group2_IMG_9909.jpg,,,,,,,,,0.0,105.0,105.0,105.0,,,,,,,,,,,,,,,948.3417922758964,None,,,0,0.3697723851073533,950.8252279867884,None,950.8252279867884,None,,,949.6428710699548,None,,,,,1,2022_Apr_12_1103,Real-fake-judgement-flashing-group1,2021.1.2,59.73953215431014,
259,Trial # 107,Group1-stimuli/group1-block2/fake-group2-b2/encoded_Group2_IMG_0398.jpg,0,encoded_Group2_IMG_0398.jpg,,,,,,,,,0.0,106.0,106.0,106.0,,,,,,,,,,,,,,,951.2250278189312,None,,,0,0.5091526359319687,953.6939212267752,None,953.6939212267752,None,,,952.5251196247992,None,,,,,1,2022_Apr_12_1103,Real-fake-judgement-flashing-group1,2021.1.2,59.73953215431014,
260,Trial # 108,Group1-stimuli/group1-block2/real-group1-b2/Group1_IMG_4268.jpg,1,Group1_IMG_4268.jpg,,,,,,,,,0.0,107.0,107.0,107.0,,,,,,,,,,,,,,,954.2264565560037,None,,,1,0.3016168118920177,956.6934044198132,None,956.6934044198132,None,,,955.5270759949926,None,,,,,1,2022_Apr_12_1103,Real-fake-judgement-flashing-group1,2021.1.2,59.73953215431014,
261,Trial # 109,Group1-stimuli/group1-block2/fake-group2-b2/encoded_Group2_IMG_9321.jpg,0,encoded_Group2_IMG_9321.jpg,,,,,,,,,0.0,108.0,108.0,108.0,,,,,,,,,,,,,,,957.0268742449116,None,,,1,0.3165624050889164,959.4945198369678,None,959.4945198369678,None,,,958.3277461847756,None,,,,,1,2022_Apr_12_1103,Real-fake-judgement-flashing-group1,2021.1.2,59.73953215431014,
262,Trial # 110,Group1-stimuli/group1-block2/fake-group2-b2/encoded_Group2_IMG_9964.jpg,0,encoded_Group2_IMG_9964.jpg,,,,,,,,,0.0,109.0,109.0,109.0,,,,,,,,,,,,,,,959.828339220956,None,,,1,0.4592021838761866,962.295807832852,None,962.295807832852,None,,,961.1281934687868,None,,,,,1,2022_Apr_12_1103,Real-fake-judgement-flashing-group1,2021.1.2,59.73953215431014,
263,Trial # 111,Group1-stimuli/group1-block2/real-group1-b2/Group1_IMG_0329.jpg,1,Group1_IMG_0329.jpg,,,,,,,,,0.0,110.0,110.0,110.0,,,,,,,,,,,,,,,962.7785592649598,None,,,0,0.2438689488917589,965.2632139418274,None,965.2632139418274,None,,,964.096257826779,None,,,,,1,2022_Apr_12_1103,Real-fake-judgement-flashing-group1,2021.1.2,59.73953215431014,
264,Trial # 112,Group1-stimuli/group1-block2/fake-group2-b2/encoded_Group2_IMG_0534.jpg,0,encoded_Group2_IMG_0534.jpg,,,,,,,,,0.0,111.0,111.0,111.0,,,,,,,,,,,,,,,965.5305647198112,None,,,0,0.5424565761350095,967.9966188238468,None,967.9966188238468,None,,,966.830370160984,None,,,,,1,2022_Apr_12_1103,Real-fake-judgement-flashing-group1,2021.1.2,59.73953215431014,
265,Trial # 113,Group1-stimuli/group1-block2/fake-group2-b2/encoded_Group2_IMG_0054.jpg,0,encoded_Group2_IMG_0054.jpg,,,,,,,,,0.0,112.0,112.0,112.0,,,,,,,,,,,,,,,968.5652186248916,None,,,0,0.3951227250508964,971.0318842439448,None,971.0318842439448,None,,,969.8646623948588,None,,,,,1,2022_Apr_12_1103,Real-fake-judgement-flashing-group1,2021.1.2,59.73953215431014,
266,Trial # 114,Group1-stimuli/group1-block2/real-group1-b2/Group1_IMG_9979.jpg,1,Group1_IMG_9979.jpg,,,,,,,,,0.0,113.0,113.0,113.0,,,,,,,,,,,,,,,971.4483345809858,None,,,1,0.3014895969536155,973.9335850239733,None,973.9335850239733,None,,,972.7484908278566,None,,,,,1,2022_Apr_12_1103,Real-fake-judgement-flashing-group1,2021.1.2,59.73953215431014,
267,Trial # 115,Group1-stimuli/group1-block2/real-group1-b2/Group1_IMG_0170.jpg,1,Group1_IMG_0170.jpg,,,,,,,,,0.0,114.0,114.0,114.0,,,,,,,,,,,,,,,974.2669599798974,None,,,1,3.189159993082285,976.733857168816,None,976.733857168816,None,,,975.5660833618604,None,,,,,1,2022_Apr_12_1103,Real-fake-judgement-flashing-group1,2021.1.2,59.73953215431014,
268,Trial # 116,Group1-stimuli/group1-block2/fake-group2-b2/encoded_Group2_IMG_0007.jpg,0,encoded_Group2_IMG_0007.jpg,,,,,,,,,0.0,115.0,115.0,115.0,,,,,,,,,,,,,,,979.9515956128016,None,,,0,0.4803830159362405,982.4346200057772,None,982.4346200057772,None,,,981.250997401774,None,,,,,1,2022_Apr_12_1103,Real-fake-judgement-flashing-group1,2021.1.2,59.73953215431014,
269,Trial # 117,Group1-stimuli/group1-block2/real-group1-b2/Group1_IMG_0192.jpg,1,Group1_IMG_0192.jpg,,,,,,,,,0.0,116.0,116.0,116.0,,,,,,,,,,,,,,,982.9359338358043,None,,,1,0.9916835501790048,985.403320570942,None,985.403320570942,None,,,984.2524679407944,None,,,,,1,2022_Apr_12_1103,Real-fake-judgement-flashing-group1,2021.1.2,59.73953215431014,
270,Trial # 118,Group1-stimuli/group1-block2/real-group1-b2/Group1_IMG_9786.jpg,1,Group1_IMG_9786.jpg,,,,,,,,,0.0,117.0,117.0,117.0,,,,,,,,,,,,,,,986.4194241547956,None,,,1,0.4429542440921068,988.8880462967792,None,988.8880462967792,None,,,987.7362387739122,None,,,,,1,2022_Apr_12_1103,Real-fake-judgement-flashing-group1,2021.1.2,59.73953215431014,
271,Trial # 119,Group1-stimuli/group1-block2/real-group1-b2/Group1_IMG_0187.jpg,1,Group1_IMG_0187.jpg,,,,,,,,,0.0,118.0,118.0,118.0,,,,,,,,,,,,,,,989.3550892169588,None,,,1,0.3002415369264781,991.8387580309064,None,991.8387580309064,None,,,990.6712434629444,None,,,,,1,2022_Apr_12_1103,Real-fake-judgement-flashing-group1,2021.1.2,59.73953215431014,
272,Trial # 120,Group1-stimuli/group1-block2/fake-group2-b2/encoded_Group2_IMG_0249.jpg,0,encoded_Group2_IMG_0249.jpg,,,,,,,,,0.0,119.0,119.0,119.0,,,,,,,,,,,,,,,992.1710252438206,None,,,1,0.7151114230509847,994.6398818418384,None,994.6398818418384,None,,,993.4731147109997,None,,,,,1,2022_Apr_12_1103,Real-fake-judgement-flashing-group1,2021.1.2,59.73953215431014,
273,Trial # 121,Group1-stimuli/group1-block2/fake-group2-b2/encoded_Group2_IMG_0074.jpg,0,encoded_Group2_IMG_0074.jpg,,,,,,,,,0.0,120.0,120.0,120.0,,,,,,,,,,,,,,,995.372465442866,None,,,1,0.2819450770039111,997.8570294328964,None,997.8570294328964,None,,,996.6890064349864,None,,,,,1,2022_Apr_12_1103,Real-fake-judgement-flashing-group1,2021.1.2,59.73953215431014,
274,Trial # 122,Group1-stimuli/group1-block2/real-group1-b2/Group1_IMG_0243.jpg,1,Group1_IMG_0243.jpg,,,,,,,,,0.0,121.0,121.0,121.0,,,,,,,,,,,,,,,998.1576984089334,None,,,1,0.2977474911604076,1000.6412671338768,None,1000.6412671338768,None,,,999.4738536439836,None,,,,,1,2022_Apr_12_1103,Real-fake-judgement-flashing-group1,2021.1.2,59.73953215431014,
275,Trial # 123,Group1-stimuli/group1-block2/real-group1-b2/Group1_IMG_0130.jpg,1,Group1_IMG_0130.jpg,,,,,,,,,0.0,122.0,122.0,122.0,,,,,,,,,,,,,,,1000.9572970098816,None,,,1,0.3199275110382586,1003.443086562911,None,1003.443086562911,None,,,1002.2746990749148,None,,,,,1,2022_Apr_12_1103,Real-fake-judgement-flashing-group1,2021.1.2,59.73953215431014,
276,Trial # 124,Group1-stimuli/group1-block2/real-group1-b2/Group1_IMG_0298.jpg,1,Group1_IMG_0298.jpg,,,,,,,,,0.0,123.0,123.0,123.0,,,,,,,,,,,,,,,1003.7918736459688,None,,,1,0.4232157040387392,1006.2597839769442,None,1006.2597839769442,None,,,1005.09297579783,None,,,,,1,2022_Apr_12_1103,Real-fake-judgement-flashing-group1,2021.1.2,59.73953215431014,
277,Trial # 125,Group1-stimuli/group1-block2/real-group1-b2/Group1_IMG_5871.jpg,1,Group1_IMG_5871.jpg,,,,,,,,,0.0,124.0,124.0,124.0,,,,,,,,,,,,,,,1006.7093610828742,None,,,0,0.14578592707403,1009.1772068208084,None,1009.1772068208084,None,,,1008.0096728350036,None,,,,,1,2022_Apr_12_1103,Real-fake-judgement-flashing-group1,2021.1.2,59.73953215431014,
278,Trial # 126,Group1-stimuli/group1-block2/fake-group2-b2/encoded_Group2_IMG_0479.jpg,0,encoded_Group2_IMG_0479.jpg,,,,,,,,,0.0,125.0,125.0,125.0,,,,,,,,,,,,,,,1009.3442289289088,None,,,0,0.0961440810933709,1011.8109310499858,None,1011.8109310499858,None,,,1010.644017405808,None,,,,,1,2022_Apr_12_1103,Real-fake-judgement-flashing-group1,2021.1.2,59.73953215431014,
