,Trial_num,image_path,ground_truth,image_name,demos.thisRepN,demos.thisTrialN,demos.thisN,demos.thisIndex,block1.thisRepN,block1.thisTrialN,block1.thisN,block1.thisIndex,block2.thisRepN,block2.thisTrialN,block2.thisN,block2.thisIndex,block1_rep2.thisRepN,block1_rep2.thisTrialN,block1_rep2.thisN,block1_rep2.thisIndex,block2_rep.thisRepN,block2_rep.thisTrialN,block2_rep.thisN,block2_rep.thisIndex,text_3.started,text_3.stopped,text_4.started,text_4.stopped,text.started,text.stopped,trail_num.started,trail_num.stopped,image_6.started,image_6.stopped,Judgement.keys,Judgement.rt,Judgement.started,Judgement.stopped,text_19.started,text_19.stopped,text_12.started,text_12.stopped,image.started,image.stopped,text_2.started,text_2.stopped,text_13.started,text_13.stopped,text_16.started,text_16.stopped,session,date,expName,psychopyVersion,frameRate
0,Demo 1,demo/Demo_IMG_0974.jpg,demo,Demo_IMG_0974.jpg,0.0,0.0,0.0,0.0,,,,,,,,,,,,,,,,,14.49785659,None,53.04289001,None,58.97811281,None,60.31825592,None,61.68047939,None,1,2.423073019,62.76262948,None,62.76262948,None,,,,,,,,,,,1,2022_Mar_24_1304,Real-fake-judgement-flashing-group1,2021.1.2,60.07179553
1,Demo 2,demo/Demo_IMG_1024.jpg,demo,Demo_IMG_1024.jpg,0.0,1.0,1.0,1.0,,,,,,,,,,,,,,,,,,,,,,,65.21381531,None,66.58182939,None,1,1.752181869,67.68151859,None,67.68151859,None,,,,,,,,,,,1,2022_Mar_24_1304,Real-fake-judgement-flashing-group1,2021.1.2,60.07179553
2,Demo 3,demo/Demo_seed_80003.png,demo,Demo_seed_80003.png,0.0,2.0,2.0,2.0,,,,,,,,,,,,,,,,,,,,,,,69.46463765,None,70.83337298,None,1,1.988649719,71.94905302,None,71.94905302,None,,,,,,,,,,,1,2022_Mar_24_1304,Real-fake-judgement-flashing-group1,2021.1.2,60.07179553
3,Trial # 1,Group1-stimuli/group1-block1/real-group1-b1/Group1_IMG_0022.jpg,1,Group1_IMG_0022.jpg,,,,,0.0,0.0,0.0,0.0,,,,,,,,,,,,,,,,,,,137.470632,None,,,1,4.731331976,139.8863749,None,139.8863749,None,74.44970454,None,138.7531873,None,,,,,,,1,2022_Mar_24_1304,Real-fake-judgement-flashing-group1,2021.1.2,60.07179553
4,Trial # 2,Group1-stimuli/group1-block1/fake-group2-b1/encoded_Group2_IMG_0386.jpg,0,encoded_Group2_IMG_0386.jpg,,,,,0.0,1.0,1.0,1.0,,,,,,,,,,,,,,,,,,,144.6388716,None,,,0,0.886087972,147.1236423,None,147.1236423,None,,,145.9564558,None,,,,,,,1,2022_Mar_24_1304,Real-fake-judgement-flashing-group1,2021.1.2,60.07179553
5,Trial # 3,Group1-stimuli/group1-block1/real-group1-b1/Group1_IMG_9704.jpg,1,Group1_IMG_9704.jpg,,,,,0.0,2.0,2.0,2.0,,,,,,,,,,,,,,,,,,,148.0396729,None,,,1,0.493662078,150.5240381,None,150.5240381,None,,,149.3563848,None,,,,,,,1,2022_Mar_24_1304,Real-fake-judgement-flashing-group1,2021.1.2,60.07179553
6,Trial # 4,Group1-stimuli/group1-block1/real-group1-b1/Group1_IMG_0406.jpg,1,Group1_IMG_0406.jpg,,,,,0.0,3.0,3.0,3.0,,,,,,,,,,,,,,,,,,,151.0406168,None,,,1,0.317219778,153.5244401,None,153.5244401,None,,,152.3584053,None,,,,,,,1,2022_Mar_24_1304,Real-fake-judgement-flashing-group1,2021.1.2,60.07179553
7,Trial # 5,Group1-stimuli/group1-block1/fake-group2-b1/encoded_Group2_IMG_0364.jpg,0,encoded_Group2_IMG_0364.jpg,,,,,0.0,4.0,4.0,4.0,,,,,,,,,,,,,,,,,,,153.8744893,None,,,0,0.307859136,156.3258522,None,156.3258522,None,,,155.1582683,None,,,,,,,1,2022_Mar_24_1304,Real-fake-judgement-flashing-group1,2021.1.2,60.07179553
8,Trial # 6,Group1-stimuli/group1-block1/fake-group2-b1/encoded_Group2_IMG_0407.jpg,0,encoded_Group2_IMG_0407.jpg,,,,,0.0,5.0,5.0,5.0,,,,,,,,,,,,,,,,,,,156.6600785,None,,,1,0.450924905,159.1427146,None,159.1427146,None,,,158.0591726,None,,,,,,,1,2022_Mar_24_1304,Real-fake-judgement-flashing-group1,2021.1.2,60.07179553
9,Trial # 7,Group1-stimuli/group1-block1/real-group1-b1/Group1_IMG_0428.jpg,1,Group1_IMG_0428.jpg,,,,,0.0,6.0,6.0,6.0,,,,,,,,,,,,,,,,,,,159.6264303,None,,,1,0.370679494,162.0950246,None,162.0950246,None,,,160.9279309,None,,,,,,,1,2022_Mar_24_1304,Real-fake-judgement-flashing-group1,2021.1.2,60.07179553
10,Trial # 8,Group1-stimuli/group1-block1/fake-group2-b1/encoded_Group2_IMG_0474.jpg,0,encoded_Group2_IMG_0474.jpg,,,,,0.0,7.0,7.0,7.0,,,,,,,,,,,,,,,,,,,162.4937559,None,,,0,0.343593863,164.9781077,None,164.9781077,None,,,163.8109747,None,,,,,,,1,2022_Mar_24_1304,Real-fake-judgement-flashing-group1,2021.1.2,60.07179553
11,Trial # 9,Group1-stimuli/group1-block1/fake-group2-b1/encoded_Group2_IMG_1506.jpg,0,encoded_Group2_IMG_1506.jpg,,,,,0.0,8.0,8.0,8.0,,,,,,,,,,,,,,,,,,,165.3446529,None,,,0,0.332759453,167.8289591,None,167.8289591,None,,,166.6630728,None,,,,,,,1,2022_Mar_24_1304,Real-fake-judgement-flashing-group1,2021.1.2,60.07179553
12,Trial # 10,Group1-stimuli/group1-block1/real-group1-b1/Group1_IMG_9789.jpg,1,Group1_IMG_9789.jpg,,,,,0.0,9.0,9.0,9.0,,,,,,,,,,,,,,,,,,,168.1790958,None,,,1,0.274566697,170.6471523,None,170.6471523,None,,,169.4961322,None,,,,,,,1,2022_Mar_24_1304,Real-fake-judgement-flashing-group1,2021.1.2,60.07179553
13,Trial # 11,Group1-stimuli/group1-block1/real-group1-b1/Group1_IMG_9778.jpg,1,Group1_IMG_9778.jpg,,,,,0.0,10.0,10.0,10.0,,,,,,,,,,,,,,,,,,,170.9478076,None,,,1,0.266973008,173.4306588,None,173.4306588,None,,,172.2646317,None,,,,,,,1,2022_Mar_24_1304,Real-fake-judgement-flashing-group1,2021.1.2,60.07179553
14,Trial # 12,Group1-stimuli/group1-block1/real-group1-b1/Group1_IMG_9813.jpg,1,Group1_IMG_9813.jpg,,,,,0.0,11.0,11.0,11.0,,,,,,,,,,,,,,,,,,,173.7307666,None,,,1,0.274249215,176.1994539,None,176.1994539,None,,,175.0308383,None,,,,,,,1,2022_Mar_24_1304,Real-fake-judgement-flashing-group1,2021.1.2,60.07179553
15,Trial # 13,Group1-stimuli/group1-block1/real-group1-b1/Group1_IMG_0516.jpg,1,Group1_IMG_0516.jpg,,,,,0.0,12.0,12.0,12.0,,,,,,,,,,,,,,,,,,,176.4997787,None,,,0,0.299563362,178.982162,None,178.982162,None,,,177.8153306,None,,,,,,,1,2022_Mar_24_1304,Real-fake-judgement-flashing-group1,2021.1.2,60.07179553
16,Trial # 14,Group1-stimuli/group1-block1/fake-group2-b1/encoded_Group2_IMG_0038.jpg,0,encoded_Group2_IMG_0038.jpg,,,,,0.0,13.0,13.0,13.0,,,,,,,,,,,,,,,,,,,179.2991505,None,,,1,0.289801994,181.7678483,None,181.7678483,None,,,180.6163552,None,,,,,,,1,2022_Mar_24_1304,Real-fake-judgement-flashing-group1,2021.1.2,60.07179553
17,Trial # 15,Group1-stimuli/group1-block1/real-group1-b1/Group1_IMG_5984.jpg,1,Group1_IMG_5984.jpg,,,,,0.0,14.0,14.0,14.0,,,,,,,,,,,,,,,,,,,182.0842823,None,,,0,0.338148148,184.5675548,None,184.5675548,None,,,183.4003695,None,,,,,,,1,2022_Mar_24_1304,Real-fake-judgement-flashing-group1,2021.1.2,60.07179553
18,Trial # 16,Group1-stimuli/group1-block1/real-group1-b1/Group1_IMG_0383.jpg,1,Group1_IMG_0383.jpg,,,,,0.0,15.0,15.0,15.0,,,,,,,,,,,,,,,,,,,184.9346186,None,,,1,0.319361179,187.4183638,None,187.4183638,None,,,186.2524195,None,,,,,,,1,2022_Mar_24_1304,Real-fake-judgement-flashing-group1,2021.1.2,60.07179553
19,Trial # 17,Group1-stimuli/group1-block1/fake-group2-b1/encoded_Group2_IMG_0456.jpg,0,encoded_Group2_IMG_0456.jpg,,,,,0.0,16.0,16.0,16.0,,,,,,,,,,,,,,,,,,,187.7685081,None,,,0,0.261290526,190.2524106,None,190.2524106,None,,,189.0854329,None,,,,,,,1,2022_Mar_24_1304,Real-fake-judgement-flashing-group1,2021.1.2,60.07179553
20,Trial # 18,Group1-stimuli/group1-block1/fake-group2-b1/encoded_Group2_IMG_8390.jpg,0,encoded_Group2_IMG_8390.jpg,,,,,0.0,17.0,17.0,17.0,,,,,,,,,,,,,,,,,,,190.537108,None,,,1,0.40555248,193.0201493,None,193.0201493,None,,,191.8375199,None,,,,,,,1,2022_Mar_24_1304,Real-fake-judgement-flashing-group1,2021.1.2,60.07179553
21,Trial # 19,Group1-stimuli/group1-block1/real-group1-b1/Group1_IMG_0011.jpg,1,Group1_IMG_0011.jpg,,,,,0.0,18.0,18.0,18.0,,,,,,,,,,,,,,,,,,,193.4538315,None,,,0,0.336347924,195.9213643,None,195.9213643,None,,,194.7705186,None,,,,,,,1,2022_Mar_24_1304,Real-fake-judgement-flashing-group1,2021.1.2,60.07179553
22,Trial # 20,Group1-stimuli/group1-block1/fake-group2-b1/encoded_Group2_IMG_0328.jpg,0,encoded_Group2_IMG_0328.jpg,,,,,0.0,19.0,19.0,19.0,,,,,,,,,,,,,,,,,,,196.2891138,None,,,0,0.31845235,198.7552572,None,198.7552572,None,,,197.5880088,None,,,,,,,1,2022_Mar_24_1304,Real-fake-judgement-flashing-group1,2021.1.2,60.07179553
23,Trial # 21,Group1-stimuli/group1-block1/fake-group2-b1/encoded_Group2_IMG_0163.jpg,0,encoded_Group2_IMG_0163.jpg,,,,,0.0,20.0,20.0,20.0,,,,,,,,,,,,,,,,,,,199.105545,None,,,1,0.291924129,201.5737787,None,201.5737787,None,,,200.4060213,None,,,,,,,1,2022_Mar_24_1304,Real-fake-judgement-flashing-group1,2021.1.2,60.07179553
24,Trial # 22,Group1-stimuli/group1-block1/real-group1-b1/Group1_IMG_9862.jpg,1,Group1_IMG_9862.jpg,,,,,0.0,21.0,21.0,21.0,,,,,,,,,,,,,,,,,,,201.890991,None,,,1,0.651790035,204.3739258,None,204.3739258,None,,,203.2064171,None,,,,,,,1,2022_Mar_24_1304,Real-fake-judgement-flashing-group1,2021.1.2,60.07179553
25,Trial # 23,Group1-stimuli/group1-block1/fake-group2-b1/encoded_Group2_IMG_0296.jpg,0,encoded_Group2_IMG_0296.jpg,,,,,0.0,22.0,22.0,22.0,,,,,,,,,,,,,,,,,,,205.057674,None,,,0,0.308128369,207.5255971,None,207.5255971,None,,,206.3585696,None,,,,,,,1,2022_Mar_24_1304,Real-fake-judgement-flashing-group1,2021.1.2,60.07179553
26,Trial # 24,Group1-stimuli/group1-block1/fake-group2-b1/encoded_Group2_IMG_0503.jpg,0,encoded_Group2_IMG_0503.jpg,,,,,0.0,23.0,23.0,23.0,,,,,,,,,,,,,,,,,,,207.8592015,None,,,1,2.396228708,210.3254812,None,210.3254812,None,,,209.1581989,None,,,,,,,1,2022_Mar_24_1304,Real-fake-judgement-flashing-group1,2021.1.2,60.07179553
27,Trial # 25,Group1-stimuli/group1-block1/fake-group2-b1/encoded_Group2_IMG_9804.jpg,0,encoded_Group2_IMG_9804.jpg,,,,,0.0,24.0,24.0,24.0,,,,,,,,,,,,,,,,,,,212.7428007,None,,,0,0.280378599,215.1933741,None,215.1933741,None,,,214.0264592,None,,,,,,,1,2022_Mar_24_1304,Real-fake-judgement-flashing-group1,2021.1.2,60.07179553
28,Trial # 26,Group1-stimuli/group1-block1/real-group1-b1/Group1_IMG_0391.jpg,1,Group1_IMG_0391.jpg,,,,,0.0,25.0,25.0,25.0,,,,,,,,,,,,,,,,,,,215.4947556,None,,,1,0.232577443,217.9611207,None,217.9611207,None,,,216.7943684,None,,,,,,,1,2022_Mar_24_1304,Real-fake-judgement-flashing-group1,2021.1.2,60.07179553
29,Trial # 27,Group1-stimuli/group1-block1/fake-group2-b1/encoded_Group2_IMG_3584.jpg,0,encoded_Group2_IMG_3584.jpg,,,,,0.0,26.0,26.0,26.0,,,,,,,,,,,,,,,,,,,218.2118604,None,,,0,0.074340549,220.6793623,None,220.6793623,None,,,219.5114314,None,,,,,,,1,2022_Mar_24_1304,Real-fake-judgement-flashing-group1,2021.1.2,60.07179553
30,Trial # 28,Group1-stimuli/group1-block1/fake-group2-b1/encoded_Group2_IMG_0434.jpg,0,encoded_Group2_IMG_0434.jpg,,,,,0.0,27.0,27.0,27.0,,,,,,,,,,,,,,,,,,,220.7789753,None,,,0,0.282943841,223.2627816,None,223.2627816,None,,,222.0970404,None,,,,,,,1,2022_Mar_24_1304,Real-fake-judgement-flashing-group1,2021.1.2,60.07179553
31,Trial # 29,Group1-stimuli/group1-block1/fake-group2-b1/encoded_Group2_IMG_9575.jpg,0,encoded_Group2_IMG_9575.jpg,,,,,0.0,28.0,28.0,28.0,,,,,,,,,,,,,,,,,,,223.5629593,None,,,0,0.714050434,226.031688,None,226.031688,None,,,224.8796405,None,,,,,,,1,2022_Mar_24_1304,Real-fake-judgement-flashing-group1,2021.1.2,60.07179553
32,Trial # 30,Group1-stimuli/group1-block1/fake-group2-b1/encoded_Group2_IMG_1025.jpg,0,encoded_Group2_IMG_1025.jpg,,,,,0.0,29.0,29.0,29.0,,,,,,,,,,,,,,,,,,,226.7650483,None,,,1,0.257877463,229.2478255,None,229.2478255,None,,,228.0808872,None,,,,,,,1,2022_Mar_24_1304,Real-fake-judgement-flashing-group1,2021.1.2,60.07179553
33,Trial # 31,Group1-stimuli/group1-block1/real-group1-b1/Group1_IMG_0502.jpg,1,Group1_IMG_0502.jpg,,,,,0.0,30.0,30.0,30.0,,,,,,,,,,,,,,,,,,,229.531599,None,,,1,0.865661393,232.0000452,None,232.0000452,None,,,230.8495066,None,,,,,,,1,2022_Mar_24_1304,Real-fake-judgement-flashing-group1,2021.1.2,60.07179553
34,Trial # 32,Group1-stimuli/group1-block1/real-group1-b1/Group1_IMG_0182.jpg,1,Group1_IMG_0182.jpg,,,,,0.0,31.0,31.0,31.0,,,,,,,,,,,,,,,,,,,232.882584,None,,,0,0.411031527,235.3666773,None,235.3666773,None,,,234.1994501,None,,,,,,,1,2022_Mar_24_1304,Real-fake-judgement-flashing-group1,2021.1.2,60.07179553
35,Trial # 33,Group1-stimuli/group1-block1/fake-group2-b1/encoded_Group2_IMG_2728.jpg,0,encoded_Group2_IMG_2728.jpg,,,,,0.0,32.0,32.0,32.0,,,,,,,,,,,,,,,,,,,235.8005942,None,,,0,0.405611804,238.2840926,None,238.2840926,None,,,237.1181532,None,,,,,,,1,2022_Mar_24_1304,Real-fake-judgement-flashing-group1,2021.1.2,60.07179553
36,Trial # 34,Group1-stimuli/group1-block1/fake-group2-b1/encoded_Group2_IMG_4867.jpg,0,encoded_Group2_IMG_4867.jpg,,,,,0.0,33.0,33.0,33.0,,,,,,,,,,,,,,,,,,,238.7176338,None,,,0,0.367264063,241.186369,None,241.186369,None,,,240.0179709,None,,,,,,,1,2022_Mar_24_1304,Real-fake-judgement-flashing-group1,2021.1.2,60.07179553
37,Trial # 35,Group1-stimuli/group1-block1/real-group1-b1/Group1_IMG_9894.jpg,1,Group1_IMG_9894.jpg,,,,,0.0,34.0,34.0,34.0,,,,,,,,,,,,,,,,,,,241.5860779,None,,,1,0.285049755,244.0526597,None,244.0526597,None,,,242.8856128,None,,,,,,,1,2022_Mar_24_1304,Real-fake-judgement-flashing-group1,2021.1.2,60.07179553
38,Trial # 36,Group1-stimuli/group1-block1/fake-group2-b1/encoded_Group2_IMG_0444.jpg,0,encoded_Group2_IMG_0444.jpg,,,,,0.0,35.0,35.0,35.0,,,,,,,,,,,,,,,,,,,244.3696324,None,,,1,0.284291273,246.8373017,None,246.8373017,None,,,245.6875695,None,,,,,,,1,2022_Mar_24_1304,Real-fake-judgement-flashing-group1,2021.1.2,60.07179553
39,Trial # 37,Group1-stimuli/group1-block1/real-group1-b1/Group1_IMG_2656.jpg,1,Group1_IMG_2656.jpg,,,,,0.0,36.0,36.0,36.0,,,,,,,,,,,,,,,,,,,247.1534102,None,,,0,0.276146044,249.6375652,None,249.6375652,None,,,248.4704137,None,,,,,,,1,2022_Mar_24_1304,Real-fake-judgement-flashing-group1,2021.1.2,60.07179553
40,Trial # 38,Group1-stimuli/group1-block1/real-group1-b1/Group1_IMG_0207.jpg,1,Group1_IMG_0207.jpg,,,,,0.0,37.0,37.0,37.0,,,,,,,,,,,,,,,,,,,249.9375192,None,,,0,0.387265192,252.4064378,None,252.4064378,None,,,251.2559589,None,,,,,,,1,2022_Mar_24_1304,Real-fake-judgement-flashing-group1,2021.1.2,60.07179553
41,Trial # 39,Group1-stimuli/group1-block1/real-group1-b1/Group1_IMG_9638.jpg,1,Group1_IMG_9638.jpg,,,,,0.0,38.0,38.0,38.0,,,,,,,,,,,,,,,,,,,252.8265181,None,,,1,0.24811425,255.30562,None,255.30562,None,,,254.1556209,None,,,,,,,1,2022_Mar_24_1304,Real-fake-judgement-flashing-group1,2021.1.2,60.07179553
42,Trial # 40,Group1-stimuli/group1-block1/real-group1-b1/Group1_IMG_0148.jpg,1,Group1_IMG_0148.jpg,,,,,0.0,39.0,39.0,39.0,,,,,,,,,,,,,,,,,,,255.5743325,None,,,1,0.328750513,258.0569608,None,258.0569608,None,,,256.8898649,None,,,,,,,1,2022_Mar_24_1304,Real-fake-judgement-flashing-group1,2021.1.2,60.07179553
43,Trial # 41,Group1-stimuli/group1-block1/real-group1-b1/Group1_IMG_2891.jpg,1,Group1_IMG_2891.jpg,,,,,0.0,40.0,40.0,40.0,,,,,,,,,,,,,,,,,,,258.4070947,None,,,0,0.525948055,260.8757623,None,260.8757623,None,,,259.7240086,None,,,,,,,1,2022_Mar_24_1304,Real-fake-judgement-flashing-group1,2021.1.2,60.07179553
44,Trial # 42,Group1-stimuli/group1-block1/real-group1-b1/Group1_IMG_0157.jpg,1,Group1_IMG_0157.jpg,,,,,0.0,41.0,41.0,41.0,,,,,,,,,,,,,,,,,,,261.4259145,None,,,1,0.260956836,263.9087439,None,263.9087439,None,,,262.7425375,None,,,,,,,1,2022_Mar_24_1304,Real-fake-judgement-flashing-group1,2021.1.2,60.07179553
45,Trial # 43,Group1-stimuli/group1-block1/real-group1-b1/Group1_IMG_9833.jpg,1,Group1_IMG_9833.jpg,,,,,0.0,42.0,42.0,42.0,,,,,,,,,,,,,,,,,,,264.1927791,None,,,1,0.507513785,266.6942135,None,266.6942135,None,,,265.5772391,None,,,,,,,1,2022_Mar_24_1304,Real-fake-judgement-flashing-group1,2021.1.2,60.07179553
46,Trial # 44,Group1-stimuli/group1-block1/fake-group2-b1/encoded_Group2_IMG_2230.jpg,0,encoded_Group2_IMG_2230.jpg,,,,,0.0,43.0,43.0,43.0,,,,,,,,,,,,,,,,,,,267.2264414,None,,,0,0.299866711,269.6938476,None,269.6938476,None,,,268.5266466,None,,,,,,,1,2022_Mar_24_1304,Real-fake-judgement-flashing-group1,2021.1.2,60.07179553
47,Trial # 45,Group1-stimuli/group1-block1/real-group1-b1/Group1_IMG_9966.jpg,1,Group1_IMG_9966.jpg,,,,,0.0,44.0,44.0,44.0,,,,,,,,,,,,,,,,,,,270.0105674,None,,,1,0.307837926,272.4778645,None,272.4778645,None,,,271.3122325,None,,,,,,,1,2022_Mar_24_1304,Real-fake-judgement-flashing-group1,2021.1.2,60.07179553
48,Trial # 46,Group1-stimuli/group1-block1/real-group1-b1/Group1_IMG_0239.jpg,1,Group1_IMG_0239.jpg,,,,,0.0,45.0,45.0,45.0,,,,,,,,,,,,,,,,,,,272.8115496,None,,,0,2.178753455,275.2789463,None,275.2789463,None,,,274.1118316,None,,,,,,,1,2022_Mar_24_1304,Real-fake-judgement-flashing-group1,2021.1.2,60.07179553
49,Trial # 47,Group1-stimuli/group1-block1/fake-group2-b1/encoded_Group2_IMG_0536.jpg,0,encoded_Group2_IMG_0536.jpg,,,,,0.0,46.0,46.0,46.0,,,,,,,,,,,,,,,,,,,277.4807047,None,,,0,0.271518138,279.9301932,None,279.9301932,None,,,278.763252,None,,,,,,,1,2022_Mar_24_1304,Real-fake-judgement-flashing-group1,2021.1.2,60.07179553
50,Trial # 48,Group1-stimuli/group1-block1/fake-group2-b1/encoded_Group2_IMG_0521.jpg,0,encoded_Group2_IMG_0521.jpg,,,,,0.0,47.0,47.0,47.0,,,,,,,,,,,,,,,,,,,280.2310189,None,,,1,0.287318506,282.6983832,None,282.6983832,None,,,281.5314667,None,,,,,,,1,2022_Mar_24_1304,Real-fake-judgement-flashing-group1,2021.1.2,60.07179553
51,Trial # 49,Group1-stimuli/group1-block1/fake-group2-b1/encoded_Group2_IMG_9924.jpg,0,encoded_Group2_IMG_9924.jpg,,,,,0.0,48.0,48.0,48.0,,,,,,,,,,,,,,,,,,,283.0157462,None,,,1,0.278147932,285.4835535,None,285.4835535,None,,,284.3149011,None,,,,,,,1,2022_Mar_24_1304,Real-fake-judgement-flashing-group1,2021.1.2,60.07179553
52,Trial # 50,Group1-stimuli/group1-block1/real-group1-b1/Group1_IMG_9730.jpg,1,Group1_IMG_9730.jpg,,,,,0.0,49.0,49.0,49.0,,,,,,,,,,,,,,,,,,,285.7835071,None,,,1,0.279307244,288.2663944,None,288.2663944,None,,,287.1003807,None,,,,,,,1,2022_Mar_24_1304,Real-fake-judgement-flashing-group1,2021.1.2,60.07179553
53,Trial # 51,Group1-stimuli/group1-block1/real-group1-b1/Group1_IMG_0053.jpg,1,Group1_IMG_0053.jpg,,,,,0.0,50.0,50.0,50.0,,,,,,,,,,,,,,,,,,,288.5664958,None,,,1,0.031253955,291.0343441,None,291.0343441,None,,,289.8664401,None,,,,,,,1,2022_Mar_24_1304,Real-fake-judgement-flashing-group1,2021.1.2,60.07179553
54,Trial # 52,Group1-stimuli/group1-block1/real-group1-b1/Group1_IMG_9698.jpg,1,Group1_IMG_9698.jpg,,,,,0.0,51.0,51.0,51.0,,,,,,,,,,,,,,,,,,,291.0843653,None,,,1,0.314320723,293.5514075,None,293.5514075,None,,,292.384158,None,,,,,,,1,2022_Mar_24_1304,Real-fake-judgement-flashing-group1,2021.1.2,60.07179553
55,Trial # 53,Group1-stimuli/group1-block1/fake-group2-b1/encoded_Group2_IMG_0553.jpg,0,encoded_Group2_IMG_0553.jpg,,,,,0.0,52.0,52.0,52.0,,,,,,,,,,,,,,,,,,,293.8848101,None,,,0,0.408977391,296.3526415,None,296.3526415,None,,,295.1849156,None,,,,,,,1,2022_Mar_24_1304,Real-fake-judgement-flashing-group1,2021.1.2,60.07179553
56,Trial # 54,Group1-stimuli/group1-block1/fake-group2-b1/encoded_Group2_IMG_9758.jpg,0,encoded_Group2_IMG_9758.jpg,,,,,0.0,53.0,53.0,53.0,,,,,,,,,,,,,,,,,,,296.7869515,None,,,1,0.619903082,299.2697998,None,299.2697998,None,,,298.1026077,None,,,,,,,1,2022_Mar_24_1304,Real-fake-judgement-flashing-group1,2021.1.2,60.07179553
57,Trial # 55,Group1-stimuli/group1-block1/fake-group2-b1/encoded_Group2_IMG_0339.jpg,0,encoded_Group2_IMG_0339.jpg,,,,,0.0,54.0,54.0,54.0,,,,,,,,,,,,,,,,,,,299.9202223,None,,,0,0.38115714,302.4044649,None,302.4044649,None,,,301.2215328,None,,,,,,,1,2022_Mar_24_1304,Real-fake-judgement-flashing-group1,2021.1.2,60.07179553
58,Trial # 56,Group1-stimuli/group1-block1/real-group1-b1/Group1_IMG_0314.jpg,1,Group1_IMG_0314.jpg,,,,,0.0,55.0,55.0,55.0,,,,,,,,,,,,,,,,,,,302.8041529,None,,,1,0.394239176,305.2714599,None,305.2714599,None,,,304.1210339,None,,,,,,,1,2022_Mar_24_1304,Real-fake-judgement-flashing-group1,2021.1.2,60.07179553
59,Trial # 57,Group1-stimuli/group1-block1/fake-group2-b1/encoded_Group2_IMG_0532.jpg,0,encoded_Group2_IMG_0532.jpg,,,,,0.0,56.0,56.0,56.0,,,,,,,,,,,,,,,,,,,305.689581,None,,,1,0.277764324,308.1559379,None,308.1559379,None,,,306.9899017,None,,,,,,,1,2022_Mar_24_1304,Real-fake-judgement-flashing-group1,2021.1.2,60.07179553
60,Trial # 58,Group1-stimuli/group1-block1/fake-group2-b1/encoded_Group2_IMG_0462.jpg,0,encoded_Group2_IMG_0462.jpg,,,,,0.0,57.0,57.0,57.0,,,,,,,,,,,,,,,,,,,308.4558014,None,,,0,0.30911215,310.9245774,None,310.9245774,None,,,309.7565604,None,,,,,,,1,2022_Mar_24_1304,Real-fake-judgement-flashing-group1,2021.1.2,60.07179553
61,Trial # 59,Group1-stimuli/group1-block1/real-group1-b1/Group1_IMG_0172.jpg,1,Group1_IMG_0172.jpg,,,,,0.0,58.0,58.0,58.0,,,,,,,,,,,,,,,,,,,311.2572442,None,,,1,0.244688561,313.7410214,None,313.7410214,None,,,312.5737843,None,,,,,,,1,2022_Mar_24_1304,Real-fake-judgement-flashing-group1,2021.1.2,60.07179553
62,Trial # 60,Group1-stimuli/group1-block1/real-group1-b1/Group1_IMG_4841.jpg,1,Group1_IMG_4841.jpg,,,,,0.0,59.0,59.0,59.0,,,,,,,,,,,,,,,,,,,314.0080393,None,,,1,0.309443331,316.4762587,None,316.4762587,None,,,315.3246522,None,,,,,,,1,2022_Mar_24_1304,Real-fake-judgement-flashing-group1,2021.1.2,60.07179553
63,Trial # 61,Group1-stimuli/group1-block1/fake-group2-b1/encoded_Group2_IMG_0352.jpg,0,encoded_Group2_IMG_0352.jpg,,,,,0.0,60.0,60.0,60.0,,,,,,,,,,,,,,,,,,,316.8098586,None,,,0,1.709223142,319.2924218,None,319.2924218,None,,,318.1258354,None,,,,,,,1,2022_Mar_24_1304,Real-fake-judgement-flashing-group1,2021.1.2,60.07179553
64,Trial # 62,Group1-stimuli/group1-block1/fake-group2-b1/encoded_Group2_IMG_9726.jpg,0,encoded_Group2_IMG_9726.jpg,,,,,0.0,61.0,61.0,61.0,,,,,,,,,,,,,,,,,,,321.0275721,None,,,0,0.339669858,323.4940396,None,323.4940396,None,,,322.3268226,None,,,,,,,1,2022_Mar_24_1304,Real-fake-judgement-flashing-group1,2021.1.2,60.07179553
65,Trial # 63,Group1-stimuli/group1-block1/fake-group2-b1/encoded_Group2_IMG_9785.jpg,0,encoded_Group2_IMG_9785.jpg,,,,,0.0,62.0,62.0,62.0,,,,,,,,,,,,,,,,,,,323.8604109,None,,,0,0.256471518,326.3292324,None,326.3292324,None,,,325.1610412,None,,,,,,,1,2022_Mar_24_1304,Real-fake-judgement-flashing-group1,2021.1.2,60.07179553
66,Trial # 64,Group1-stimuli/group1-block1/fake-group2-b1/encoded_Group2_IMG_0440.jpg,0,encoded_Group2_IMG_0440.jpg,,,,,0.0,63.0,63.0,63.0,,,,,,,,,,,,,,,,,,,326.6118898,None,,,0,0.69936393,329.0623479,None,329.0623479,None,,,327.8959595,None,,,,,,,1,2022_Mar_24_1304,Real-fake-judgement-flashing-group1,2021.1.2,60.07179553
67,Trial # 65,Group1-stimuli/group1-block1/fake-group2-b1/encoded_Group2_IMG_1695.jpg,0,encoded_Group2_IMG_1695.jpg,,,,,0.0,64.0,64.0,64.0,,,,,,,,,,,,,,,,,,,329.778603,None,,,0,0.32314004,332.2465636,None,332.2465636,None,,,331.0640377,None,,,,,,,1,2022_Mar_24_1304,Real-fake-judgement-flashing-group1,2021.1.2,60.07179553
68,Trial # 66,Group1-stimuli/group1-block1/real-group1-b1/Group1_IMG_0552.jpg,1,Group1_IMG_0552.jpg,,,,,0.0,65.0,65.0,65.0,,,,,,,,,,,,,,,,,,,332.5968876,None,,,1,0.297468008,335.0642245,None,335.0642245,None,,,333.8977292,None,,,,,,,1,2022_Mar_24_1304,Real-fake-judgement-flashing-group1,2021.1.2,60.07179553
69,Trial # 67,Group1-stimuli/group1-block1/real-group1-b1/Group1_IMG_1029.jpg,1,Group1_IMG_1029.jpg,,,,,0.0,66.0,66.0,66.0,,,,,,,,,,,,,,,,,,,335.3806896,None,,,1,0.433225533,337.8484755,None,337.8484755,None,,,336.6824262,None,,,,,,,1,2022_Mar_24_1304,Real-fake-judgement-flashing-group1,2021.1.2,60.07179553
70,Trial # 68,Group1-stimuli/group1-block1/fake-group2-b1/encoded_Group2_IMG_6517.jpg,0,encoded_Group2_IMG_6517.jpg,,,,,0.0,67.0,67.0,67.0,,,,,,,,,,,,,,,,,,,338.2985303,None,,,1,0.283282743,340.7664289,None,340.7664289,None,,,339.5987563,None,,,,,,,1,2022_Mar_24_1304,Real-fake-judgement-flashing-group1,2021.1.2,60.07179553
71,Trial # 69,Group1-stimuli/group1-block1/fake-group2-b1/encoded_Group2_IMG_0002.jpg,0,encoded_Group2_IMG_0002.jpg,,,,,0.0,68.0,68.0,68.0,,,,,,,,,,,,,,,,,,,341.067291,None,,,1,0.428215347,343.5334864,None,343.5334864,None,,,342.3663974,None,,,,,,,1,2022_Mar_24_1304,Real-fake-judgement-flashing-group1,2021.1.2,60.07179553
72,Trial # 70,Group1-stimuli/group1-block1/real-group1-b1/Group1_IMG_0495.jpg,1,Group1_IMG_0495.jpg,,,,,0.0,69.0,69.0,69.0,,,,,,,,,,,,,,,,,,,343.9835452,None,,,0,4.48555533,346.4520805,None,346.4520805,None,,,345.3005164,None,,,,,,,1,2022_Mar_24_1304,Real-fake-judgement-flashing-group1,2021.1.2,60.07179553
73,Trial # 71,Group1-stimuli/group1-block1/real-group1-b1/Group1_IMG_1391.jpg,1,Group1_IMG_1391.jpg,,,,,0.0,70.0,70.0,70.0,,,,,,,,,,,,,,,,,,,350.9704358,None,,,1,0.380450088,353.4532605,None,353.4532605,None,,,352.2860963,None,,,,,,,1,2022_Mar_24_1304,Real-fake-judgement-flashing-group1,2021.1.2,60.07179553
74,Trial # 72,Group1-stimuli/group1-block1/real-group1-b1/Group1_IMG_0343.jpg,1,Group1_IMG_0343.jpg,,,,,0.0,71.0,71.0,71.0,,,,,,,,,,,,,,,,,,,353.8533617,None,,,1,1.728550536,356.3211511,None,356.3211511,None,,,355.170446,None,,,,,,,1,2022_Mar_24_1304,Real-fake-judgement-flashing-group1,2021.1.2,60.07179553
75,Trial # 73,Group1-stimuli/group1-block1/fake-group2-b1/encoded_Group2_IMG_9810.jpg,0,encoded_Group2_IMG_9810.jpg,,,,,0.0,72.0,72.0,72.0,,,,,,,,,,,,,,,,,,,358.071238,None,,,0,4.613428957,360.5402874,None,360.5402874,None,,,359.3715763,None,,,,,,,1,2022_Mar_24_1304,Real-fake-judgement-flashing-group1,2021.1.2,60.07179553
76,Trial # 74,Group1-stimuli/group1-block1/fake-group2-b1/encoded_Group2_IMG_5900.jpg,0,encoded_Group2_IMG_5900.jpg,,,,,0.0,73.0,73.0,73.0,,,,,,,,,,,,,,,,,,,365.1735665,None,,,0,0.849297344,367.6243961,None,367.6243961,None,,,366.4580052,None,,,,,,,1,2022_Mar_24_1304,Real-fake-judgement-flashing-group1,2021.1.2,60.07179553
77,Trial # 75,Group1-stimuli/group1-block1/real-group1-b1/Group1_IMG_9679.jpg,1,Group1_IMG_9679.jpg,,,,,0.0,74.0,74.0,74.0,,,,,,,,,,,,,,,,,,,368.4916016,None,,,0,0.482600567,370.9591122,None,370.9591122,None,,,369.8242968,None,,,,,,,1,2022_Mar_24_1304,Real-fake-judgement-flashing-group1,2021.1.2,60.07179553
78,Trial # 76,Group1-stimuli/group1-block1/fake-group2-b1/encoded_Group2_IMG_4249.jpg,0,encoded_Group2_IMG_4249.jpg,,,,,0.0,75.0,75.0,75.0,,,,,,,,,,,,,,,,,,,371.4588469,None,,,0,0.451454486,373.9262123,None,373.9262123,None,,,372.7600106,None,,,,,,,1,2022_Mar_24_1304,Real-fake-judgement-flashing-group1,2021.1.2,60.07179553
79,Trial # 77,Group1-stimuli/group1-block1/fake-group2-b1/encoded_Group2_IMG_0174.jpg,0,encoded_Group2_IMG_0174.jpg,,,,,0.0,76.0,76.0,76.0,,,,,,,,,,,,,,,,,,,374.4101221,None,,,0,0.444084313,376.8616168,None,376.8616168,None,,,375.6945156,None,,,,,,,1,2022_Mar_24_1304,Real-fake-judgement-flashing-group1,2021.1.2,60.07179553
80,Trial # 78,Group1-stimuli/group1-block1/fake-group2-b1/encoded_Group2_IMG_0475.jpg,0,encoded_Group2_IMG_0475.jpg,,,,,0.0,77.0,77.0,77.0,,,,,,,,,,,,,,,,,,,377.3271844,None,,,0,0.39941248,379.794299,None,379.794299,None,,,378.6108583,None,,,,,,,1,2022_Mar_24_1304,Real-fake-judgement-flashing-group1,2021.1.2,60.07179553
81,Trial # 79,Group1-stimuli/group1-block1/fake-group2-b1/encoded_Group2_IMG_9751.jpg,0,encoded_Group2_IMG_9751.jpg,,,,,0.0,78.0,78.0,78.0,,,,,,,,,,,,,,,,,,,380.2115597,None,,,0,0.314761511,382.6788521,None,382.6788521,None,,,381.5129761,None,,,,,,,1,2022_Mar_24_1304,Real-fake-judgement-flashing-group1,2021.1.2,60.07179553
82,Trial # 80,Group1-stimuli/group1-block1/fake-group2-b1/encoded_Group2_IMG_0492.jpg,0,encoded_Group2_IMG_0492.jpg,,,,,0.0,79.0,79.0,79.0,,,,,,,,,,,,,,,,,,,383.0122603,None,,,0,0.417354378,385.4802958,None,385.4802958,None,,,384.3126816,None,,,,,,,1,2022_Mar_24_1304,Real-fake-judgement-flashing-group1,2021.1.2,60.07179553
83,Trial # 81,Group1-stimuli/group1-block1/real-group1-b1/Group1_IMG_0535.jpg,1,Group1_IMG_0535.jpg,,,,,0.0,80.0,80.0,80.0,,,,,,,,,,,,,,,,,,,385.9301787,None,,,1,0.282882302,388.4147471,None,388.4147471,None,,,387.2469534,None,,,,,,,1,2022_Mar_24_1304,Real-fake-judgement-flashing-group1,2021.1.2,60.07179553
84,Trial # 82,Group1-stimuli/group1-block1/real-group1-b1/Group1_IMG_0077.jpg,1,Group1_IMG_0077.jpg,,,,,0.0,81.0,81.0,81.0,,,,,,,,,,,,,,,,,,,388.7308355,None,,,0,0.578931391,391.1987718,None,391.1987718,None,,,390.0311412,None,,,,,,,1,2022_Mar_24_1304,Real-fake-judgement-flashing-group1,2021.1.2,60.07179553
85,Trial # 83,Group1-stimuli/group1-block1/fake-group2-b1/encoded_Group2_IMG_9702.jpg,0,encoded_Group2_IMG_9702.jpg,,,,,0.0,82.0,82.0,82.0,,,,,,,,,,,,,,,,,,,391.7995678,None,,,0,0.320576746,394.2491267,None,394.2491267,None,,,393.0820214,None,,,,,,,1,2022_Mar_24_1304,Real-fake-judgement-flashing-group1,2021.1.2,60.07179553
86,Trial # 84,Group1-stimuli/group1-block1/real-group1-b1/Group1_IMG_0357.jpg,1,Group1_IMG_0357.jpg,,,,,0.0,83.0,83.0,83.0,,,,,,,,,,,,,,,,,,,394.5992516,None,,,1,0.30200526,397.0676976,None,397.0676976,None,,,395.9007752,None,,,,,,,1,2022_Mar_24_1304,Real-fake-judgement-flashing-group1,2021.1.2,60.07179553
87,Trial # 85,Group1-stimuli/group1-block1/real-group1-b1/Group1_IMG_9772.jpg,1,Group1_IMG_9772.jpg,,,,,0.0,84.0,84.0,84.0,,,,,,,,,,,,,,,,,,,397.4005267,None,,,1,0.341348522,399.884352,None,399.884352,None,,,398.7172729,None,,,,,,,1,2022_Mar_24_1304,Real-fake-judgement-flashing-group1,2021.1.2,60.07179553
88,Trial # 86,Group1-stimuli/group1-block1/real-group1-b1/Group1_IMG_0482.jpg,1,Group1_IMG_0482.jpg,,,,,0.0,85.0,85.0,85.0,,,,,,,,,,,,,,,,,,,400.2506842,None,,,0,0.674073943,402.7196373,None,402.7196373,None,,,401.5690403,None,,,,,,,1,2022_Mar_24_1304,Real-fake-judgement-flashing-group1,2021.1.2,60.07179553
89,Trial # 87,Group1-stimuli/group1-block1/real-group1-b1/Group1_IMG_0299.jpg,1,Group1_IMG_0299.jpg,,,,,0.0,86.0,86.0,86.0,,,,,,,,,,,,,,,,,,,403.4185734,None,,,1,0.242520785,405.887182,None,405.887182,None,,,404.7189332,None,,,,,,,1,2022_Mar_24_1304,Real-fake-judgement-flashing-group1,2021.1.2,60.07179553
90,Trial # 88,Group1-stimuli/group1-block1/fake-group2-b1/encoded_Group2_IMG_0301.jpg,0,encoded_Group2_IMG_0301.jpg,,,,,0.0,87.0,87.0,87.0,,,,,,,,,,,,,,,,,,,406.1539471,None,,,0,0.349338396,408.6203733,None,408.6203733,None,,,407.4531665,None,,,,,,,1,2022_Mar_24_1304,Real-fake-judgement-flashing-group1,2021.1.2,60.07179553
91,Trial # 89,Group1-stimuli/group1-block1/fake-group2-b1/encoded_Group2_IMG_5136.jpg,0,encoded_Group2_IMG_5136.jpg,,,,,0.0,88.0,88.0,88.0,,,,,,,,,,,,,,,,,,,408.9876925,None,,,1,0.298004294,411.4716948,None,411.4716948,None,,,410.2872884,None,,,,,,,1,2022_Mar_24_1304,Real-fake-judgement-flashing-group1,2021.1.2,60.07179553
92,Trial # 90,Group1-stimuli/group1-block1/real-group1-b1/Group1_IMG_0460.jpg,1,Group1_IMG_0460.jpg,,,,,0.0,89.0,89.0,89.0,,,,,,,,,,,,,,,,,,,411.7891252,None,,,1,0.281554103,414.2721373,None,414.2721373,None,,,413.1048695,None,,,,,,,1,2022_Mar_24_1304,Real-fake-judgement-flashing-group1,2021.1.2,60.07179553
93,Trial # 91,Group1-stimuli/group1-block1/fake-group2-b1/encoded_Group2_IMG_0068.jpg,0,encoded_Group2_IMG_0068.jpg,,,,,0.0,90.0,90.0,90.0,,,,,,,,,,,,,,,,,,,414.5715793,None,,,0,0.489316425,417.0403863,None,417.0403863,None,,,415.8733424,None,,,,,,,1,2022_Mar_24_1304,Real-fake-judgement-flashing-group1,2021.1.2,60.07179553
94,Trial # 92,Group1-stimuli/group1-block1/real-group1-b1/Group1_IMG_0337.jpg,1,Group1_IMG_0337.jpg,,,,,0.0,91.0,91.0,91.0,,,,,,,,,,,,,,,,,,,417.5567983,None,,,1,1.44979436,420.0239298,None,420.0239298,None,,,418.8564568,None,,,,,,,1,2022_Mar_24_1304,Real-fake-judgement-flashing-group1,2021.1.2,60.07179553
95,Trial # 93,Group1-stimuli/group1-block1/fake-group2-b1/encoded_Group2_IMG_0346.jpg,0,encoded_Group2_IMG_0346.jpg,,,,,0.0,92.0,92.0,92.0,,,,,,,,,,,,,,,,,,,421.4909819,None,,,0,0.690566751,423.9591334,None,423.9591334,None,,,422.7745854,None,,,,,,,1,2022_Mar_24_1304,Real-fake-judgement-flashing-group1,2021.1.2,60.07179553
96,Trial # 94,Group1-stimuli/group1-block1/real-group1-b1/Group1_IMG_4253.jpg,1,Group1_IMG_4253.jpg,,,,,0.0,93.0,93.0,93.0,,,,,,,,,,,,,,,,,,,424.6752356,None,,,0,0.601729643,427.1439734,None,427.1439734,None,,,425.9931931,None,,,,,,,1,2022_Mar_24_1304,Real-fake-judgement-flashing-group1,2021.1.2,60.07179553
97,Trial # 95,Group1-stimuli/group1-block1/fake-group2-b1/encoded_Group2_IMG_9280.jpg,0,encoded_Group2_IMG_9280.jpg,,,,,0.0,94.0,94.0,94.0,,,,,,,,,,,,,,,,,,,427.7763517,None,,,0,6.086038658,430.2436729,None,430.2436729,None,,,429.0598562,None,,,,,,,1,2022_Mar_24_1304,Real-fake-judgement-flashing-group1,2021.1.2,60.07179553
98,Trial # 96,Group1-stimuli/group1-block1/real-group1-b1/Group1_IMG_0417.jpg,1,Group1_IMG_0417.jpg,,,,,0.0,95.0,95.0,95.0,,,,,,,,,,,,,,,,,,,436.3456855,None,,,0,1.123886811,438.8298135,None,438.8298135,None,,,437.6626479,None,,,,,,,1,2022_Mar_24_1304,Real-fake-judgement-flashing-group1,2021.1.2,60.07179553
99,Trial # 97,Group1-stimuli/group1-block1/fake-group2-b1/encoded_Group2_IMG_9695.jpg,0,encoded_Group2_IMG_9695.jpg,,,,,0.0,96.0,96.0,96.0,,,,,,,,,,,,,,,,,,,439.9791949,None,,,0,0.626295408,442.447406,None,442.447406,None,,,441.264541,None,,,,,,,1,2022_Mar_24_1304,Real-fake-judgement-flashing-group1,2021.1.2,60.07179553
100,Trial # 98,Group1-stimuli/group1-block1/real-group1-b1/Group1_IMG_1160.jpg,1,Group1_IMG_1160.jpg,,,,,0.0,97.0,97.0,97.0,,,,,,,,,,,,,,,,,,,443.0975368,None,,,0,0.58664267,445.5830607,None,445.5830607,None,,,444.4147507,None,,,,,,,1,2022_Mar_24_1304,Real-fake-judgement-flashing-group1,2021.1.2,60.07179553
101,Trial # 99,Group1-stimuli/group1-block1/real-group1-b1/Group1_IMG_0448.jpg,1,Group1_IMG_0448.jpg,,,,,0.0,98.0,98.0,98.0,,,,,,,,,,,,,,,,,,,446.1997141,None,,,0,0.487769675,448.6659334,None,448.6659334,None,,,447.4989501,None,,,,,,,1,2022_Mar_24_1304,Real-fake-judgement-flashing-group1,2021.1.2,60.07179553
102,Trial # 100,Group1-stimuli/group1-block1/fake-group2-b1/encoded_Group2_IMG_0393.jpg,0,encoded_Group2_IMG_0393.jpg,,,,,0.0,99.0,99.0,99.0,,,,,,,,,,,,,,,,,,,449.1827821,None,,,0,0.639335165,451.650368,None,451.650368,None,,,450.4843947,None,,,,,,,1,2022_Mar_24_1304,Real-fake-judgement-flashing-group1,2021.1.2,60.07179553
103,Trial # 101,Group1-stimuli/group1-block1/real-group1-b1/Group1_IMG_0090.jpg,1,Group1_IMG_0090.jpg,,,,,0.0,100.0,100.0,100.0,,,,,,,,,,,,,,,,,,,452.3181461,None,,,1,0.368923862,454.8007811,None,454.8007811,None,,,453.6508041,None,,,,,,,1,2022_Mar_24_1304,Real-fake-judgement-flashing-group1,2021.1.2,60.07179553
104,Trial # 102,Group1-stimuli/group1-block1/real-group1-b1/Group1_IMG_0310.jpg,1,Group1_IMG_0310.jpg,,,,,0.0,101.0,101.0,101.0,,,,,,,,,,,,,,,,,,,455.2012447,None,,,0,0.804255091,457.6854466,None,457.6854466,None,,,456.519705,None,,,,,,,1,2022_Mar_24_1304,Real-fake-judgement-flashing-group1,2021.1.2,60.07179553
105,Trial # 103,Group1-stimuli/group1-block1/fake-group2-b1/encoded_Group2_IMG_0528.jpg,0,encoded_Group2_IMG_0528.jpg,,,,,0.0,102.0,102.0,102.0,,,,,,,,,,,,,,,,,,,458.5192174,None,,,0,0.517740999,460.9878864,None,460.9878864,None,,,459.8194068,None,,,,,,,1,2022_Mar_24_1304,Real-fake-judgement-flashing-group1,2021.1.2,60.07179553
106,Trial # 104,Group1-stimuli/group1-block1/fake-group2-b1/encoded_Group2_IMG_1975.jpg,0,encoded_Group2_IMG_1975.jpg,,,,,0.0,103.0,103.0,103.0,,,,,,,,,,,,,,,,,,,461.53704,None,,,0,0.406154615,463.9875353,None,463.9875353,None,,,462.820442,None,,,,,,,1,2022_Mar_24_1304,Real-fake-judgement-flashing-group1,2021.1.2,60.07179553
107,Trial # 105,Group1-stimuli/group1-block1/fake-group2-b1/encoded_Group2_IMG_0052.jpg,0,encoded_Group2_IMG_0052.jpg,,,,,0.0,104.0,104.0,104.0,,,,,,,,,,,,,,,,,,,464.4215924,None,,,0,0.864121225,466.8895905,None,466.8895905,None,,,465.7222549,None,,,,,,,1,2022_Mar_24_1304,Real-fake-judgement-flashing-group1,2021.1.2,60.07179553
108,Trial # 106,Group1-stimuli/group1-block1/fake-group2-b1/encoded_Group2_IMG_0225.jpg,0,encoded_Group2_IMG_0225.jpg,,,,,0.0,105.0,105.0,105.0,,,,,,,,,,,,,,,,,,,467.7718384,None,,,0,0.35392951,470.2557734,None,470.2557734,None,,,469.0889822,None,,,,,,,1,2022_Mar_24_1304,Real-fake-judgement-flashing-group1,2021.1.2,60.07179553
109,Trial # 107,Group1-stimuli/group1-block1/real-group1-b1/Group1_IMG_2231.jpg,1,Group1_IMG_2231.jpg,,,,,0.0,106.0,106.0,106.0,,,,,,,,,,,,,,,,,,,470.6408434,None,,,1,0.285433376,473.1402738,None,473.1402738,None,,,471.956308,None,,,,,,,1,2022_Mar_24_1304,Real-fake-judgement-flashing-group1,2021.1.2,60.07179553
110,Trial # 108,Group1-stimuli/group1-block1/real-group1-b1/Group1_IMG_0217.jpg,1,Group1_IMG_0217.jpg,,,,,0.0,107.0,107.0,107.0,,,,,,,,,,,,,,,,,,,473.458048,None,,,1,0.276738507,475.9249632,None,475.9249632,None,,,474.7740678,None,,,,,,,1,2022_Mar_24_1304,Real-fake-judgement-flashing-group1,2021.1.2,60.07179553
111,Trial # 109,Group1-stimuli/group1-block1/real-group1-b1/Group1_IMG_0264.jpg,1,Group1_IMG_0264.jpg,,,,,0.0,108.0,108.0,108.0,,,,,,,,,,,,,,,,,,,476.2258307,None,,,1,0.212893659,478.7088059,None,478.7088059,None,,,477.5582784,None,,,,,,,1,2022_Mar_24_1304,Real-fake-judgement-flashing-group1,2021.1.2,60.07179553
112,Trial # 110,Group1-stimuli/group1-block1/fake-group2-b1/encoded_Group2_IMG_0254.jpg,0,encoded_Group2_IMG_0254.jpg,,,,,0.0,109.0,109.0,109.0,,,,,,,,,,,,,,,,,,,478.9417621,None,,,0,0.319996972,481.4097382,None,481.4097382,None,,,480.2418536,None,,,,,,,1,2022_Mar_24_1304,Real-fake-judgement-flashing-group1,2021.1.2,60.07179553
113,Trial # 111,Group1-stimuli/group1-block1/fake-group2-b1/encoded_Group2_IMG_5433.jpg,0,encoded_Group2_IMG_5433.jpg,,,,,0.0,110.0,110.0,110.0,,,,,,,,,,,,,,,,,,,481.7609195,None,,,0,0.502715342,484.2269999,None,484.2269999,None,,,483.0598218,None,,,,,,,1,2022_Mar_24_1304,Real-fake-judgement-flashing-group1,2021.1.2,60.07179553
114,Trial # 112,Group1-stimuli/group1-block1/real-group1-b1/Group1_IMG_0252.jpg,1,Group1_IMG_0252.jpg,,,,,0.0,111.0,111.0,111.0,,,,,,,,,,,,,,,,,,,484.7606704,None,,,0,0.260963864,487.244734,None,487.244734,None,,,486.0786773,None,,,,,,,1,2022_Mar_24_1304,Real-fake-judgement-flashing-group1,2021.1.2,60.07179553
115,Trial # 113,Group1-stimuli/group1-block1/real-group1-b1/Group1_IMG_9720.jpg,1,Group1_IMG_9720.jpg,,,,,0.0,112.0,112.0,112.0,,,,,,,,,,,,,,,,,,,487.5285484,None,,,1,0.261504281,490.0122085,None,490.0122085,None,,,488.8449977,None,,,,,,,1,2022_Mar_24_1304,Real-fake-judgement-flashing-group1,2021.1.2,60.07179553
116,Trial # 114,Group1-stimuli/group1-block1/fake-group2-b1/encoded_Group2_IMG_0550.jpg,0,encoded_Group2_IMG_0550.jpg,,,,,0.0,113.0,113.0,113.0,,,,,,,,,,,,,,,,,,,490.2957668,None,,,0,0.423250929,492.7464513,None,492.7464513,None,,,491.5804574,None,,,,,,,1,2022_Mar_24_1304,Real-fake-judgement-flashing-group1,2021.1.2,60.07179553
117,Trial # 115,Group1-stimuli/group1-block1/real-group1-b1/Group1_IMG_9915.jpg,1,Group1_IMG_9915.jpg,,,,,0.0,114.0,114.0,114.0,,,,,,,,,,,,,,,,,,,493.1966712,None,,,1,0.480654124,495.6650178,None,495.6650178,None,,,494.5134056,None,,,,,,,1,2022_Mar_24_1304,Real-fake-judgement-flashing-group1,2021.1.2,60.07179553
118,Trial # 116,Group1-stimuli/group1-block1/real-group1-b1/Group1_IMG_9850.jpg,1,Group1_IMG_9850.jpg,,,,,0.0,115.0,115.0,115.0,,,,,,,,,,,,,,,,,,,496.1652434,None,,,1,0.362116695,498.6315919,None,498.6315919,None,,,497.4644218,None,,,,,,,1,2022_Mar_24_1304,Real-fake-judgement-flashing-group1,2021.1.2,60.07179553
119,Trial # 117,Group1-stimuli/group1-block1/real-group1-b1/Group1_IMG_3579.jpg,1,Group1_IMG_3579.jpg,,,,,0.0,116.0,116.0,116.0,,,,,,,,,,,,,,,,,,,499.0146199,None,,,1,3.030903304,501.4828006,None,501.4828006,None,,,500.3152724,None,,,,,,,1,2022_Mar_24_1304,Real-fake-judgement-flashing-group1,2021.1.2,60.07179553
120,Trial # 118,Group1-stimuli/group1-block1/fake-group2-b1/encoded_Group2_IMG_0377.jpg,0,encoded_Group2_IMG_0377.jpg,,,,,0.0,117.0,117.0,117.0,,,,,,,,,,,,,,,,,,,504.533486,None,,,0,0.753019613,507.0006833,None,507.0006833,None,,,505.8515701,None,,,,,,,1,2022_Mar_24_1304,Real-fake-judgement-flashing-group1,2021.1.2,60.07179553
121,Trial # 119,Group1-stimuli/group1-block1/real-group1-b1/Group1_IMG_0469.jpg,1,Group1_IMG_0469.jpg,,,,,0.0,118.0,118.0,118.0,,,,,,,,,,,,,,,,,,,507.784516,None,,,1,0.653375693,510.2683856,None,510.2683856,None,,,509.1013062,None,,,,,,,1,2022_Mar_24_1304,Real-fake-judgement-flashing-group1,2021.1.2,60.07179553
122,Trial # 120,Group1-stimuli/group1-block1/fake-group2-b1/encoded_Group2_IMG_0100.jpg,0,encoded_Group2_IMG_0100.jpg,,,,,0.0,119.0,119.0,119.0,,,,,,,,,,,,,,,,,,,510.9523195,None,,,0,0.98239931,513.4192329,None,513.4192329,None,,,512.2534809,None,,,,,,,1,2022_Mar_24_1304,Real-fake-judgement-flashing-group1,2021.1.2,60.07179553
123,Trial # 121,Group1-stimuli/group1-block1/real-group1-b1/Group1_IMG_5359.jpg,1,Group1_IMG_5359.jpg,,,,,0.0,120.0,120.0,120.0,,,,,,,,,,,,,,,,,,,514.4198244,None,,,0,1.033314563,516.8883153,None,516.8883153,None,,,515.7204404,None,,,,,,,1,2022_Mar_24_1304,Real-fake-judgement-flashing-group1,2021.1.2,60.07179553
124,Trial # 122,Group1-stimuli/group1-block1/fake-group2-b1/encoded_Group2_IMG_0304.jpg,0,encoded_Group2_IMG_0304.jpg,,,,,0.0,121.0,121.0,121.0,,,,,,,,,,,,,,,,,,,517.9542034,None,,,0,0.460192621,520.421508,None,520.421508,None,,,519.2552073,None,,,,,,,1,2022_Mar_24_1304,Real-fake-judgement-flashing-group1,2021.1.2,60.07179553
125,Trial # 123,Group1-stimuli/group1-block1/real-group1-b1/Group1_IMG_0306.jpg,1,Group1_IMG_0306.jpg,,,,,0.0,122.0,122.0,122.0,,,,,,,,,,,,,,,,,,,520.9062795,None,,,0,0.428495338,523.3892195,None,523.3892195,None,,,522.223438,None,,,,,,,1,2022_Mar_24_1304,Real-fake-judgement-flashing-group1,2021.1.2,60.07179553
126,Trial # 124,Group1-stimuli/group1-block1/real-group1-b1/Group1_IMG_0224.jpg,1,Group1_IMG_0224.jpg,,,,,0.0,123.0,123.0,123.0,,,,,,,,,,,,,,,,,,,523.8402148,None,,,1,0.990558553,526.3071429,None,526.3071429,None,,,525.1396896,None,,,,,,,1,2022_Mar_24_1304,Real-fake-judgement-flashing-group1,2021.1.2,60.07179553
127,Trial # 125,Group1-stimuli/group1-block1/real-group1-b1/Group1_IMG_9889.jpg,1,Group1_IMG_9889.jpg,,,,,0.0,124.0,124.0,124.0,,,,,,,,,,,,,,,,,,,527.3249641,None,,,0,0.434515124,529.7912122,None,529.7912122,None,,,528.624107,None,,,,,,,1,2022_Mar_24_1304,Real-fake-judgement-flashing-group1,2021.1.2,60.07179553
128,Trial # 126,Group1-stimuli/group1-block1/real-group1-b1/Group1_IMG_0293.jpg,1,Group1_IMG_0293.jpg,,,,,0.0,125.0,125.0,125.0,,,,,,,,,,,,,,,,,,,530.2582856,None,,,0,0.551314583,532.7303944,None,532.7303944,None,,,531.5595368,None,,,,,,,1,2022_Mar_24_1304,Real-fake-judgement-flashing-group1,2021.1.2,60.07179553
129,Trial # 127,Group1-stimuli/group1-block1/fake-group2-b1/encoded_Group2_IMG_0321.jpg,0,encoded_Group2_IMG_0321.jpg,,,,,0.0,126.0,126.0,126.0,,,,,,,,,,,,,,,,,,,533.3092478,None,,,0,0.32822791,535.7934982,None,535.7934982,None,,,534.6092736,None,,,,,,,1,2022_Mar_24_1304,Real-fake-judgement-flashing-group1,2021.1.2,60.07179553
130,Trial # 128,Group1-stimuli/group1-block1/fake-group2-b1/encoded_Group2_IMG_0400.jpg,0,encoded_Group2_IMG_0400.jpg,,,,,0.0,127.0,127.0,127.0,,,,,,,,,,,,,,,,,,,536.1448125,None,,,0,0.366972037,538.6106669,None,538.6106669,None,,,537.44455,None,,,,,,,1,2022_Mar_24_1304,Real-fake-judgement-flashing-group1,2021.1.2,60.07179553
131,Trial # 129,Group1-stimuli/group1-block1/fake-group2-b1/encoded_Group2_IMG_0443.jpg,0,encoded_Group2_IMG_0443.jpg,,,,,0.0,128.0,128.0,128.0,,,,,,,,,,,,,,,,,,,539.0106561,None,,,0,0.355874334,541.4618264,None,541.4618264,None,,,540.2940139,None,,,,,,,1,2022_Mar_24_1304,Real-fake-judgement-flashing-group1,2021.1.2,60.07179553
132,Trial # 130,Group1-stimuli/group1-block1/fake-group2-b1/encoded_Group2_IMG_0542.jpg,0,encoded_Group2_IMG_0542.jpg,,,,,0.0,129.0,129.0,129.0,,,,,,,,,,,,,,,,,,,541.8454153,None,,,0,0.297423407,544.312328,None,544.312328,None,,,543.1451954,None,,,,,,,1,2022_Mar_24_1304,Real-fake-judgement-flashing-group1,2021.1.2,60.07179553
133,Trial # 131,Group1-stimuli/group1-block1/real-group1-b1/Group1_IMG_0885.jpg,1,Group1_IMG_0885.jpg,,,,,0.0,130.0,130.0,130.0,,,,,,,,,,,,,,,,,,,544.6290635,None,,,1,0.29521801,547.114483,None,547.114483,None,,,545.9306728,None,,,,,,,1,2022_Mar_24_1304,Real-fake-judgement-flashing-group1,2021.1.2,60.07179553
134,Trial # 132,Group1-stimuli/group1-block1/real-group1-b1/Group1_IMG_0375.jpg,1,Group1_IMG_0375.jpg,,,,,0.0,131.0,131.0,131.0,,,,,,,,,,,,,,,,,,,547.4313947,None,,,1,0.319806074,549.9139135,None,549.9139135,None,,,548.7469383,None,,,,,,,1,2022_Mar_24_1304,Real-fake-judgement-flashing-group1,2021.1.2,60.07179553
135,Trial # 133,Group1-stimuli/group1-block1/fake-group2-b1/encoded_Group2_IMG_7351.jpg,0,encoded_Group2_IMG_7351.jpg,,,,,0.0,132.0,132.0,132.0,,,,,,,,,,,,,,,,,,,550.2642507,None,,,1,0.349572927,552.7481399,None,552.7481399,None,,,551.5656978,None,,,,,,,1,2022_Mar_24_1304,Real-fake-judgement-flashing-group1,2021.1.2,60.07179553
136,Trial # 134,Group1-stimuli/group1-block1/fake-group2-b1/encoded_Group2_IMG_0416.jpg,0,encoded_Group2_IMG_0416.jpg,,,,,0.0,133.0,133.0,133.0,,,,,,,,,,,,,,,,,,,553.1156605,None,,,0,0.362864381,555.5828368,None,555.5828368,None,,,554.4153683,None,,,,,,,1,2022_Mar_24_1304,Real-fake-judgement-flashing-group1,2021.1.2,60.07179553
137,Trial # 135,Group1-stimuli/group1-block1/fake-group2-b1/encoded_Group2_IMG_0139.jpg,0,encoded_Group2_IMG_0139.jpg,,,,,0.0,134.0,134.0,134.0,,,,,,,,,,,,,,,,,,,555.9673353,None,,,0,0.384945549,558.4166917,None,558.4166917,None,,,557.2507773,None,,,,,,,1,2022_Mar_24_1304,Real-fake-judgement-flashing-group1,2021.1.2,60.07179553
138,Trial # 136,Group1-stimuli/group1-block1/real-group1-b1/Group1_IMG_9677.jpg,1,Group1_IMG_9677.jpg,,,,,0.0,135.0,135.0,135.0,,,,,,,,,,,,,,,,,,,558.8331602,None,,,0,0.347521731,561.3021777,None,561.3021777,None,,,560.1503511,None,,,,,,,1,2022_Mar_24_1304,Real-fake-judgement-flashing-group1,2021.1.2,60.07179553
139,Trial # 137,Group1-stimuli/group1-block1/fake-group2-b1/encoded_Group2_IMG_5982.jpg,0,encoded_Group2_IMG_5982.jpg,,,,,0.0,136.0,136.0,136.0,,,,,,,,,,,,,,,,,,,561.6690393,None,,,0,0.281796703,564.1519189,None,564.1519189,None,,,562.9847068,None,,,,,,,1,2022_Mar_24_1304,Real-fake-judgement-flashing-group1,2021.1.2,60.07179553
140,Trial # 138,Group1-stimuli/group1-block1/fake-group2-b1/encoded_Group2_IMG_1144.jpg,0,encoded_Group2_IMG_1144.jpg,,,,,0.0,137.0,137.0,137.0,,,,,,,,,,,,,,,,,,,564.4523131,None,,,0,0.393865955,566.903835,None,566.903835,None,,,565.7367566,None,,,,,,,1,2022_Mar_24_1304,Real-fake-judgement-flashing-group1,2021.1.2,60.07179553
141,Trial # 139,Group1-stimuli/group1-block1/fake-group2-b1/encoded_Group2_IMG_0315.jpg,0,encoded_Group2_IMG_0315.jpg,,,,,0.0,138.0,138.0,138.0,,,,,,,,,,,,,,,,,,,567.3200946,None,,,0,0.334231821,569.8034062,None,569.8034062,None,,,568.6197175,None,,,,,,,1,2022_Mar_24_1304,Real-fake-judgement-flashing-group1,2021.1.2,60.07179553
142,Trial # 140,Group1-stimuli/group1-block1/real-group1-b1/Group1_IMG_130.jpg,1,Group1_IMG_130.jpg,,,,,0.0,139.0,139.0,139.0,,,,,,,,,,,,,,,,,,,570.1702787,None,,,1,0.323941066,572.6377607,None,572.6377607,None,,,571.4886126,None,,,,,,,1,2022_Mar_24_1304,Real-fake-judgement-flashing-group1,2021.1.2,60.07179553
143,Trial # 141,Group1-stimuli/group1-block1/real-group1-b1/Group1_IMG_0024.jpg,1,Group1_IMG_0024.jpg,,,,,0.0,140.0,140.0,140.0,,,,,,,,,,,,,,,,,,,572.9880011,None,,,0,0.330415385,575.4552848,None,575.4552848,None,,,574.288269,None,,,,,,,1,2022_Mar_24_1304,Real-fake-judgement-flashing-group1,2021.1.2,60.07179553
144,Trial # 142,Group1-stimuli/group1-block1/fake-group2-b1/encoded_Group2_IMG_5012.jpg,0,encoded_Group2_IMG_5012.jpg,,,,,0.0,141.0,141.0,141.0,,,,,,,,,,,,,,,,,,,575.806385,None,,,1,0.337120969,578.2565826,None,578.2565826,None,,,577.0895675,None,,,,,,,1,2022_Mar_24_1304,Real-fake-judgement-flashing-group1,2021.1.2,60.07179553
145,Trial # 143,Group1-stimuli/group1-block1/fake-group2-b1/encoded_Group2_IMG_0209.jpg,0,encoded_Group2_IMG_0209.jpg,,,,,0.0,142.0,142.0,142.0,,,,,,,,,,,,,,,,,,,578.6230672,None,,,0,0.287244988,581.0904579,None,581.0904579,None,,,579.9066472,None,,,,,,,1,2022_Mar_24_1304,Real-fake-judgement-flashing-group1,2021.1.2,60.07179553
146,Trial # 144,Group1-stimuli/group1-block1/real-group1-b1/Group1_IMG_0373.jpg,1,Group1_IMG_0373.jpg,,,,,0.0,143.0,143.0,143.0,,,,,,,,,,,,,,,,,,,581.4075353,None,,,0,0.302248573,583.8914535,None,583.8914535,None,,,582.7239098,None,,,,,,,1,2022_Mar_24_1304,Real-fake-judgement-flashing-group1,2021.1.2,60.07179553
147,Trial # 145,Group1-stimuli/group1-block1/real-group1-b1/Group1_IMG_5899.jpg,1,Group1_IMG_5899.jpg,,,,,0.0,144.0,144.0,144.0,,,,,,,,,,,,,,,,,,,584.2246064,None,,,0,0.308327965,586.6933733,None,586.6933733,None,,,585.5261883,None,,,,,,,1,2022_Mar_24_1304,Real-fake-judgement-flashing-group1,2021.1.2,60.07179553
148,Trial # 146,Group1-stimuli/group1-block1/real-group1-b1/Group1_IMG_0162.jpg,1,Group1_IMG_0162.jpg,,,,,0.0,145.0,145.0,145.0,,,,,,,,,,,,,,,,,,,587.0254241,None,,,0,0.684074791,589.5095642,None,589.5095642,None,,,588.3422728,None,,,,,,,1,2022_Mar_24_1304,Real-fake-judgement-flashing-group1,2021.1.2,60.07179553
149,Trial # 147,Group1-stimuli/group1-block1/real-group1-b1/Group1_IMG_0543.jpg,1,Group1_IMG_0543.jpg,,,,,0.0,146.0,146.0,146.0,,,,,,,,,,,,,,,,,,,590.2266225,None,,,1,0.331913963,592.6936703,None,592.6936703,None,,,591.5281081,None,,,,,,,1,2022_Mar_24_1304,Real-fake-judgement-flashing-group1,2021.1.2,60.07179553
150,Trial # 148,Group1-stimuli/group1-block1/fake-group2-b1/encoded_Group2_IMG_0355.jpg,0,encoded_Group2_IMG_0355.jpg,,,,,0.0,147.0,147.0,147.0,,,,,,,,,,,,,,,,,,,593.0440561,None,,,0,0.323484022,595.4942186,None,595.4942186,None,,,594.3277053,None,,,,,,,1,2022_Mar_24_1304,Real-fake-judgement-flashing-group1,2021.1.2,60.07179553
151,Trial # 149,Group1-stimuli/group1-block1/real-group1-b1/Group1_IMG_9765.jpg,1,Group1_IMG_9765.jpg,,,,,0.0,148.0,148.0,148.0,,,,,,,,,,,,,,,,,,,595.8451449,None,,,1,0.30470697,598.3289947,None,598.3289947,None,,,597.1464491,None,,,,,,,1,2022_Mar_24_1304,Real-fake-judgement-flashing-group1,2021.1.2,60.07179553
152,Trial # 150,Group1-stimuli/group1-block1/fake-group2-b1/encoded_Group2_IMG_1378.jpg,0,encoded_Group2_IMG_1378.jpg,,,,,0.0,149.0,149.0,149.0,,,,,,,,,,,,,,,,,,,598.6633818,None,,,1,0.271398541,601.1303047,None,601.1303047,None,,,599.9627943,None,,,,,,,1,2022_Mar_24_1304,Real-fake-judgement-flashing-group1,2021.1.2,60.07179553
153,Trial # 1,Group1-stimuli/group1-block2/fake-group2-b2/encoded_Group2_IMG_0155.jpg,0,encoded_Group2_IMG_0155.jpg,,,,,,,,,0.0,0.0,0.0,0.0,,,,,,,,,,,,,,,612.467548,None,,,1,2.629576774,614.8841226,None,614.8841226,None,608.6819017,None,613.7337618,None,601.4304606,None,,,,,1,2022_Mar_24_1304,Real-fake-judgement-flashing-group1,2021.1.2,60.07179553
154,Trial # 2,Group1-stimuli/group1-block2/real-group1-b2/Group1_IMG_0519.jpg,1,Group1_IMG_0519.jpg,,,,,,,,,0.0,1.0,1.0,1.0,,,,,,,,,,,,,,,617.5349185,None,,,0,5.662935142,620.0187771,None,620.0187771,None,,,618.8519318,None,,,,,,,1,2022_Mar_24_1304,Real-fake-judgement-flashing-group1,2021.1.2,60.07179553
155,Trial # 3,Group1-stimuli/group1-block2/fake-group2-b2/encoded_Group2_IMG_0135.jpg,0,encoded_Group2_IMG_0135.jpg,,,,,,,,,0.0,2.0,2.0,2.0,,,,,,,,,,,,,,,625.7054033,None,,,0,1.965292882,628.1883153,None,628.1883153,None,,,627.0221595,None,,,,,,,1,2022_Mar_24_1304,Real-fake-judgement-flashing-group1,2021.1.2,60.07179553
156,Trial # 4,Group1-stimuli/group1-block2/real-group1-b2/Group1_IMG_5310.jpg,1,Group1_IMG_5310.jpg,,,,,,,,,0.0,3.0,3.0,3.0,,,,,,,,,,,,,,,630.1722286,None,,,1,1.160946672,632.6567628,None,632.6567628,None,,,631.490182,None,,,,,,,1,2022_Mar_24_1304,Real-fake-judgement-flashing-group1,2021.1.2,60.07179553
157,Trial # 5,Group1-stimuli/group1-block2/real-group1-b2/Group1_IMG_0522.jpg,1,Group1_IMG_0522.jpg,,,,,,,,,0.0,4.0,4.0,4.0,,,,,,,,,,,,,,,633.8399035,None,,,1,0.309790589,636.3080335,None,636.3080335,None,,,635.1571001,None,,,,,,,1,2022_Mar_24_1304,Real-fake-judgement-flashing-group1,2021.1.2,60.07179553
158,Trial # 6,Group1-stimuli/group1-block2/fake-group2-b2/encoded_Group2_IMG_0484.jpg,0,encoded_Group2_IMG_0484.jpg,,,,,,,,,0.0,5.0,5.0,5.0,,,,,,,,,,,,,,,636.6414789,None,,,0,0.309257491,639.1084443,None,639.1084443,None,,,637.9413393,None,,,,,,,1,2022_Mar_24_1304,Real-fake-judgement-flashing-group1,2021.1.2,60.07179553
159,Trial # 7,Group1-stimuli/group1-block2/fake-group2-b2/encoded_Group2_IMG_5948.jpg,0,encoded_Group2_IMG_5948.jpg,,,,,,,,,0.0,6.0,6.0,6.0,,,,,,,,,,,,,,,639.4419257,None,,,0,0.267109063,641.9105215,None,641.9105215,None,,,640.7426514,None,,,,,,,1,2022_Mar_24_1304,Real-fake-judgement-flashing-group1,2021.1.2,60.07179553
160,Trial # 8,Group1-stimuli/group1-block2/fake-group2-b2/encoded_Group2_IMG_3591.jpg,0,encoded_Group2_IMG_3591.jpg,,,,,,,,,0.0,7.0,7.0,7.0,,,,,,,,,,,,,,,642.2105124,None,,,0,0.268526438,644.6931699,None,644.6931699,None,,,643.543324,None,,,,,,,1,2022_Mar_24_1304,Real-fake-judgement-flashing-group1,2021.1.2,60.07179553
161,Trial # 9,Group1-stimuli/group1-block2/real-group1-b2/Group1_IMG_9835.jpg,1,Group1_IMG_9835.jpg,,,,,,,,,0.0,8.0,8.0,8.0,,,,,,,,,,,,,,,644.9938503,None,,,0,0.292736648,647.460972,None,647.460972,None,,,646.3118647,None,,,,,,,1,2022_Mar_24_1304,Real-fake-judgement-flashing-group1,2021.1.2,60.07179553
162,Trial # 10,Group1-stimuli/group1-block2/real-group1-b2/Group1_IMG_0556.jpg,1,Group1_IMG_0556.jpg,,,,,,,,,0.0,9.0,9.0,9.0,,,,,,,,,,,,,,,647.7775315,None,,,1,0.316625718,650.2450926,None,650.2450926,None,,,649.0947197,None,,,,,,,1,2022_Mar_24_1304,Real-fake-judgement-flashing-group1,2021.1.2,60.07179553
163,Trial # 11,Group1-stimuli/group1-block2/fake-group2-b2/encoded_Group2_IMG_9736.jpg,0,encoded_Group2_IMG_9736.jpg,,,,,,,,,0.0,10.0,10.0,10.0,,,,,,,,,,,,,,,650.5792818,None,,,0,0.33087785,653.0628591,None,653.0628591,None,,,651.896899,None,,,,,,,1,2022_Mar_24_1304,Real-fake-judgement-flashing-group1,2021.1.2,60.07179553
164,Trial # 12,Group1-stimuli/group1-block2/real-group1-b2/Group1_IMG_9867.jpg,1,Group1_IMG_9867.jpg,,,,,,,,,0.0,11.0,11.0,11.0,,,,,,,,,,,,,,,653.4127274,None,,,0,0.696445936,655.8972555,None,655.8972555,None,,,654.7296631,None,,,,,,,1,2022_Mar_24_1304,Real-fake-judgement-flashing-group1,2021.1.2,60.07179553
165,Trial # 13,Group1-stimuli/group1-block2/fake-group2-b2/encoded_Group2_IMG_9886.jpg,0,encoded_Group2_IMG_9886.jpg,,,,,,,,,0.0,12.0,12.0,12.0,,,,,,,,,,,,,,,656.6150513,None,,,0,0.343830154,659.0978714,None,659.0978714,None,,,657.9307784,None,,,,,,,1,2022_Mar_24_1304,Real-fake-judgement-flashing-group1,2021.1.2,60.07179553
166,Trial # 14,Group1-stimuli/group1-block2/fake-group2-b2/encoded_Group2_IMG_2245.jpg,0,encoded_Group2_IMG_2245.jpg,,,,,,,,,0.0,13.0,13.0,13.0,,,,,,,,,,,,,,,659.4650852,None,,,1,0.300331771,661.9332844,None,661.9332844,None,,,660.7662005,None,,,,,,,1,2022_Mar_24_1304,Real-fake-judgement-flashing-group1,2021.1.2,60.07179553
167,Trial # 15,Group1-stimuli/group1-block2/fake-group2-b2/encoded_Group2_IMG_0507.jpg,0,encoded_Group2_IMG_0507.jpg,,,,,,,,,0.0,14.0,14.0,14.0,,,,,,,,,,,,,,,662.2656178,None,,,0,0.356742512,664.7330106,None,664.7330106,None,,,663.5658709,None,,,,,,,1,2022_Mar_24_1304,Real-fake-judgement-flashing-group1,2021.1.2,60.07179553
168,Trial # 16,Group1-stimuli/group1-block2/fake-group2-b2/encoded_Group2_IMG_0338.jpg,0,encoded_Group2_IMG_0338.jpg,,,,,,,,,0.0,15.0,15.0,15.0,,,,,,,,,,,,,,,665.1163394,None,,,0,0.456710716,667.5849911,None,667.5849911,None,,,666.4845653,None,,,,,,,1,2022_Mar_24_1304,Real-fake-judgement-flashing-group1,2021.1.2,60.07179553
169,Trial # 17,Group1-stimuli/group1-block2/real-group1-b2/Group1_IMG_0376.jpg,1,Group1_IMG_0376.jpg,,,,,,,,,0.0,16.0,16.0,16.0,,,,,,,,,,,,,,,668.0675226,None,,,0,0.617083177,670.5526014,None,670.5526014,None,,,669.3843218,None,,,,,,,1,2022_Mar_24_1304,Real-fake-judgement-flashing-group1,2021.1.2,60.07179553
170,Trial # 18,Group1-stimuli/group1-block2/real-group1-b2/Group1_IMG_9821.jpg,1,Group1_IMG_9821.jpg,,,,,,,,,0.0,17.0,17.0,17.0,,,,,,,,,,,,,,,671.2025242,None,,,0,0.46882018,673.6688916,None,673.6688916,None,,,672.5020455,None,,,,,,,1,2022_Mar_24_1304,Real-fake-judgement-flashing-group1,2021.1.2,60.07179553
171,Trial # 19,Group1-stimuli/group1-block2/fake-group2-b2/encoded_Group2_IMG_0388.jpg,0,encoded_Group2_IMG_0388.jpg,,,,,,,,,0.0,18.0,18.0,18.0,,,,,,,,,,,,,,,674.1690516,None,,,1,0.379800384,676.6379229,None,676.6379229,None,,,675.4696055,None,,,,,,,1,2022_Mar_24_1304,Real-fake-judgement-flashing-group1,2021.1.2,60.07179553
172,Trial # 20,Group1-stimuli/group1-block2/fake-group2-b2/encoded_Group2_IMG_0222.jpg,0,encoded_Group2_IMG_0222.jpg,,,,,,,,,0.0,19.0,19.0,19.0,,,,,,,,,,,,,,,677.0373798,None,,,0,0.368706529,679.5209961,None,679.5209961,None,,,678.3871363,None,,,,,,,1,2022_Mar_24_1304,Real-fake-judgement-flashing-group1,2021.1.2,60.07179553
173,Trial # 21,Group1-stimuli/group1-block2/fake-group2-b2/encoded_Group2_IMG_2215.jpg,0,encoded_Group2_IMG_2215.jpg,,,,,,,,,0.0,20.0,20.0,20.0,,,,,,,,,,,,,,,679.92104,None,,,0,0.252442351,682.4052614,None,682.4052614,None,,,681.222498,None,,,,,,,1,2022_Mar_24_1304,Real-fake-judgement-flashing-group1,2021.1.2,60.07179553
174,Trial # 22,Group1-stimuli/group1-block2/real-group1-b2/Group1_IMG_9760.jpg,1,Group1_IMG_9760.jpg,,,,,,,,,0.0,21.0,21.0,21.0,,,,,,,,,,,,,,,682.6886972,None,,,1,1.181063862,685.1726374,None,685.1726374,None,,,684.0055653,None,,,,,,,1,2022_Mar_24_1304,Real-fake-judgement-flashing-group1,2021.1.2,60.07179553
175,Trial # 23,Group1-stimuli/group1-block2/real-group1-b2/Group1_IMG_9897.jpg,1,Group1_IMG_9897.jpg,,,,,,,,,0.0,22.0,22.0,22.0,,,,,,,,,,,,,,,686.3741844,None,,,0,0.297190011,688.8405233,None,688.8405233,None,,,687.6900464,None,,,,,,,1,2022_Mar_24_1304,Real-fake-judgement-flashing-group1,2021.1.2,60.07179553
176,Trial # 24,Group1-stimuli/group1-block2/real-group1-b2/Group1_IMG_4250.jpg,1,Group1_IMG_4250.jpg,,,,,,,,,0.0,23.0,23.0,23.0,,,,,,,,,,,,,,,689.1573492,None,,,1,0.336722582,691.6249873,None,691.6249873,None,,,690.4742399,None,,,,,,,1,2022_Mar_24_1304,Real-fake-judgement-flashing-group1,2021.1.2,60.07179553
177,Trial # 25,Group1-stimuli/group1-block2/real-group1-b2/Group1_IMG_2244.jpg,1,Group1_IMG_2244.jpg,,,,,,,,,0.0,24.0,24.0,24.0,,,,,,,,,,,,,,,691.9926277,None,,,1,0.286166073,694.4755718,None,694.4755718,None,,,693.3083659,None,,,,,,,1,2022_Mar_24_1304,Real-fake-judgement-flashing-group1,2021.1.2,60.07179553
178,Trial # 26,Group1-stimuli/group1-block2/fake-group2-b2/encoded_Group2_IMG_0501.jpg,0,encoded_Group2_IMG_0501.jpg,,,,,,,,,0.0,25.0,25.0,25.0,,,,,,,,,,,,,,,694.7923392,None,,,0,0.276739608,697.2609547,None,697.2609547,None,,,696.0939062,None,,,,,,,1,2022_Mar_24_1304,Real-fake-judgement-flashing-group1,2021.1.2,60.07179553
179,Trial # 27,Group1-stimuli/group1-block2/real-group1-b2/Group1_IMG_9684.jpg,1,Group1_IMG_9684.jpg,,,,,,,,,0.0,26.0,26.0,26.0,,,,,,,,,,,,,,,697.5603188,None,,,1,0.22985623,700.0438452,None,700.0438452,None,,,698.8768569,None,,,,,,,1,2022_Mar_24_1304,Real-fake-judgement-flashing-group1,2021.1.2,60.07179553
180,Trial # 28,Group1-stimuli/group1-block2/real-group1-b2/Group1_IMG_1039.jpg,1,Group1_IMG_1039.jpg,,,,,,,,,0.0,27.0,27.0,27.0,,,,,,,,,,,,,,,700.2935636,None,,,1,0.503580066,702.7781307,None,702.7781307,None,,,701.6121625,None,,,,,,,1,2022_Mar_24_1304,Real-fake-judgement-flashing-group1,2021.1.2,60.07179553
181,Trial # 29,Group1-stimuli/group1-block2/fake-group2-b2/encoded_Group2_IMG_0251.jpg,0,encoded_Group2_IMG_0251.jpg,,,,,,,,,0.0,28.0,28.0,28.0,,,,,,,,,,,,,,,703.3121199,None,,,0,0.309585237,705.7801253,None,705.7801253,None,,,704.611852,None,,,,,,,1,2022_Mar_24_1304,Real-fake-judgement-flashing-group1,2021.1.2,60.07179553
182,Trial # 30,Group1-stimuli/group1-block2/real-group1-b2/Group1_IMG_9692.jpg,1,Group1_IMG_9692.jpg,,,,,,,,,0.0,29.0,29.0,29.0,,,,,,,,,,,,,,,706.1134901,None,,,0,0.357143405,708.5965611,None,708.5965611,None,,,707.4293579,None,,,,,,,1,2022_Mar_24_1304,Real-fake-judgement-flashing-group1,2021.1.2,60.07179553
183,Trial # 31,Group1-stimuli/group1-block2/real-group1-b2/Group1_IMG_0512.jpg,1,Group1_IMG_0512.jpg,,,,,,,,,0.0,30.0,30.0,30.0,,,,,,,,,,,,,,,708.9800556,None,,,1,0.64907015,711.448561,None,711.448561,None,,,710.2969985,None,,,,,,,1,2022_Mar_24_1304,Real-fake-judgement-flashing-group1,2021.1.2,60.07179553
184,Trial # 32,Group1-stimuli/group1-block2/fake-group2-b2/encoded_Group2_IMG_9673.jpg,0,encoded_Group2_IMG_9673.jpg,,,,,,,,,0.0,31.0,31.0,31.0,,,,,,,,,,,,,,,712.1146772,None,,,0,0.6914982,714.5982041,None,714.5982041,None,,,713.4313202,None,,,,,,,1,2022_Mar_24_1304,Real-fake-judgement-flashing-group1,2021.1.2,60.07179553
185,Trial # 33,Group1-stimuli/group1-block2/fake-group2-b2/encoded_Group2_IMG_5135.jpg,0,encoded_Group2_IMG_5135.jpg,,,,,,,,,0.0,32.0,32.0,32.0,,,,,,,,,,,,,,,715.3153761,None,,,1,0.802891155,717.7828354,None,717.7828354,None,,,716.6167398,None,,,,,,,1,2022_Mar_24_1304,Real-fake-judgement-flashing-group1,2021.1.2,60.07179553
186,Trial # 34,Group1-stimuli/group1-block2/real-group1-b2/Group1_IMG_0396.jpg,1,Group1_IMG_0396.jpg,,,,,,,,,0.0,33.0,33.0,33.0,,,,,,,,,,,,,,,718.6164152,None,,,1,0.597601723,721.0840502,None,721.0840502,None,,,719.9333213,None,,,,,,,1,2022_Mar_24_1304,Real-fake-judgement-flashing-group1,2021.1.2,60.07179553
187,Trial # 35,Group1-stimuli/group1-block2/real-group1-b2/Group1_IMG_4919.jpg,1,Group1_IMG_4919.jpg,,,,,,,,,0.0,34.0,34.0,34.0,,,,,,,,,,,,,,,721.701884,None,,,1,0.313149049,724.1845544,None,724.1845544,None,,,723.0176379,None,,,,,,,1,2022_Mar_24_1304,Real-fake-judgement-flashing-group1,2021.1.2,60.07179553
188,Trial # 36,Group1-stimuli/group1-block2/real-group1-b2/Group1_IMG_0449.jpg,1,Group1_IMG_0449.jpg,,,,,,,,,0.0,35.0,35.0,35.0,,,,,,,,,,,,,,,724.5187088,None,,,1,0.398896279,726.9868599,None,726.9868599,None,,,725.8361751,None,,,,,,,1,2022_Mar_24_1304,Real-fake-judgement-flashing-group1,2021.1.2,60.07179553
189,Trial # 37,Group1-stimuli/group1-block2/fake-group2-b2/encoded_Group2_IMG_0539.jpg,0,encoded_Group2_IMG_0539.jpg,,,,,,,,,0.0,36.0,36.0,36.0,,,,,,,,,,,,,,,727.4022954,None,,,0,0.348459023,729.8532334,None,729.8532334,None,,,728.6860715,None,,,,,,,1,2022_Mar_24_1304,Real-fake-judgement-flashing-group1,2021.1.2,60.07179553
190,Trial # 38,Group1-stimuli/group1-block2/real-group1-b2/Group1_IMG_0453.jpg,1,Group1_IMG_0453.jpg,,,,,,,,,0.0,37.0,37.0,37.0,,,,,,,,,,,,,,,730.2202348,None,,,0,0.449593918,732.7041232,None,732.7041232,None,,,731.537961,None,,,,,,,1,2022_Mar_24_1304,Real-fake-judgement-flashing-group1,2021.1.2,60.07179553
191,Trial # 39,Group1-stimuli/group1-block2/fake-group2-b2/encoded_Group2_IMG_0318.jpg,0,encoded_Group2_IMG_0318.jpg,,,,,,,,,0.0,38.0,38.0,38.0,,,,,,,,,,,,,,,733.171241,None,,,0,0.706965347,735.6387459,None,735.6387459,None,,,734.4710661,None,,,,,,,1,2022_Mar_24_1304,Real-fake-judgement-flashing-group1,2021.1.2,60.07179553
192,Trial # 40,Group1-stimuli/group1-block2/real-group1-b2/Group1_IMG_1678.jpg,1,Group1_IMG_1678.jpg,,,,,,,,,0.0,39.0,39.0,39.0,,,,,,,,,,,,,,,736.3723676,None,,,0,0.593902298,738.8557999,None,738.8557999,None,,,737.6887043,None,,,,,,,1,2022_Mar_24_1304,Real-fake-judgement-flashing-group1,2021.1.2,60.07179553
193,Trial # 41,Group1-stimuli/group1-block2/fake-group2-b2/encoded_Group2_IMG_0325.jpg,0,encoded_Group2_IMG_0325.jpg,,,,,,,,,0.0,40.0,40.0,40.0,,,,,,,,,,,,,,,739.4732017,None,,,0,0.485146853,741.9404926,None,741.9404926,None,,,740.7902451,None,,,,,,,1,2022_Mar_24_1304,Real-fake-judgement-flashing-group1,2021.1.2,60.07179553
194,Trial # 42,Group1-stimuli/group1-block2/fake-group2-b2/encoded_Group2_IMG_9935.jpg,0,encoded_Group2_IMG_9935.jpg,,,,,,,,,0.0,41.0,41.0,41.0,,,,,,,,,,,,,,,742.4584312,None,,,0,0.300717254,744.9409301,None,744.9409301,None,,,743.7907471,None,,,,,,,1,2022_Mar_24_1304,Real-fake-judgement-flashing-group1,2021.1.2,60.07179553
195,Trial # 43,Group1-stimuli/group1-block2/fake-group2-b2/encoded_Group2_IMG_0308.jpg,0,encoded_Group2_IMG_0308.jpg,,,,,,,,,0.0,42.0,42.0,42.0,,,,,,,,,,,,,,,745.2746024,None,,,0,0.370630168,747.7430734,None,747.7430734,None,,,746.5759316,None,,,,,,,1,2022_Mar_24_1304,Real-fake-judgement-flashing-group1,2021.1.2,60.07179553
196,Trial # 44,Group1-stimuli/group1-block2/real-group1-b2/Group1_IMG_0467.jpg,1,Group1_IMG_0467.jpg,,,,,,,,,0.0,43.0,43.0,43.0,,,,,,,,,,,,,,,748.1419979,None,,,1,0.278961945,750.6267485,None,750.6267485,None,,,749.4592065,None,,,,,,,1,2022_Mar_24_1304,Real-fake-judgement-flashing-group1,2021.1.2,60.07179553
197,Trial # 45,Group1-stimuli/group1-block2/fake-group2-b2/encoded_Group2_IMG_9839.jpg,0,encoded_Group2_IMG_9839.jpg,,,,,,,,,0.0,44.0,44.0,44.0,,,,,,,,,,,,,,,750.9271064,None,,,0,0.359972819,753.3937304,None,753.3937304,None,,,752.2278114,None,,,,,,,1,2022_Mar_24_1304,Real-fake-judgement-flashing-group1,2021.1.2,60.07179553
198,Trial # 46,Group1-stimuli/group1-block2/fake-group2-b2/encoded_Group2_IMG_9681.jpg,0,encoded_Group2_IMG_9681.jpg,,,,,,,,,0.0,45.0,45.0,45.0,,,,,,,,,,,,,,,753.778144,None,,,0,0.300111847,756.2616071,None,756.2616071,None,,,755.0774864,None,,,,,,,1,2022_Mar_24_1304,Real-fake-judgement-flashing-group1,2021.1.2,60.07179553
199,Trial # 47,Group1-stimuli/group1-block2/fake-group2-b2/encoded_Group2_IMG_0458.jpg,0,encoded_Group2_IMG_0458.jpg,,,,,,,,,0.0,46.0,46.0,46.0,,,,,,,,,,,,,,,756.5785566,None,,,0,0.380101608,759.0456163,None,759.0456163,None,,,757.8629131,None,,,,,,,1,2022_Mar_24_1304,Real-fake-judgement-flashing-group1,2021.1.2,60.07179553
200,Trial # 48,Group1-stimuli/group1-block2/real-group1-b2/Group1_IMG_1095.jpg,1,Group1_IMG_1095.jpg,,,,,,,,,0.0,47.0,47.0,47.0,,,,,,,,,,,,,,,759.4461075,None,,,0,0.43944712,761.9142635,None,761.9142635,None,,,760.7637477,None,,,,,,,1,2022_Mar_24_1304,Real-fake-judgement-flashing-group1,2021.1.2,60.07179553
201,Trial # 49,Group1-stimuli/group1-block2/fake-group2-b2/encoded_Group2_IMG_9710.jpg,0,encoded_Group2_IMG_9710.jpg,,,,,,,,,0.0,48.0,48.0,48.0,,,,,,,,,,,,,,,762.3813176,None,,,0,0.289878145,764.863825,None,764.863825,None,,,763.6800478,None,,,,,,,1,2022_Mar_24_1304,Real-fake-judgement-flashing-group1,2021.1.2,60.07179553
202,Trial # 50,Group1-stimuli/group1-block2/fake-group2-b2/encoded_Group2_IMG_9819.jpg,0,encoded_Group2_IMG_9819.jpg,,,,,,,,,0.0,49.0,49.0,49.0,,,,,,,,,,,,,,,765.1806908,None,,,0,0.273369532,767.6483397,None,767.6483397,None,,,766.481781,None,,,,,,,1,2022_Mar_24_1304,Real-fake-judgement-flashing-group1,2021.1.2,60.07179553
203,Trial # 51,Group1-stimuli/group1-block2/real-group1-b2/Group1_IMG_0064.jpg,1,Group1_IMG_0064.jpg,,,,,,,,,0.0,50.0,50.0,50.0,,,,,,,,,,,,,,,767.9484511,None,,,0,3.297291401,770.4324287,None,770.4324287,None,,,769.2486108,None,,,,,,,1,2022_Mar_24_1304,Real-fake-judgement-flashing-group1,2021.1.2,60.07179553
204,Trial # 52,Group1-stimuli/group1-block2/fake-group2-b2/encoded_Group2_IMG_9756.jpg,0,encoded_Group2_IMG_9756.jpg,,,,,,,,,0.0,51.0,51.0,51.0,,,,,,,,,,,,,,,773.7499248,None,,,0,0.255805733,776.217903,None,776.217903,None,,,775.0669824,None,,,,,,,1,2022_Mar_24_1304,Real-fake-judgement-flashing-group1,2021.1.2,60.07179553
205,Trial # 53,Group1-stimuli/group1-block2/fake-group2-b2/encoded_Group2_IMG_5888.jpg,0,encoded_Group2_IMG_5888.jpg,,,,,,,,,0.0,52.0,52.0,52.0,,,,,,,,,,,,,,,776.5022016,None,,,0,0.073203829,778.9685058,None,778.9685058,None,,,777.80123,None,,,,,,,1,2022_Mar_24_1304,Real-fake-judgement-flashing-group1,2021.1.2,60.07179553
206,Trial # 54,Group1-stimuli/group1-block2/real-group1-b2/Group1_IMG_1476.jpg,1,Group1_IMG_1476.jpg,,,,,,,,,0.0,53.0,53.0,53.0,,,,,,,,,,,,,,,779.0683121,None,,,1,0.59346633,781.5362423,None,781.5362423,None,,,780.385397,None,,,,,,,1,2022_Mar_24_1304,Real-fake-judgement-flashing-group1,2021.1.2,60.07179553
207,Trial # 55,Group1-stimuli/group1-block2/real-group1-b2/Group1_IMG_1917.jpg,1,Group1_IMG_1917.jpg,,,,,,,,,0.0,54.0,54.0,54.0,,,,,,,,,,,,,,,782.1528596,None,,,1,0.3979645,784.6197698,None,784.6197698,None,,,783.4531251,None,,,,,,,1,2022_Mar_24_1304,Real-fake-judgement-flashing-group1,2021.1.2,60.07179553
208,Trial # 56,Group1-stimuli/group1-block2/real-group1-b2/Group1_IMG_0413.jpg,1,Group1_IMG_0413.jpg,,,,,,,,,0.0,55.0,55.0,55.0,,,,,,,,,,,,,,,785.0364127,None,,,0,0.408941663,787.5047682,None,787.5047682,None,,,786.4548447,None,,,,,,,1,2022_Mar_24_1304,Real-fake-judgement-flashing-group1,2021.1.2,60.07179553
209,Trial # 57,Group1-stimuli/group1-block2/real-group1-b2/Group1_IMG_1001.jpg,1,Group1_IMG_1001.jpg,,,,,,,,,0.0,56.0,56.0,56.0,,,,,,,,,,,,,,,787.9376151,None,,,1,0.32458041,790.4051291,None,790.4051291,None,,,789.2550343,None,,,,,,,1,2022_Mar_24_1304,Real-fake-judgement-flashing-group1,2021.1.2,60.07179553
210,Trial # 58,Group1-stimuli/group1-block2/fake-group2-b2/encoded_Group2_IMG_0441.jpg,0,encoded_Group2_IMG_0441.jpg,,,,,,,,,0.0,57.0,57.0,57.0,,,,,,,,,,,,,,,790.7556873,None,,,0,0.386847267,793.2228443,None,793.2228443,None,,,792.0568634,None,,,,,,,1,2022_Mar_24_1304,Real-fake-judgement-flashing-group1,2021.1.2,60.07179553
211,Trial # 59,Group1-stimuli/group1-block2/real-group1-b2/Group1_IMG_9774.jpg,1,Group1_IMG_9774.jpg,,,,,,,,,0.0,58.0,58.0,58.0,,,,,,,,,,,,,,,793.6394702,None,,,0,0.254391691,796.1073188,None,796.1073188,None,,,794.9563711,None,,,,,,,1,2022_Mar_24_1304,Real-fake-judgement-flashing-group1,2021.1.2,60.07179553
212,Trial # 60,Group1-stimuli/group1-block2/fake-group2-b2/encoded_Group2_IMG_2751.jpg,0,encoded_Group2_IMG_2751.jpg,,,,,,,,,0.0,59.0,59.0,59.0,,,,,,,,,,,,,,,796.3907264,None,,,0,0.263432339,798.8582692,None,798.8582692,None,,,797.6907087,None,,,,,,,1,2022_Mar_24_1304,Real-fake-judgement-flashing-group1,2021.1.2,60.07179553
213,Trial # 61,Group1-stimuli/group1-block2/fake-group2-b2/encoded_Group2_IMG_0409.jpg,0,encoded_Group2_IMG_0409.jpg,,,,,,,,,0.0,60.0,60.0,60.0,,,,,,,,,,,,,,,799.1414612,None,,,0,0.24041473,801.6092312,None,801.6092312,None,,,800.4416114,None,,,,,,,1,2022_Mar_24_1304,Real-fake-judgement-flashing-group1,2021.1.2,60.07179553
214,Trial # 62,Group1-stimuli/group1-block2/real-group1-b2/Group1_IMG_1346.jpg,1,Group1_IMG_1346.jpg,,,,,,,,,0.0,61.0,61.0,61.0,,,,,,,,,,,,,,,801.8764238,None,,,0,0.522051542,804.3596501,None,804.3596501,None,,,803.1923418,None,,,,,,,1,2022_Mar_24_1304,Real-fake-judgement-flashing-group1,2021.1.2,60.07179553
215,Trial # 63,Group1-stimuli/group1-block2/real-group1-b2/Group1_IMG_0481.jpg,1,Group1_IMG_0481.jpg,,,,,,,,,0.0,62.0,62.0,62.0,,,,,,,,,,,,,,,804.9100333,None,,,0,0.327768259,807.3779373,None,807.3779373,None,,,806.2612945,None,,,,,,,1,2022_Mar_24_1304,Real-fake-judgement-flashing-group1,2021.1.2,60.07179553
216,Trial # 64,Group1-stimuli/group1-block2/fake-group2-b2/encoded_Group2_IMG_4718.jpg,0,encoded_Group2_IMG_4718.jpg,,,,,,,,,0.0,63.0,63.0,63.0,,,,,,,,,,,,,,,807.7273571,None,,,0,0.135859853,810.1779009,None,810.1779009,None,,,809.0108043,None,,,,,,,1,2022_Mar_24_1304,Real-fake-judgement-flashing-group1,2021.1.2,60.07179553
217,Trial # 65,Group1-stimuli/group1-block2/real-group1-b2/Group1_IMG_0540.jpg,1,Group1_IMG_0540.jpg,,,,,,,,,0.0,64.0,64.0,64.0,,,,,,,,,,,,,,,810.3443511,None,,,0,0.261552414,812.8121708,None,812.8121708,None,,,811.662973,None,,,,,,,1,2022_Mar_24_1304,Real-fake-judgement-flashing-group1,2021.1.2,60.07179553
218,Trial # 66,Group1-stimuli/group1-block2/fake-group2-b2/encoded_Group2_IMG_0166.jpg,0,encoded_Group2_IMG_0166.jpg,,,,,,,,,0.0,65.0,65.0,65.0,,,,,,,,,,,,,,,813.0956779,None,,,0,0.471388348,815.5623136,None,815.5623136,None,,,814.3960241,None,,,,,,,1,2022_Mar_24_1304,Real-fake-judgement-flashing-group1,2021.1.2,60.07179553
219,Trial # 67,Group1-stimuli/group1-block2/fake-group2-b2/encoded_Group2_IMG_0412.jpg,0,encoded_Group2_IMG_0412.jpg,,,,,,,,,0.0,66.0,66.0,66.0,,,,,,,,,,,,,,,816.0636421,None,,,0,0.479658161,818.5140342,None,818.5140342,None,,,817.3477219,None,,,,,,,1,2022_Mar_24_1304,Real-fake-judgement-flashing-group1,2021.1.2,60.07179553
220,Trial # 68,Group1-stimuli/group1-block2/real-group1-b2/Group1_IMG_0485.jpg,1,Group1_IMG_0485.jpg,,,,,,,,,0.0,67.0,67.0,67.0,,,,,,,,,,,,,,,819.0138633,None,,,1,0.287012199,821.4827024,None,821.4827024,None,,,820.3309236,None,,,,,,,1,2022_Mar_24_1304,Real-fake-judgement-flashing-group1,2021.1.2,60.07179553
221,Trial # 69,Group1-stimuli/group1-block2/fake-group2-b2/encoded_Group2_IMG_1495.jpg,0,encoded_Group2_IMG_1495.jpg,,,,,,,,,0.0,68.0,68.0,68.0,,,,,,,,,,,,,,,821.7998503,None,,,0,0.519519043,824.282183,None,824.282183,None,,,823.1151731,None,,,,,,,1,2022_Mar_24_1304,Real-fake-judgement-flashing-group1,2021.1.2,60.07179553
222,Trial # 70,Group1-stimuli/group1-block2/real-group1-b2/Group1_IMG_0426.jpg,1,Group1_IMG_0426.jpg,,,,,,,,,0.0,69.0,69.0,69.0,,,,,,,,,,,,,,,824.832283,None,,,1,0.333598684,827.3000224,None,827.3000224,None,,,826.1332094,None,,,,,,,1,2022_Mar_24_1304,Real-fake-judgement-flashing-group1,2021.1.2,60.07179553
223,Trial # 71,Group1-stimuli/group1-block2/real-group1-b2/Group1_IMG_0349.jpg,1,Group1_IMG_0349.jpg,,,,,,,,,0.0,70.0,70.0,70.0,,,,,,,,,,,,,,,827.6664355,None,,,0,0.218690341,830.1510191,None,830.1510191,None,,,828.9836772,None,,,,,,,1,2022_Mar_24_1304,Real-fake-judgement-flashing-group1,2021.1.2,60.07179553
224,Trial # 72,Group1-stimuli/group1-block2/real-group1-b2/Group1_IMG_0414.jpg,1,Group1_IMG_0414.jpg,,,,,,,,,0.0,71.0,71.0,71.0,,,,,,,,,,,,,,,830.4003866,None,,,1,0.373275795,832.8684338,None,832.8684338,None,,,831.70259,None,,,,,,,1,2022_Mar_24_1304,Real-fake-judgement-flashing-group1,2021.1.2,60.07179553
225,Trial # 73,Group1-stimuli/group1-block2/fake-group2-b2/encoded_Group2_IMG_9856.jpg,0,encoded_Group2_IMG_9856.jpg,,,,,,,,,0.0,72.0,72.0,72.0,,,,,,,,,,,,,,,833.268586,None,,,0,0.321817376,835.7359154,None,835.7359154,None,,,834.5686763,None,,,,,,,1,2022_Mar_24_1304,Real-fake-judgement-flashing-group1,2021.1.2,60.07179553
226,Trial # 74,Group1-stimuli/group1-block2/fake-group2-b2/encoded_Group2_IMG_5313.jpg,0,encoded_Group2_IMG_5313.jpg,,,,,,,,,0.0,73.0,73.0,73.0,,,,,,,,,,,,,,,836.0874816,None,,,0,0.255715444,838.5699872,None,838.5699872,None,,,837.4038608,None,,,,,,,1,2022_Mar_24_1304,Real-fake-judgement-flashing-group1,2021.1.2,60.07179553
227,Trial # 75,Group1-stimuli/group1-block2/fake-group2-b2/encoded_Group2_IMG_0421.jpg,0,encoded_Group2_IMG_0421.jpg,,,,,,,,,0.0,74.0,74.0,74.0,,,,,,,,,,,,,,,838.8543816,None,,,0,0.20899776,841.3047046,None,841.3047046,None,,,840.1373141,None,,,,,,,1,2022_Mar_24_1304,Real-fake-judgement-flashing-group1,2021.1.2,60.07179553
228,Trial # 76,Group1-stimuli/group1-block2/fake-group2-b2/encoded_Group2_IMG_0446.jpg,0,encoded_Group2_IMG_0446.jpg,,,,,,,,,0.0,75.0,75.0,75.0,,,,,,,,,,,,,,,841.5380577,None,,,0,0.164831147,844.0048321,None,844.0048321,None,,,842.8380131,None,,,,,,,1,2022_Mar_24_1304,Real-fake-judgement-flashing-group1,2021.1.2,60.07179553
229,Trial # 77,Group1-stimuli/group1-block2/real-group1-b2/Group1_IMG_5999.jpg,1,Group1_IMG_5999.jpg,,,,,,,,,0.0,76.0,76.0,76.0,,,,,,,,,,,,,,,844.1887622,None,,,1,0.288593216,846.6571095,None,846.6571095,None,,,845.5053274,None,,,,,,,1,2022_Mar_24_1304,Real-fake-judgement-flashing-group1,2021.1.2,60.07179553
230,Trial # 78,Group1-stimuli/group1-block2/real-group1-b2/Group1_IMG_0107.jpg,1,Group1_IMG_0107.jpg,,,,,,,,,0.0,77.0,77.0,77.0,,,,,,,,,,,,,,,846.97322,None,,,1,0.265890013,849.4398068,None,849.4398068,None,,,848.2729544,None,,,,,,,1,2022_Mar_24_1304,Real-fake-judgement-flashing-group1,2021.1.2,60.07179553
231,Trial # 79,Group1-stimuli/group1-block2/fake-group2-b2/encoded_Group2_IMG_0322.jpg,0,encoded_Group2_IMG_0322.jpg,,,,,,,,,0.0,78.0,78.0,78.0,,,,,,,,,,,,,,,849.7233046,None,,,0,0.235086437,852.1745893,None,852.1745893,None,,,851.0084079,None,,,,,,,1,2022_Mar_24_1304,Real-fake-judgement-flashing-group1,2021.1.2,60.07179553
232,Trial # 80,Group1-stimuli/group1-block2/fake-group2-b2/encoded_Group2_IMG_4255.jpg,0,encoded_Group2_IMG_4255.jpg,,,,,,,,,0.0,79.0,79.0,79.0,,,,,,,,,,,,,,,852.4422047,None,,,0,0.245085208,854.9086171,None,854.9086171,None,,,853.7410423,None,,,,,,,1,2022_Mar_24_1304,Real-fake-judgement-flashing-group1,2021.1.2,60.07179553
233,Trial # 81,Group1-stimuli/group1-block2/fake-group2-b2/encoded_Group2_IMG_0219.jpg,0,encoded_Group2_IMG_0219.jpg,,,,,,,,,0.0,80.0,80.0,80.0,,,,,,,,,,,,,,,855.1750535,None,,,0,1.64780874,857.6259021,None,857.6259021,None,,,856.459856,None,,,,,,,1,2022_Mar_24_1304,Real-fake-judgement-flashing-group1,2021.1.2,60.07179553
234,Trial # 82,Group1-stimuli/group1-block2/real-group1-b2/Group1_IMG_0548.jpg,1,Group1_IMG_0548.jpg,,,,,,,,,0.0,81.0,81.0,81.0,,,,,,,,,,,,,,,859.2933248,None,,,1,0.335786618,861.7619164,None,861.7619164,None,,,860.6114465,None,,,,,,,1,2022_Mar_24_1304,Real-fake-judgement-flashing-group1,2021.1.2,60.07179553
235,Trial # 83,Group1-stimuli/group1-block2/real-group1-b2/Group1_IMG_0229.jpg,1,Group1_IMG_0229.jpg,,,,,,,,,0.0,82.0,82.0,82.0,,,,,,,,,,,,,,,862.128621,None,,,0,0.350047378,864.6115905,None,864.6115905,None,,,863.4445278,None,,,,,,,1,2022_Mar_24_1304,Real-fake-judgement-flashing-group1,2021.1.2,60.07179553
236,Trial # 84,Group1-stimuli/group1-block2/fake-group2-b2/encoded_Group2_IMG_0365.jpg,0,encoded_Group2_IMG_0365.jpg,,,,,,,,,0.0,83.0,83.0,83.0,,,,,,,,,,,,,,,864.9945441,None,,,0,0.067307133,867.4623514,None,867.4623514,None,,,866.2795575,None,,,,,,,1,2022_Mar_24_1304,Real-fake-judgement-flashing-group1,2021.1.2,60.07179553
237,Trial # 85,Group1-stimuli/group1-block2/real-group1-b2/Group1_IMG_9822.jpg,1,Group1_IMG_9822.jpg,,,,,,,,,0.0,84.0,84.0,84.0,,,,,,,,,,,,,,,867.5623441,None,,,1,0.315368542,870.046349,None,870.046349,None,,,868.87948,None,,,,,,,1,2022_Mar_24_1304,Real-fake-judgement-flashing-group1,2021.1.2,60.07179553
238,Trial # 86,Group1-stimuli/group1-block2/fake-group2-b2/encoded_Group2_IMG_0195.jpg,0,encoded_Group2_IMG_0195.jpg,,,,,,,,,0.0,85.0,85.0,85.0,,,,,,,,,,,,,,,870.3795519,None,,,0,0.233486951,872.8641385,None,872.8641385,None,,,871.6814198,None,,,,,,,1,2022_Mar_24_1304,Real-fake-judgement-flashing-group1,2021.1.2,60.07179553
239,Trial # 87,Group1-stimuli/group1-block2/fake-group2-b2/encoded_Group2_IMG_0494.jpg,0,encoded_Group2_IMG_0494.jpg,,,,,,,,,0.0,86.0,86.0,86.0,,,,,,,,,,,,,,,873.1305879,None,,,0,1.218375055,875.6152618,None,875.6152618,None,,,874.4311464,None,,,,,,,1,2022_Mar_24_1304,Real-fake-judgement-flashing-group1,2021.1.2,60.07179553
240,Trial # 88,Group1-stimuli/group1-block2/real-group1-b2/Group1_IMG_0509.jpg,1,Group1_IMG_0509.jpg,,,,,,,,,0.0,87.0,87.0,87.0,,,,,,,,,,,,,,,876.8668549,None,,,1,1.548649151,879.349052,None,879.349052,None,,,878.1821936,None,,,,,,,1,2022_Mar_24_1304,Real-fake-judgement-flashing-group1,2021.1.2,60.07179553
241,Trial # 89,Group1-stimuli/group1-block2/fake-group2-b2/encoded_Group2_IMG_8924.jpg,0,encoded_Group2_IMG_8924.jpg,,,,,,,,,0.0,88.0,88.0,88.0,,,,,,,,,,,,,,,880.918118,None,,,1,0.313696695,883.3840609,None,883.3840609,None,,,882.2177416,None,,,,,,,1,2022_Mar_24_1304,Real-fake-judgement-flashing-group1,2021.1.2,60.07179553
242,Trial # 90,Group1-stimuli/group1-block2/real-group1-b2/Group1_IMG_0360.jpg,1,Group1_IMG_0360.jpg,,,,,,,,,0.0,89.0,89.0,89.0,,,,,,,,,,,,,,,883.7175491,None,,,0,0.518903783,886.2027984,None,886.2027984,None,,,885.0348974,None,,,,,,,1,2022_Mar_24_1304,Real-fake-judgement-flashing-group1,2021.1.2,60.07179553
243,Trial # 91,Group1-stimuli/group1-block2/fake-group2-b2/encoded_Group2_IMG_0523.jpg,0,encoded_Group2_IMG_0523.jpg,,,,,,,,,0.0,90.0,90.0,90.0,,,,,,,,,,,,,,,886.7528436,None,,,0,0.247532327,889.2021635,None,889.2021635,None,,,888.0352865,None,,,,,,,1,2022_Mar_24_1304,Real-fake-judgement-flashing-group1,2021.1.2,60.07179553
244,Trial # 92,Group1-stimuli/group1-block2/real-group1-b2/Group1_IMG_0518.jpg,1,Group1_IMG_0518.jpg,,,,,,,,,0.0,91.0,91.0,91.0,,,,,,,,,,,,,,,889.4693104,None,,,0,0.072680313,891.9370455,None,891.9370455,None,,,890.7708572,None,,,,,,,1,2022_Mar_24_1304,Real-fake-judgement-flashing-group1,2021.1.2,60.07179553
245,Trial # 93,Group1-stimuli/group1-block2/fake-group2-b2/encoded_Group2_IMG_0372.jpg,0,encoded_Group2_IMG_0372.jpg,,,,,,,,,0.0,92.0,92.0,92.0,,,,,,,,,,,,,,,892.0381644,None,,,0,0.06452265,894.5211709,None,894.5211709,None,,,893.3370236,None,,,,,,,1,2022_Mar_24_1304,Real-fake-judgement-flashing-group1,2021.1.2,60.07179553
246,Trial # 94,Group1-stimuli/group1-block2/fake-group2-b2/encoded_Group2_IMG_9761.jpg,0,encoded_Group2_IMG_9761.jpg,,,,,,,,,0.0,93.0,93.0,93.0,,,,,,,,,,,,,,,894.603834,None,,,0,1.361811855,897.0558887,None,897.0558887,None,,,895.8888619,None,,,,,,,1,2022_Mar_24_1304,Real-fake-judgement-flashing-group1,2021.1.2,60.07179553
247,Trial # 95,Group1-stimuli/group1-block2/real-group1-b2/Group1_IMG_2690.jpg,1,Group1_IMG_2690.jpg,,,,,,,,,0.0,94.0,94.0,94.0,,,,,,,,,,,,,,,898.4391617,None,,,0,0.735125564,900.9065761,None,900.9065761,None,,,899.7555209,None,,,,,,,1,2022_Mar_24_1304,Real-fake-judgement-flashing-group1,2021.1.2,60.07179553
248,Trial # 96,Group1-stimuli/group1-block2/real-group1-b2/Group1_IMG_9855.jpg,1,Group1_IMG_9855.jpg,,,,,,,,,0.0,95.0,95.0,95.0,,,,,,,,,,,,,,,901.6734589,None,,,1,0.132816023,904.1568819,None,904.1568819,None,,,902.9896507,None,,,,,,,1,2022_Mar_24_1304,Real-fake-judgement-flashing-group1,2021.1.2,60.07179553
249,Trial # 97,Group1-stimuli/group1-block2/fake-group2-b2/encoded_Group2_IMG_0470.jpg,0,encoded_Group2_IMG_0470.jpg,,,,,,,,,0.0,96.0,96.0,96.0,,,,,,,,,,,,,,,904.3075546,None,,,0,0.097928864,906.7756878,None,906.7756878,None,,,905.6088694,None,,,,,,,1,2022_Mar_24_1304,Real-fake-judgement-flashing-group1,2021.1.2,60.07179553
250,Trial # 98,Group1-stimuli/group1-block2/fake-group2-b2/encoded_Group2_IMG_1191.jpg,0,encoded_Group2_IMG_1191.jpg,,,,,,,,,0.0,97.0,97.0,97.0,,,,,,,,,,,,,,,906.892468,None,,,0,0.05050781,909.3751312,None,909.3751312,None,,,908.2080459,None,,,,,,,1,2022_Mar_24_1304,Real-fake-judgement-flashing-group1,2021.1.2,60.07179553
251,Trial # 99,Group1-stimuli/group1-block2/real-group1-b2/Group1_IMG_9937.jpg,1,Group1_IMG_9937.jpg,,,,,,,,,0.0,98.0,98.0,98.0,,,,,,,,,,,,,,,909.458612,None,,,1,0.21830592,911.9274069,None,911.9274069,None,,,910.7604058,None,,,,,,,1,2022_Mar_24_1304,Real-fake-judgement-flashing-group1,2021.1.2,60.07179553
252,Trial # 100,Group1-stimuli/group1-block2/fake-group2-b2/encoded_Group2_IMG_0106.jpg,0,encoded_Group2_IMG_0106.jpg,,,,,,,,,0.0,99.0,99.0,99.0,,,,,,,,,,,,,,,912.1760902,None,,,0,1.062128345,914.6435728,None,914.6435728,None,,,913.4764425,None,,,,,,,1,2022_Mar_24_1304,Real-fake-judgement-flashing-group1,2021.1.2,60.07179553
253,Trial # 101,Group1-stimuli/group1-block2/real-group1-b2/Group1_IMG_2790.jpg,1,Group1_IMG_2790.jpg,,,,,,,,,0.0,100.0,100.0,100.0,,,,,,,,,,,,,,,915.7284241,None,,,0,0.166960403,918.1946963,None,918.1946963,None,,,917.0280877,None,,,,,,,1,2022_Mar_24_1304,Real-fake-judgement-flashing-group1,2021.1.2,60.07179553
254,Trial # 102,Group1-stimuli/group1-block2/real-group1-b2/Group1_IMG_9792.jpg,1,Group1_IMG_9792.jpg,,,,,,,,,0.0,101.0,101.0,101.0,,,,,,,,,,,,,,,918.3781237,None,,,1,0.139834183,920.8458682,None,920.8458682,None,,,919.6950298,None,,,,,,,1,2022_Mar_24_1304,Real-fake-judgement-flashing-group1,2021.1.2,60.07179553
255,Trial # 103,Group1-stimuli/group1-block2/real-group1-b2/Group1_IMG_1640.jpg,1,Group1_IMG_1640.jpg,,,,,,,,,0.0,102.0,102.0,102.0,,,,,,,,,,,,,,,921.0137348,None,,,0,1.297184546,923.4965167,None,923.4965167,None,,,922.313784,None,,,,,,,1,2022_Mar_24_1304,Real-fake-judgement-flashing-group1,2021.1.2,60.07179553
256,Trial # 104,Group1-stimuli/group1-block2/real-group1-b2/Group1_IMG_0033.jpg,1,Group1_IMG_0033.jpg,,,,,,,,,0.0,103.0,103.0,103.0,,,,,,,,,,,,,,,924.8134345,None,,,0,0.472731994,927.2809715,None,927.2809715,None,,,926.1317269,None,,,,,,,1,2022_Mar_24_1304,Real-fake-judgement-flashing-group1,2021.1.2,60.07179553
257,Trial # 105,Group1-stimuli/group1-block2/real-group1-b2/Group1_IMG_0079.jpg,1,Group1_IMG_0079.jpg,,,,,,,,,0.0,104.0,104.0,104.0,,,,,,,,,,,,,,,927.7824748,None,,,0,0.448348468,930.2653509,None,930.2653509,None,,,929.1478571,None,,,,,,,1,2022_Mar_24_1304,Real-fake-judgement-flashing-group1,2021.1.2,60.07179553
258,Trial # 106,Group1-stimuli/group1-block2/fake-group2-b2/encoded_Group2_IMG_9909.jpg,0,encoded_Group2_IMG_9909.jpg,,,,,,,,,0.0,105.0,105.0,105.0,,,,,,,,,,,,,,,930.7332805,None,,,0,0.257573151,933.2161288,None,933.2161288,None,,,932.0335209,None,,,,,,,1,2022_Mar_24_1304,Real-fake-judgement-flashing-group1,2021.1.2,60.07179553
259,Trial # 107,Group1-stimuli/group1-block2/fake-group2-b2/encoded_Group2_IMG_0398.jpg,0,encoded_Group2_IMG_0398.jpg,,,,,,,,,0.0,106.0,106.0,106.0,,,,,,,,,,,,,,,933.5007078,None,,,0,0.202571163,935.9671384,None,935.9671384,None,,,934.7829038,None,,,,,,,1,2022_Mar_24_1304,Real-fake-judgement-flashing-group1,2021.1.2,60.07179553
260,Trial # 108,Group1-stimuli/group1-block2/real-group1-b2/Group1_IMG_4268.jpg,1,Group1_IMG_4268.jpg,,,,,,,,,0.0,107.0,107.0,107.0,,,,,,,,,,,,,,,936.2007589,None,,,0,0.221890697,938.6678126,None,938.6678126,None,,,937.5004447,None,,,,,,,1,2022_Mar_24_1304,Real-fake-judgement-flashing-group1,2021.1.2,60.07179553
261,Trial # 109,Group1-stimuli/group1-block2/fake-group2-b2/encoded_Group2_IMG_9321.jpg,0,encoded_Group2_IMG_9321.jpg,,,,,,,,,0.0,108.0,108.0,108.0,,,,,,,,,,,,,,,938.9178661,None,,,0,0.223306285,941.3863952,None,941.3863952,None,,,940.2180569,None,,,,,,,1,2022_Mar_24_1304,Real-fake-judgement-flashing-group1,2021.1.2,60.07179553
262,Trial # 110,Group1-stimuli/group1-block2/fake-group2-b2/encoded_Group2_IMG_9964.jpg,0,encoded_Group2_IMG_9964.jpg,,,,,,,,,0.0,109.0,109.0,109.0,,,,,,,,,,,,,,,941.636085,None,,,0,0.122930357,944.1027712,None,944.1027712,None,,,942.9354617,None,,,,,,,1,2022_Mar_24_1304,Real-fake-judgement-flashing-group1,2021.1.2,60.07179553
263,Trial # 111,Group1-stimuli/group1-block2/real-group1-b2/Group1_IMG_0329.jpg,1,Group1_IMG_0329.jpg,,,,,,,,,0.0,110.0,110.0,110.0,,,,,,,,,,,,,,,944.2534831,None,,,0,0.120086083,946.7216163,None,946.7216163,None,,,945.5697129,None,,,,,,,1,2022_Mar_24_1304,Real-fake-judgement-flashing-group1,2021.1.2,60.07179553
264,Trial # 112,Group1-stimuli/group1-block2/fake-group2-b2/encoded_Group2_IMG_0534.jpg,0,encoded_Group2_IMG_0534.jpg,,,,,,,,,0.0,111.0,111.0,111.0,,,,,,,,,,,,,,,946.8713761,None,,,0,0.743839607,949.3378609,None,949.3378609,None,,,948.170539,None,,,,,,,1,2022_Mar_24_1304,Real-fake-judgement-flashing-group1,2021.1.2,60.07179553
265,Trial # 113,Group1-stimuli/group1-block2/fake-group2-b2/encoded_Group2_IMG_0054.jpg,0,encoded_Group2_IMG_0054.jpg,,,,,,,,,0.0,112.0,112.0,112.0,,,,,,,,,,,,,,,950.1047294,None,,,0,0.211850767,952.5898286,None,952.5898286,None,,,951.4062371,None,,,,,,,1,2022_Mar_24_1304,Real-fake-judgement-flashing-group1,2021.1.2,60.07179553
266,Trial # 114,Group1-stimuli/group1-block2/real-group1-b2/Group1_IMG_9979.jpg,1,Group1_IMG_9979.jpg,,,,,,,,,0.0,113.0,113.0,113.0,,,,,,,,,,,,,,,952.8222401,None,,,1,1.184103515,955.2896424,None,955.2896424,None,,,954.1222278,None,,,,,,,1,2022_Mar_24_1304,Real-fake-judgement-flashing-group1,2021.1.2,60.07179553
267,Trial # 115,Group1-stimuli/group1-block2/real-group1-b2/Group1_IMG_0170.jpg,1,Group1_IMG_0170.jpg,,,,,,,,,0.0,114.0,114.0,114.0,,,,,,,,,,,,,,,956.4913231,None,,,0,0.659701636,958.9739989,None,958.9739989,None,,,957.8070083,None,,,,,,,1,2022_Mar_24_1304,Real-fake-judgement-flashing-group1,2021.1.2,60.07179553
268,Trial # 116,Group1-stimuli/group1-block2/fake-group2-b2/encoded_Group2_IMG_0007.jpg,0,encoded_Group2_IMG_0007.jpg,,,,,,,,,0.0,115.0,115.0,115.0,,,,,,,,,,,,,,,959.6575075,None,,,0,0.165188008,962.1085129,None,962.1085129,None,,,960.9421819,None,,,,,,,1,2022_Mar_24_1304,Real-fake-judgement-flashing-group1,2021.1.2,60.07179553
269,Trial # 117,Group1-stimuli/group1-block2/real-group1-b2/Group1_IMG_0192.jpg,1,Group1_IMG_0192.jpg,,,,,,,,,0.0,116.0,116.0,116.0,,,,,,,,,,,,,,,962.2928332,None,,,1,1.073804767,964.7759064,None,964.7759064,None,,,963.6253441,None,,,,,,,1,2022_Mar_24_1304,Real-fake-judgement-flashing-group1,2021.1.2,60.07179553
270,Trial # 118,Group1-stimuli/group1-block2/real-group1-b2/Group1_IMG_9786.jpg,1,Group1_IMG_9786.jpg,,,,,,,,,0.0,117.0,117.0,117.0,,,,,,,,,,,,,,,965.8775603,None,,,1,0.264620448,968.3610745,None,968.3610745,None,,,967.1943666,None,,,,,,,1,2022_Mar_24_1304,Real-fake-judgement-flashing-group1,2021.1.2,60.07179553
271,Trial # 119,Group1-stimuli/group1-block2/real-group1-b2/Group1_IMG_0187.jpg,1,Group1_IMG_0187.jpg,,,,,,,,,0.0,118.0,118.0,118.0,,,,,,,,,,,,,,,968.643936,None,,,1,0.234093557,971.111621,None,971.111621,None,,,969.9441869,None,,,,,,,1,2022_Mar_24_1304,Real-fake-judgement-flashing-group1,2021.1.2,60.07179553
272,Trial # 120,Group1-stimuli/group1-block2/fake-group2-b2/encoded_Group2_IMG_0249.jpg,0,encoded_Group2_IMG_0249.jpg,,,,,,,,,0.0,119.0,119.0,119.0,,,,,,,,,,,,,,,971.3623412,None,,,0,1.357177248,973.8285254,None,973.8285254,None,,,972.6616224,None,,,,,,,1,2022_Mar_24_1304,Real-fake-judgement-flashing-group1,2021.1.2,60.07179553
273,Trial # 121,Group1-stimuli/group1-block2/fake-group2-b2/encoded_Group2_IMG_0074.jpg,0,encoded_Group2_IMG_0074.jpg,,,,,,,,,0.0,120.0,120.0,120.0,,,,,,,,,,,,,,,975.2122773,None,,,1,0.314075881,977.6796274,None,977.6796274,None,,,976.530385,None,,,,,,,1,2022_Mar_24_1304,Real-fake-judgement-flashing-group1,2021.1.2,60.07179553
274,Trial # 122,Group1-stimuli/group1-block2/real-group1-b2/Group1_IMG_0243.jpg,1,Group1_IMG_0243.jpg,,,,,,,,,0.0,121.0,121.0,121.0,,,,,,,,,,,,,,,978.0134456,None,,,0,0.144384843,980.4973033,None,980.4973033,None,,,979.3302791,None,,,,,,,1,2022_Mar_24_1304,Real-fake-judgement-flashing-group1,2021.1.2,60.07179553
275,Trial # 123,Group1-stimuli/group1-block2/real-group1-b2/Group1_IMG_0130.jpg,1,Group1_IMG_0130.jpg,,,,,,,,,0.0,122.0,122.0,122.0,,,,,,,,,,,,,,,980.6643384,None,,,1,0.101483286,983.1482276,None,983.1482276,None,,,981.9821232,None,,,,,,,1,2022_Mar_24_1304,Real-fake-judgement-flashing-group1,2021.1.2,60.07179553
276,Trial # 124,Group1-stimuli/group1-block2/real-group1-b2/Group1_IMG_0298.jpg,1,Group1_IMG_0298.jpg,,,,,,,,,0.0,123.0,123.0,123.0,,,,,,,,,,,,,,,983.2817181,None,,,1,0.268154712,985.7494962,None,985.7494962,None,,,984.58227,None,,,,,,,1,2022_Mar_24_1304,Real-fake-judgement-flashing-group1,2021.1.2,60.07179553
277,Trial # 125,Group1-stimuli/group1-block2/real-group1-b2/Group1_IMG_5871.jpg,1,Group1_IMG_5871.jpg,,,,,,,,,0.0,124.0,124.0,124.0,,,,,,,,,,,,,,,986.0494388,None,,,0,1.189324324,988.5163789,None,988.5163789,None,,,987.3503646,None,,,,,,,1,2022_Mar_24_1304,Real-fake-judgement-flashing-group1,2021.1.2,60.07179553
278,Trial # 126,Group1-stimuli/group1-block2/fake-group2-b2/encoded_Group2_IMG_0479.jpg,0,encoded_Group2_IMG_0479.jpg,,,,,,,,,0.0,125.0,125.0,125.0,,,,,,,,,,,,,,,989.7340479,None,,,0,0.120191975,992.2175182,None,992.2175182,None,,,991.0351479,None,,,,,,,1,2022_Mar_24_1304,Real-fake-judgement-flashing-group1,2021.1.2,60.07179553
279,Trial # 127,Group1-stimuli/group1-block2/fake-group2-b2/encoded_Group2_IMG_4971.jpg,0,encoded_Group2_IMG_4971.jpg,,,,,,,,,0.0,126.0,126.0,126.0,,,,,,,,,,,,,,,992.3676524,None,,,1,0.222709607,994.8349937,None,994.8349937,None,,,993.668056,None,,,,,,,1,2022_Mar_24_1304,Real-fake-judgement-flashing-group1,2021.1.2,60.07179553
280,Trial # 128,Group1-stimuli/group1-block2/real-group1-b2/Group1_IMG_0173.jpg,1,Group1_IMG_0173.jpg,,,,,,,,,0.0,127.0,127.0,127.0,,,,,,,,,,,,,,,995.0856209,None,,,0,0.75288421,997.5528244,None,997.5528244,None,,,996.3867616,None,,,,,,,1,2022_Mar_24_1304,Real-fake-judgement-flashing-group1,2021.1.2,60.07179553
281,Trial # 129,Group1-stimuli/group1-block2/real-group1-b2/Group1_IMG_0213.jpg,1,Group1_IMG_0213.jpg,,,,,,,,,0.0,128.0,128.0,128.0,,,,,,,,,,,,,,,998.3363135,None,,,0,0.100795728,1000.804907,None,1000.804907,None,,,999.6366432,None,,,,,,,1,2022_Mar_24_1304,Real-fake-judgement-flashing-group1,2021.1.2,60.07179553
282,Trial # 130,Group1-stimuli/group1-block2/fake-group2-b2/encoded_Group2_IMG_0260.jpg,0,encoded_Group2_IMG_0260.jpg,,,,,,,,,0.0,129.0,129.0,129.0,,,,,,,,,,,,,,,1000.938665,None,,,0,0.301189152,1003.404498,None,1003.404498,None,,,1002.238563,None,,,,,,,1,2022_Mar_24_1304,Real-fake-judgement-flashing-group1,2021.1.2,60.07179553
283,Trial # 131,Group1-stimuli/group1-block2/fake-group2-b2/encoded_Group2_IMG_7291.jpg,0,encoded_Group2_IMG_7291.jpg,,,,,,,,,0.0,130.0,130.0,130.0,,,,,,,,,,,,,,,1003.737934,None,,,0,0.6266432,1006.223068,None,1006.223068,None,,,1005.038307,None,,,,,,,1,2022_Mar_24_1304,Real-fake-judgement-flashing-group1,2021.1.2,60.07179553
284,Trial # 132,Group1-stimuli/group1-block2/fake-group2-b2/encoded_Group2_IMG_0176.jpg,0,encoded_Group2_IMG_0176.jpg,,,,,,,,,0.0,131.0,131.0,131.0,,,,,,,,,,,,,,,1006.873519,None,,,0,0.949662971,1009.356056,None,1009.356056,None,,,1008.189217,None,,,,,,,1,2022_Mar_24_1304,Real-fake-judgement-flashing-group1,2021.1.2,60.07179553
285,Trial # 133,Group1-stimuli/group1-block2/real-group1-b2/Group1_IMG_9699.jpg,1,Group1_IMG_9699.jpg,,,,,,,,,0.0,132.0,132.0,132.0,,,,,,,,,,,,,,,1010.323062,None,,,0,0.714306426,1012.8074,None,1012.8074,None,,,1011.641605,None,,,,,,,1,2022_Mar_24_1304,Real-fake-judgement-flashing-group1,2021.1.2,60.07179553
286,Trial # 134,Group1-stimuli/group1-block2/real-group1-b2/Group1_IMG_0381.jpg,1,Group1_IMG_0381.jpg,,,,,,,,,0.0,133.0,133.0,133.0,,,,,,,,,,,,,,,1013.541188,None,,,1,0.472838018,1016.008865,None,1016.008865,None,,,1014.841309,None,,,,,,,1,2022_Mar_24_1304,Real-fake-judgement-flashing-group1,2021.1.2,60.07179553
287,Trial # 135,Group1-stimuli/group1-block2/real-group1-b2/Group1_IMG_0309.jpg,1,Group1_IMG_0309.jpg,,,,,,,,,0.0,134.0,134.0,134.0,,,,,,,,,,,,,,,1016.509918,None,,,1,0.208961035,1018.992748,None,1018.992748,None,,,1017.825878,None,,,,,,,1,2022_Mar_24_1304,Real-fake-judgement-flashing-group1,2021.1.2,60.07179553
288,Trial # 136,Group1-stimuli/group1-block2/fake-group2-b2/encoded_Group2_IMG_0041.jpg,0,encoded_Group2_IMG_0041.jpg,,,,,,,,,0.0,135.0,135.0,135.0,,,,,,,,,,,,,,,1019.226162,None,,,1,0.418941436,1021.694767,None,1021.694767,None,,,1020.50922,None,,,,,,,1,2022_Mar_24_1304,Real-fake-judgement-flashing-group1,2021.1.2,60.07179553
289,Trial # 137,Group1-stimuli/group1-block2/real-group1-b2/Group1_IMG_0303.jpg,1,Group1_IMG_0303.jpg,,,,,,,,,0.0,136.0,136.0,136.0,,,,,,,,,,,,,,,1022.144961,None,,,1,0.309985865,1024.627709,None,1024.627709,None,,,1023.477052,None,,,,,,,1,2022_Mar_24_1304,Real-fake-judgement-flashing-group1,2021.1.2,60.07179553
290,Trial # 138,Group1-stimuli/group1-block2/fake-group2-b2/encoded_Group2_IMG_0419.jpg,0,encoded_Group2_IMG_0419.jpg,,,,,,,,,0.0,137.0,137.0,137.0,,,,,,,,,,,,,,,1024.961342,None,,,0,0.435864868,1027.429847,None,1027.429847,None,,,1026.262515,None,,,,,,,1,2022_Mar_24_1304,Real-fake-judgement-flashing-group1,2021.1.2,60.07179553
291,Trial # 139,Group1-stimuli/group1-block2/real-group1-b2/Group1_IMG_0384.jpg,1,Group1_IMG_0384.jpg,,,,,,,,,0.0,138.0,138.0,138.0,,,,,,,,,,,,,,,1027.89541,None,,,1,0.270312717,1030.379416,None,1030.379416,None,,,1029.212416,None,,,,,,,1,2022_Mar_24_1304,Real-fake-judgement-flashing-group1,2021.1.2,60.07179553
292,Trial # 140,Group1-stimuli/group1-block2/real-group1-b2/Group1_IMG_0147.jpg,1,Group1_IMG_0147.jpg,,,,,,,,,0.0,139.0,139.0,139.0,,,,,,,,,,,,,,,1030.680458,None,,,1,0.261935944,1033.163774,None,1033.163774,None,,,1031.997809,None,,,,,,,1,2022_Mar_24_1304,Real-fake-judgement-flashing-group1,2021.1.2,60.07179553
293,Trial # 141,Group1-stimuli/group1-block2/real-group1-b2/Group1_IMG_9725.jpg,1,Group1_IMG_9725.jpg,,,,,,,,,0.0,140.0,140.0,140.0,,,,,,,,,,,,,,,1033.446726,None,,,1,0.222694752,1035.915023,None,1035.915023,None,,,1034.764113,None,,,,,,,1,2022_Mar_24_1304,Real-fake-judgement-flashing-group1,2021.1.2,60.07179553
294,Trial # 142,Group1-stimuli/group1-block2/real-group1-b2/Group1_IMG_0341.jpg,1,Group1_IMG_0341.jpg,,,,,,,,,0.0,141.0,141.0,141.0,,,,,,,,,,,,,,,1036.166042,None,,,1,0.089606396,1038.632095,None,1038.632095,None,,,1037.481641,None,,,,,,,1,2022_Mar_24_1304,Real-fake-judgement-flashing-group1,2021.1.2,60.07179553
295,Trial # 143,Group1-stimuli/group1-block2/fake-group2-b2/encoded_Group2_IMG_0072.jpg,0,encoded_Group2_IMG_0072.jpg,,,,,,,,,0.0,142.0,142.0,142.0,,,,,,,,,,,,,,,1038.74888,None,,,0,0.328255731,1041.217441,None,1041.217441,None,,,1040.065646,None,,,,,,,1,2022_Mar_24_1304,Real-fake-judgement-flashing-group1,2021.1.2,60.07179553
296,Trial # 144,Group1-stimuli/group1-block2/fake-group2-b2/encoded_Group2_IMG_0558.jpg,0,encoded_Group2_IMG_0558.jpg,,,,,,,,,0.0,143.0,143.0,143.0,,,,,,,,,,,,,,,1041.567523,None,,,0,0.303762,1044.033948,None,1044.033948,None,,,1042.867877,None,,,,,,,1,2022_Mar_24_1304,Real-fake-judgement-flashing-group1,2021.1.2,60.07179553
297,Trial # 145,Group1-stimuli/group1-block2/real-group1-b2/Group1_IMG_0493.jpg,1,Group1_IMG_0493.jpg,,,,,,,,,0.0,144.0,144.0,144.0,,,,,,,,,,,,,,,1044.367454,None,,,1,0.17399992,1046.835717,None,1046.835717,None,,,1045.684645,None,,,,,,,1,2022_Mar_24_1304,Real-fake-judgement-flashing-group1,2021.1.2,60.07179553
298,Trial # 146,Group1-stimuli/group1-block2/fake-group2-b2/encoded_Group2_IMG_1715.jpg,0,encoded_Group2_IMG_1715.jpg,,,,,,,,,0.0,145.0,145.0,145.0,,,,,,,,,,,,,,,1047.036166,None,,,0,0.939242144,1049.518471,None,1049.518471,None,,,1048.334889,None,,,,,,,1,2022_Mar_24_1304,Real-fake-judgement-flashing-group1,2021.1.2,60.07179553
299,Trial # 147,Group1-stimuli/group1-block2/fake-group2-b2/encoded_Group2_IMG_9807.jpg,0,encoded_Group2_IMG_9807.jpg,,,,,,,,,0.0,146.0,146.0,146.0,,,,,,,,,,,,,,,1050.48557,None,,,1,0.304520234,1052.95319,None,1052.95319,None,,,1051.787198,None,,,,,,,1,2022_Mar_24_1304,Real-fake-judgement-flashing-group1,2021.1.2,60.07179553
300,Trial # 148,Group1-stimuli/group1-block2/fake-group2-b2/encoded_Group2_IMG_0545.jpg,0,encoded_Group2_IMG_0545.jpg,,,,,,,,,0.0,147.0,147.0,147.0,,,,,,,,,,,,,,,1053.286704,None,,,0,0.335216524,1055.738555,None,1055.738555,None,,,1054.570306,None,,,,,,,1,2022_Mar_24_1304,Real-fake-judgement-flashing-group1,2021.1.2,60.07179553
301,Trial # 149,Group1-stimuli/group1-block2/real-group1-b2/Group1_IMG_9766.jpg,1,Group1_IMG_9766.jpg,,,,,,,,,0.0,148.0,148.0,148.0,,,,,,,,,,,,,,,1056.104702,None,,,1,0.301492254,1058.588216,None,1058.588216,None,,,1057.422362,None,,,,,,,1,2022_Mar_24_1304,Real-fake-judgement-flashing-group1,2021.1.2,60.07179553
302,Trial # 150,Group1-stimuli/group1-block2/fake-group2-b2/encoded_Group2_IMG_4956.jpg,0,encoded_Group2_IMG_4956.jpg,,,,,,,,,0.0,149.0,149.0,149.0,,,,,,,,,,,,,,,1058.921553,None,,,1,0.243431767,1061.390279,None,1061.390279,None,,,1060.238692,None,,,,,,,1,2022_Mar_24_1304,Real-fake-judgement-flashing-group1,2021.1.2,60.07179553
303,Trial # 1,Group1-stimuli/group1-block1/fake-group2-b1/encoded_Group2_IMG_3584.jpg,0,encoded_Group2_IMG_3584.jpg,,,,,,,,,,,,,0.0,0.0,0.0,0.0,,,,,,,,,,,1515.696125,None,,,0,0.33345938,1518.148178,None,1518.148178,None,1510.081835,None,1516.964709,None,1061.656106,None,1216.805141,None,,,1,2022_Mar_24_1304,Real-fake-judgement-flashing-group1,2021.1.2,60.07179553
304,Trial # 2,Group1-stimuli/group1-block1/fake-group2-b1/encoded_Group2_IMG_9804.jpg,0,encoded_Group2_IMG_9804.jpg,,,,,,,,,,,,,0.0,1.0,1.0,1.0,,,,,,,,,,,1518.51487,None,,,0,0.275158747,1520.998539,None,1520.998539,None,,,1519.814224,None,,,,,,,1,2022_Mar_24_1304,Real-fake-judgement-flashing-group1,2021.1.2,60.07179553
305,Trial # 3,Group1-stimuli/group1-block1/real-group1-b1/Group1_IMG_0022.jpg,1,Group1_IMG_0022.jpg,,,,,,,,,,,,,0.0,2.0,2.0,2.0,,,,,,,,,,,1521.298395,None,,,1,0.268166164,1523.765537,None,1523.765537,None,,,1522.598907,None,,,,,,,1,2022_Mar_24_1304,Real-fake-judgement-flashing-group1,2021.1.2,60.07179553
306,Trial # 4,Group1-stimuli/group1-block1/real-group1-b1/Group1_IMG_0239.jpg,1,Group1_IMG_0239.jpg,,,,,,,,,,,,,0.0,3.0,3.0,3.0,,,,,,,,,,,1524.065654,None,,,0,0.275343844,1526.534354,None,1526.534354,None,,,1525.365477,None,,,,,,,1,2022_Mar_24_1304,Real-fake-judgement-flashing-group1,2021.1.2,60.07179553
307,Trial # 5,Group1-stimuli/group1-block1/fake-group2-b1/encoded_Group2_IMG_9726.jpg,0,encoded_Group2_IMG_9726.jpg,,,,,,,,,,,,,0.0,4.0,4.0,4.0,,,,,,,,,,,1526.833572,None,,,0,0.253044981,1529.300645,None,1529.300645,None,,,1528.133539,None,,,,,,,1,2022_Mar_24_1304,Real-fake-judgement-flashing-group1,2021.1.2,60.07179553
308,Trial # 6,Group1-stimuli/group1-block1/real-group1-b1/Group1_IMG_0417.jpg,1,Group1_IMG_0417.jpg,,,,,,,,,,,,,0.0,5.0,5.0,5.0,,,,,,,,,,,1529.583831,None,,,0,0.293781046,1532.03592,None,1532.03592,None,,,1530.868555,None,,,,,,,1,2022_Mar_24_1304,Real-fake-judgement-flashing-group1,2021.1.2,60.07179553
309,Trial # 7,Group1-stimuli/group1-block1/real-group1-b1/Group1_IMG_9889.jpg,1,Group1_IMG_9889.jpg,,,,,,,,,,,,,0.0,6.0,6.0,6.0,,,,,,,,,,,1532.351622,None,,,0,0.214144833,1534.819461,None,1534.819461,None,,,1533.651746,None,,,,,,,1,2022_Mar_24_1304,Real-fake-judgement-flashing-group1,2021.1.2,60.07179553
310,Trial # 8,Group1-stimuli/group1-block1/real-group1-b1/Group1_IMG_0428.jpg,1,Group1_IMG_0428.jpg,,,,,,,,,,,,,0.0,7.0,7.0,7.0,,,,,,,,,,,1535.052621,None,,,1,0.465869104,1537.519826,None,1537.519826,None,,,1536.35301,None,,,,,,,1,2022_Mar_24_1304,Real-fake-judgement-flashing-group1,2021.1.2,60.07179553
