,Trial_num,image_path,ground_truth,image_name,demos.thisRepN,demos.thisTrialN,demos.thisN,demos.thisIndex,block1.thisRepN,block1.thisTrialN,block1.thisN,block1.thisIndex,block2.thisRepN,block2.thisTrialN,block2.thisN,block2.thisIndex,block1_rep2.thisRepN,block1_rep2.thisTrialN,block1_rep2.thisN,block1_rep2.thisIndex,block2_rep.thisRepN,block2_rep.thisTrialN,block2_rep.thisN,block2_rep.thisIndex,text_3.started,text_3.stopped,text_4.started,text_4.stopped,text.started,text.stopped,trail_num.started,trail_num.stopped,image_6.started,image_6.stopped,Judgement.keys,Judgement.rt,Judgement.started,Judgement.stopped,text_19.started,text_19.stopped,text_12.started,text_12.stopped,image.started,image.stopped,text_2.started,text_2.stopped,text_13.started,text_13.stopped,session,date,expName,psychopyVersion,frameRate,Unnamed: 54
0,Demo 1,demo/Demo_IMG_0974.jpg,demo,Demo_IMG_0974.jpg,0.0,0.0,0.0,0.0,,,,,,,,,,,,,,,,,12.798857492394744,None,68.88308351300657,None,85.2392025180161,None,87.90564750693738,None,89.27269879262894,None,1,5.305387713946402,90.37442893628032,None,90.37442893628032,None,,,,,,,,,1,2022_May_27_1431,Real-fake-judgement-flashing-group1,2021.1.2,60.25878774693221,
1,Demo 2,demo/Demo_IMG_1024.jpg,demo,Demo_IMG_1024.jpg,0.0,1.0,1.0,1.0,,,,,,,,,,,,,,,,,,,,,,,95.70850774738938,None,97.0925891175866,None,0,1.7672631163150072,98.19245678279547,None,98.19245678279547,None,,,,,,,,,1,2022_May_27_1431,Real-fake-judgement-flashing-group1,2021.1.2,60.25878774693221,
2,Demo 3,demo/Demo_seed_80003.png,demo,Demo_seed_80003.png,0.0,2.0,2.0,2.0,,,,,,,,,,,,,,,,,,,,,,,99.99273320753127,None,101.36094502266496,None,0,9.611161414533854,102.46064744051546,None,102.46064744051546,None,,,,,,,,,1,2022_May_27_1431,Real-fake-judgement-flashing-group1,2021.1.2,60.25878774693221,
3,Trial # 1,Group1-stimuli/group1-block1/real-group1-b1/Group1_IMG_0022.jpg,1,Group1_IMG_0022.jpg,,,,,0.0,0.0,0.0,0.0,,,,,,,,,,,,,,,,,,,119.75870460830627,None,,,0,0.9286071825772524,122.1831905497238,None,122.1831905497238,None,112.58034724090248,None,121.05035877134652,None,,,,,1,2022_May_27_1431,Real-fake-judgement-flashing-group1,2021.1.2,60.25878774693221,
4,Trial # 2,Group1-stimuli/group1-block1/fake-group2-b1/encoded_Group2_IMG_0386.jpg,0,encoded_Group2_IMG_0386.jpg,,,,,0.0,1.0,1.0,1.0,,,,,,,,,,,,,,,,,,,123.13301328197122,None,,,1,0.8777106152847409,125.61808265000582,None,125.61808265000582,None,,,124.45043883658946,None,,,,,1,2022_May_27_1431,Real-fake-judgement-flashing-group1,2021.1.2,60.25878774693221,
5,Trial # 3,Group1-stimuli/group1-block1/real-group1-b1/Group1_IMG_9704.jpg,1,Group1_IMG_9704.jpg,,,,,0.0,2.0,2.0,2.0,,,,,,,,,,,,,,,,,,,126.51923696696758,None,,,0,2.8376899044960737,129.00210658833385,None,129.00210658833385,None,,,127.83508268930018,None,,,,,1,2022_May_27_1431,Real-fake-judgement-flashing-group1,2021.1.2,60.25878774693221,
6,Trial # 4,Group1-stimuli/group1-block1/real-group1-b1/Group1_IMG_0406.jpg,1,Group1_IMG_0406.jpg,,,,,0.0,3.0,3.0,3.0,,,,,,,,,,,,,,,,,,,131.87058353144675,None,,,1,1.1816330654546618,134.37016154360026,None,134.37016154360026,None,,,133.18640540074557,None,,,,,1,2022_May_27_1431,Real-fake-judgement-flashing-group1,2021.1.2,60.25878774693221,
7,Trial # 5,Group1-stimuli/group1-block1/fake-group2-b1/encoded_Group2_IMG_0364.jpg,0,encoded_Group2_IMG_0364.jpg,,,,,0.0,4.0,4.0,4.0,,,,,,,,,,,,,,,,,,,135.57167016901076,None,,,0,1.521694271825254,138.03810014855117,None,138.03810014855117,None,,,136.87143496330827,None,,,,,1,2022_May_27_1431,Real-fake-judgement-flashing-group1,2021.1.2,60.25878774693221,
8,Trial # 6,Group1-stimuli/group1-block1/fake-group2-b1/encoded_Group2_IMG_0407.jpg,0,encoded_Group2_IMG_0407.jpg,,,,,0.0,5.0,5.0,5.0,,,,,,,,,,,,,,,,,,,139.58782750274986,None,,,1,3.095247473567724,142.07254741247743,None,142.07254741247743,None,,,140.90687656775117,None,,,,,1,2022_May_27_1431,Real-fake-judgement-flashing-group1,2021.1.2,60.25878774693221,
9,Trial # 7,Group1-stimuli/group1-block1/real-group1-b1/Group1_IMG_0428.jpg,1,Group1_IMG_0428.jpg,,,,,0.0,6.0,6.0,6.0,,,,,,,,,,,,,,,,,,,145.192030495964,None,,,1,0.9973870851099492,147.6743104076013,None,147.6743104076013,None,,,146.5082905413583,None,,,,,1,2022_May_27_1431,Real-fake-judgement-flashing-group1,2021.1.2,60.25878774693221,
10,Trial # 8,Group1-stimuli/group1-block1/fake-group2-b1/encoded_Group2_IMG_0474.jpg,0,encoded_Group2_IMG_0474.jpg,,,,,0.0,7.0,7.0,7.0,,,,,,,,,,,,,,,,,,,148.69209505338222,None,,,0,0.591590279713273,151.16020312998444,None,151.16020312998444,None,,,150.0250939335674,None,,,,,1,2022_May_27_1431,Real-fake-judgement-flashing-group1,2021.1.2,60.25878774693221,
11,Trial # 9,Group1-stimuli/group1-block1/fake-group2-b1/encoded_Group2_IMG_1506.jpg,0,encoded_Group2_IMG_1506.jpg,,,,,0.0,8.0,8.0,8.0,,,,,,,,,,,,,,,,,,,151.77681848406792,None,,,0,0.7719758786261082,154.25981909502298,None,154.25981909502298,None,,,153.09271724987775,None,,,,,1,2022_May_27_1431,Real-fake-judgement-flashing-group1,2021.1.2,60.25878774693221,
12,Trial # 10,Group1-stimuli/group1-block1/real-group1-b1/Group1_IMG_9789.jpg,1,Group1_IMG_9789.jpg,,,,,0.0,9.0,9.0,9.0,,,,,,,,,,,,,,,,,,,155.06001867353916,None,,,1,0.7198506258428097,157.544030838646,None,157.544030838646,None,,,156.39461017213762,None,,,,,1,2022_May_27_1431,Real-fake-judgement-flashing-group1,2021.1.2,60.25878774693221,
13,Trial # 11,Group1-stimuli/group1-block1/real-group1-b1/Group1_IMG_9778.jpg,1,Group1_IMG_9778.jpg,,,,,0.0,10.0,10.0,10.0,,,,,,,,,,,,,,,,,,,158.2945719873533,None,,,1,0.8696817383170128,160.76214166823777,None,160.76214166823777,None,,,159.6111042452976,None,,,,,1,2022_May_27_1431,Real-fake-judgement-flashing-group1,2021.1.2,60.25878774693221,
14,Trial # 12,Group1-stimuli/group1-block1/real-group1-b1/Group1_IMG_9813.jpg,1,Group1_IMG_9813.jpg,,,,,0.0,11.0,11.0,11.0,,,,,,,,,,,,,,,,,,,161.66349060088396,None,,,1,1.341213447973132,164.1465825997293,None,164.1465825997293,None,,,162.97909228038043,None,,,,,1,2022_May_27_1431,Real-fake-judgement-flashing-group1,2021.1.2,60.25878774693221,
15,Trial # 13,Group1-stimuli/group1-block1/real-group1-b1/Group1_IMG_0516.jpg,1,Group1_IMG_0516.jpg,,,,,0.0,12.0,12.0,12.0,,,,,,,,,,,,,,,,,,,165.51440919283775,None,,,1,0.6263540284708142,167.99743669759482,None,167.99743669759482,None,,,166.81473952159286,None,,,,,1,2022_May_27_1431,Real-fake-judgement-flashing-group1,2021.1.2,60.25878774693221,
16,Trial # 14,Group1-stimuli/group1-block1/fake-group2-b1/encoded_Group2_IMG_0038.jpg,0,encoded_Group2_IMG_0038.jpg,,,,,0.0,13.0,13.0,13.0,,,,,,,,,,,,,,,,,,,168.6474572410807,None,,,0,0.6197198014706373,171.11607334110886,None,171.11607334110886,None,,,169.96493910904974,None,,,,,1,2022_May_27_1431,Real-fake-judgement-flashing-group1,2021.1.2,60.25878774693221,
17,Trial # 15,Group1-stimuli/group1-block1/real-group1-b1/Group1_IMG_5984.jpg,1,Group1_IMG_5984.jpg,,,,,0.0,14.0,14.0,14.0,,,,,,,,,,,,,,,,,,,171.766291921027,None,,,1,0.6228784583508968,174.2488817134872,None,174.2488817134872,None,,,173.0988421598449,None,,,,,1,2022_May_27_1431,Real-fake-judgement-flashing-group1,2021.1.2,60.25878774693221,
18,Trial # 16,Group1-stimuli/group1-block1/real-group1-b1/Group1_IMG_0383.jpg,1,Group1_IMG_0383.jpg,,,,,0.0,15.0,15.0,15.0,,,,,,,,,,,,,,,,,,,174.89928385056555,None,,,1,0.944818526506424,177.36697658151388,None,177.36697658151388,None,,,176.21744520496577,None,,,,,1,2022_May_27_1431,Real-fake-judgement-flashing-group1,2021.1.2,60.25878774693221,
19,Trial # 17,Group1-stimuli/group1-block1/fake-group2-b1/encoded_Group2_IMG_0456.jpg,0,encoded_Group2_IMG_0456.jpg,,,,,0.0,16.0,16.0,16.0,,,,,,,,,,,,,,,,,,,178.33378208894283,None,,,0,0.6129406988620758,180.81885359063745,None,180.81885359063745,None,,,179.65033702086657,None,,,,,1,2022_May_27_1431,Real-fake-judgement-flashing-group1,2021.1.2,60.25878774693221,
20,Trial # 18,Group1-stimuli/group1-block1/fake-group2-b1/encoded_Group2_IMG_8390.jpg,0,encoded_Group2_IMG_8390.jpg,,,,,0.0,17.0,17.0,17.0,,,,,,,,,,,,,,,,,,,181.45270413998517,None,,,0,0.6000363864004612,183.9356857035309,None,183.9356857035309,None,,,182.75241873785853,None,,,,,1,2022_May_27_1431,Real-fake-judgement-flashing-group1,2021.1.2,60.25878774693221,
21,Trial # 19,Group1-stimuli/group1-block1/real-group1-b1/Group1_IMG_0011.jpg,1,Group1_IMG_0011.jpg,,,,,0.0,18.0,18.0,18.0,,,,,,,,,,,,,,,,,,,184.56852096971124,None,,,1,0.658144916407764,187.03765756450596,None,187.03765756450596,None,,,185.88732656743375,None,,,,,1,2022_May_27_1431,Real-fake-judgement-flashing-group1,2021.1.2,60.25878774693221,
22,Trial # 20,Group1-stimuli/group1-block1/fake-group2-b1/encoded_Group2_IMG_0328.jpg,0,encoded_Group2_IMG_0328.jpg,,,,,0.0,19.0,19.0,19.0,,,,,,,,,,,,,,,,,,,187.7202219441533,None,,,0,1.7152376314625144,190.20455328933892,None,190.20455328933892,None,,,189.02040090505037,None,,,,,1,2022_May_27_1431,Real-fake-judgement-flashing-group1,2021.1.2,60.25878774693221,
23,Trial # 21,Group1-stimuli/group1-block1/fake-group2-b1/encoded_Group2_IMG_0163.jpg,0,encoded_Group2_IMG_0163.jpg,,,,,0.0,20.0,20.0,20.0,,,,,,,,,,,,,,,,,,,191.93910278659317,None,,,0,0.81039865501225,194.40539397392425,None,194.40539397392425,None,,,193.23822843283412,None,,,,,1,2022_May_27_1431,Real-fake-judgement-flashing-group1,2021.1.2,60.25878774693221,
24,Trial # 22,Group1-stimuli/group1-block1/real-group1-b1/Group1_IMG_9862.jpg,1,Group1_IMG_9862.jpg,,,,,0.0,21.0,21.0,21.0,,,,,,,,,,,,,,,,,,,195.23940890003,None,,,1,0.63644512090832,197.72334981989115,None,197.72334981989115,None,,,196.5408580340445,None,,,,,1,2022_May_27_1431,Real-fake-judgement-flashing-group1,2021.1.2,60.25878774693221,
25,Trial # 23,Group1-stimuli/group1-block1/fake-group2-b1/encoded_Group2_IMG_0296.jpg,0,encoded_Group2_IMG_0296.jpg,,,,,0.0,22.0,22.0,22.0,,,,,,,,,,,,,,,,,,,198.38998533971608,None,,,0,0.3561266111209988,200.8756659058854,None,200.8756659058854,None,,,199.6903985999525,None,,,,,1,2022_May_27_1431,Real-fake-judgement-flashing-group1,2021.1.2,60.25878774693221,
26,Trial # 24,Group1-stimuli/group1-block1/fake-group2-b1/encoded_Group2_IMG_0503.jpg,0,encoded_Group2_IMG_0503.jpg,,,,,0.0,23.0,23.0,23.0,,,,,,,,,,,,,,,,,,,201.25777466967705,None,,,0,0.7620138488709927,203.74179435893893,None,203.74179435893893,None,,,202.55919292476028,None,,,,,1,2022_May_27_1431,Real-fake-judgement-flashing-group1,2021.1.2,60.25878774693221,
27,Trial # 25,Group1-stimuli/group1-block1/fake-group2-b1/encoded_Group2_IMG_9804.jpg,0,encoded_Group2_IMG_9804.jpg,,,,,0.0,24.0,24.0,24.0,,,,,,,,,,,,,,,,,,,204.52571884915236,None,,,1,0.6148466588929296,206.9928290927783,None,206.9928290927783,None,,,205.826789543964,None,,,,,1,2022_May_27_1431,Real-fake-judgement-flashing-group1,2021.1.2,60.25878774693221,
28,Trial # 26,Group1-stimuli/group1-block1/real-group1-b1/Group1_IMG_0391.jpg,1,Group1_IMG_0391.jpg,,,,,0.0,25.0,25.0,25.0,,,,,,,,,,,,,,,,,,,207.62642449047416,None,,,1,0.514493353664875,210.09327220823616,None,210.09327220823616,None,,,208.92643259186295,None,,,,,1,2022_May_27_1431,Real-fake-judgement-flashing-group1,2021.1.2,60.25878774693221,
29,Trial # 27,Group1-stimuli/group1-block1/fake-group2-b1/encoded_Group2_IMG_3584.jpg,0,encoded_Group2_IMG_3584.jpg,,,,,0.0,26.0,26.0,26.0,,,,,,,,,,,,,,,,,,,210.62824587430805,None,,,0,1.2083972347900271,213.11139315925536,None,213.11139315925536,None,,,211.9283815268427,None,,,,,1,2022_May_27_1431,Real-fake-judgement-flashing-group1,2021.1.2,60.25878774693221,
30,Trial # 28,Group1-stimuli/group1-block1/fake-group2-b1/encoded_Group2_IMG_0434.jpg,0,encoded_Group2_IMG_0434.jpg,,,,,0.0,27.0,27.0,27.0,,,,,,,,,,,,,,,,,,,214.34544891212136,None,,,1,0.5942071042954922,216.81359013170004,None,216.81359013170004,None,,,215.64575112052265,None,,,,,1,2022_May_27_1431,Real-fake-judgement-flashing-group1,2021.1.2,60.25878774693221,
31,Trial # 29,Group1-stimuli/group1-block1/fake-group2-b1/encoded_Group2_IMG_9575.jpg,0,encoded_Group2_IMG_9575.jpg,,,,,0.0,28.0,28.0,28.0,,,,,,,,,,,,,,,,,,,217.4300669375807,None,,,0,0.5431693289428949,219.89661630708724,None,219.89661630708724,None,,,218.72962192911652,None,,,,,1,2022_May_27_1431,Real-fake-judgement-flashing-group1,2021.1.2,60.25878774693221,
32,Trial # 30,Group1-stimuli/group1-block1/fake-group2-b1/encoded_Group2_IMG_1025.jpg,0,encoded_Group2_IMG_1025.jpg,,,,,0.0,29.0,29.0,29.0,,,,,,,,,,,,,,,,,,,220.46394756995144,None,,,1,0.5395606625825167,222.96423779334876,None,222.96423779334876,None,,,221.7652107765898,None,,,,,1,2022_May_27_1431,Real-fake-judgement-flashing-group1,2021.1.2,60.25878774693221,
33,Trial # 31,Group1-stimuli/group1-block1/real-group1-b1/Group1_IMG_0502.jpg,1,Group1_IMG_0502.jpg,,,,,0.0,30.0,30.0,30.0,,,,,,,,,,,,,,,,,,,223.5312532680109,None,,,0,0.8639130024239421,225.99987392965704,None,225.99987392965704,None,,,224.8316419152543,None,,,,,1,2022_May_27_1431,Real-fake-judgement-flashing-group1,2021.1.2,60.25878774693221,
34,Trial # 32,Group1-stimuli/group1-block1/real-group1-b1/Group1_IMG_0182.jpg,1,Group1_IMG_0182.jpg,,,,,0.0,31.0,31.0,31.0,,,,,,,,,,,,,,,,,,,226.88357792794704,None,,,1,0.5055532865226269,229.36623388156292,None,229.36623388156292,None,,,228.23275508265945,None,,,,,1,2022_May_27_1431,Real-fake-judgement-flashing-group1,2021.1.2,60.25878774693221,
35,Trial # 33,Group1-stimuli/group1-block1/fake-group2-b1/encoded_Group2_IMG_2728.jpg,0,encoded_Group2_IMG_2728.jpg,,,,,0.0,32.0,32.0,32.0,,,,,,,,,,,,,,,,,,,229.8993384297937,None,,,0,0.5994349624961615,232.3843426676467,None,232.3843426676467,None,,,231.20141264796257,None,,,,,1,2022_May_27_1431,Real-fake-judgement-flashing-group1,2021.1.2,60.25878774693221,
36,Trial # 34,Group1-stimuli/group1-block1/fake-group2-b1/encoded_Group2_IMG_4867.jpg,0,encoded_Group2_IMG_4867.jpg,,,,,0.0,33.0,33.0,33.0,,,,,,,,,,,,,,,,,,,233.00169974844903,None,,,0,1.146020301617682,235.4697785004973,None,235.4697785004973,None,,,234.3008905267343,None,,,,,1,2022_May_27_1431,Real-fake-judgement-flashing-group1,2021.1.2,60.25878774693221,
37,Trial # 35,Group1-stimuli/group1-block1/real-group1-b1/Group1_IMG_9894.jpg,1,Group1_IMG_9894.jpg,,,,,0.0,34.0,34.0,34.0,,,,,,,,,,,,,,,,,,,236.6354538220912,None,,,1,0.6251780139282346,239.10260096099228,None,239.10260096099228,None,,,237.93558443244547,None,,,,,1,2022_May_27_1431,Real-fake-judgement-flashing-group1,2021.1.2,60.25878774693221,
38,Trial # 36,Group1-stimuli/group1-block1/fake-group2-b1/encoded_Group2_IMG_0444.jpg,0,encoded_Group2_IMG_0444.jpg,,,,,0.0,35.0,35.0,35.0,,,,,,,,,,,,,,,,,,,239.75307421945035,None,,,0,0.3637053137645125,242.2201337730512,None,242.2201337730512,None,,,241.0543417790905,None,,,,,1,2022_May_27_1431,Real-fake-judgement-flashing-group1,2021.1.2,60.25878774693221,
39,Trial # 37,Group1-stimuli/group1-block1/real-group1-b1/Group1_IMG_2656.jpg,1,Group1_IMG_2656.jpg,,,,,0.0,36.0,36.0,36.0,,,,,,,,,,,,,,,,,,,242.60400085989383,None,,,1,0.4551437757909298,245.10464217234403,None,245.10464217234403,None,,,243.92070844303817,None,,,,,1,2022_May_27_1431,Real-fake-judgement-flashing-group1,2021.1.2,60.25878774693221,
40,Trial # 38,Group1-stimuli/group1-block1/real-group1-b1/Group1_IMG_0207.jpg,1,Group1_IMG_0207.jpg,,,,,0.0,37.0,37.0,37.0,,,,,,,,,,,,,,,,,,,245.5892053861171,None,,,1,0.6636706748977304,248.072119416669,None,248.072119416669,None,,,246.972927832976,None,,,,,1,2022_May_27_1431,Real-fake-judgement-flashing-group1,2021.1.2,60.25878774693221,
41,Trial # 39,Group1-stimuli/group1-block1/real-group1-b1/Group1_IMG_9638.jpg,1,Group1_IMG_9638.jpg,,,,,0.0,38.0,38.0,38.0,,,,,,,,,,,,,,,,,,,248.75590681284663,None,,,1,0.7514355648308992,251.240283803083,None,251.240283803083,None,,,250.0560363261029,None,,,,,1,2022_May_27_1431,Real-fake-judgement-flashing-group1,2021.1.2,60.25878774693221,
42,Trial # 40,Group1-stimuli/group1-block1/real-group1-b1/Group1_IMG_0148.jpg,1,Group1_IMG_0148.jpg,,,,,0.0,39.0,39.0,39.0,,,,,,,,,,,,,,,,,,,252.02460364531728,None,,,0,0.5403732052072883,254.50747242290527,None,254.50747242290527,None,,,253.35706269927323,None,,,,,1,2022_May_27_1431,Real-fake-judgement-flashing-group1,2021.1.2,60.25878774693221,
43,Trial # 41,Group1-stimuli/group1-block1/real-group1-b1/Group1_IMG_2891.jpg,1,Group1_IMG_2891.jpg,,,,,0.0,40.0,40.0,40.0,,,,,,,,,,,,,,,,,,,255.07442738767716,None,,,0,0.5935636386275291,257.55822099745274,None,257.55822099745274,None,,,256.3925733268261,None,,,,,1,2022_May_27_1431,Real-fake-judgement-flashing-group1,2021.1.2,60.25878774693221,
44,Trial # 42,Group1-stimuli/group1-block1/real-group1-b1/Group1_IMG_0157.jpg,1,Group1_IMG_0157.jpg,,,,,0.0,41.0,41.0,41.0,,,,,,,,,,,,,,,,,,,258.175036476925,None,,,1,0.3722188109531998,260.6595666445792,None,260.6595666445792,None,,,259.49242366477847,None,,,,,1,2022_May_27_1431,Real-fake-judgement-flashing-group1,2021.1.2,60.25878774693221,
45,Trial # 43,Group1-stimuli/group1-block1/real-group1-b1/Group1_IMG_9833.jpg,1,Group1_IMG_9833.jpg,,,,,0.0,42.0,42.0,42.0,,,,,,,,,,,,,,,,,,,261.0609044926241,None,,,0,0.5522301532328129,263.543557417579,None,263.543557417579,None,,,262.3930512089282,None,,,,,1,2022_May_27_1431,Real-fake-judgement-flashing-group1,2021.1.2,60.25878774693221,
46,Trial # 44,Group1-stimuli/group1-block1/fake-group2-b1/encoded_Group2_IMG_2230.jpg,0,encoded_Group2_IMG_2230.jpg,,,,,0.0,43.0,43.0,43.0,,,,,,,,,,,,,,,,,,,264.12688673101366,None,,,0,0.3971273545175791,266.59466290753335,None,266.59466290753335,None,,,265.44530384335667,None,,,,,1,2022_May_27_1431,Real-fake-judgement-flashing-group1,2021.1.2,60.25878774693221,
47,Trial # 45,Group1-stimuli/group1-block1/real-group1-b1/Group1_IMG_9966.jpg,1,Group1_IMG_9966.jpg,,,,,0.0,44.0,44.0,44.0,,,,,,,,,,,,,,,,,,,267.01140300929546,None,,,0,0.3851431561633944,269.4786438820884,None,269.4786438820884,None,,,268.3284888174385,None,,,,,1,2022_May_27_1431,Real-fake-judgement-flashing-group1,2021.1.2,60.25878774693221,
48,Trial # 46,Group1-stimuli/group1-block1/real-group1-b1/Group1_IMG_0239.jpg,1,Group1_IMG_0239.jpg,,,,,0.0,45.0,45.0,45.0,,,,,,,,,,,,,,,,,,,269.8956392696128,None,,,1,0.3646177491173148,272.36305827926844,None,272.36305827926844,None,,,271.197035250254,None,,,,,1,2022_May_27_1431,Real-fake-judgement-flashing-group1,2021.1.2,60.25878774693221,
49,Trial # 47,Group1-stimuli/group1-block1/fake-group2-b1/encoded_Group2_IMG_0536.jpg,0,encoded_Group2_IMG_0536.jpg,,,,,0.0,46.0,46.0,46.0,,,,,,,,,,,,,,,,,,,272.7470757905394,None,,,1,0.4879942312836647,275.2317928643897,None,275.2317928643897,None,,,274.04745815042406,None,,,,,1,2022_May_27_1431,Real-fake-judgement-flashing-group1,2021.1.2,60.25878774693221,
50,Trial # 48,Group1-stimuli/group1-block1/fake-group2-b1/encoded_Group2_IMG_0521.jpg,0,encoded_Group2_IMG_0521.jpg,,,,,0.0,47.0,47.0,47.0,,,,,,,,,,,,,,,,,,,275.7477999581024,None,,,0,0.3683066507801413,278.23150230105966,None,278.23150230105966,None,,,277.0476308884099,None,,,,,1,2022_May_27_1431,Real-fake-judgement-flashing-group1,2021.1.2,60.25878774693221,
51,Trial # 49,Group1-stimuli/group1-block1/fake-group2-b1/encoded_Group2_IMG_9924.jpg,0,encoded_Group2_IMG_9924.jpg,,,,,0.0,48.0,48.0,48.0,,,,,,,,,,,,,,,,,,,278.63158332463354,None,,,1,0.3082165429368615,281.09957040660083,None,281.09957040660083,None,,,279.9314471166581,None,,,,,1,2022_May_27_1431,Real-fake-judgement-flashing-group1,2021.1.2,60.25878774693221,
52,Trial # 50,Group1-stimuli/group1-block1/real-group1-b1/Group1_IMG_9730.jpg,1,Group1_IMG_9730.jpg,,,,,0.0,49.0,49.0,49.0,,,,,,,,,,,,,,,,,,,281.433975902386,None,,,1,0.3475776836276054,283.90016971249133,None,283.90016971249133,None,,,282.7327724425122,None,,,,,1,2022_May_27_1431,Real-fake-judgement-flashing-group1,2021.1.2,60.25878774693221,
53,Trial # 51,Group1-stimuli/group1-block1/real-group1-b1/Group1_IMG_0053.jpg,1,Group1_IMG_0053.jpg,,,,,0.0,50.0,50.0,50.0,,,,,,,,,,,,,,,,,,,284.2667950242758,None,,,1,0.4084624564275145,286.7353328615427,None,286.7353328615427,None,,,285.5682012317702,None,,,,,1,2022_May_27_1431,Real-fake-judgement-flashing-group1,2021.1.2,60.25878774693221,
54,Trial # 52,Group1-stimuli/group1-block1/real-group1-b1/Group1_IMG_9698.jpg,1,Group1_IMG_9698.jpg,,,,,0.0,51.0,51.0,51.0,,,,,,,,,,,,,,,,,,,287.16803440079093,None,,,1,0.3080917419865727,289.65169502049685,None,289.65169502049685,None,,,288.4678774308413,None,,,,,1,2022_May_27_1431,Real-fake-judgement-flashing-group1,2021.1.2,60.25878774693221,
55,Trial # 53,Group1-stimuli/group1-block1/fake-group2-b1/encoded_Group2_IMG_0553.jpg,0,encoded_Group2_IMG_0553.jpg,,,,,0.0,52.0,52.0,52.0,,,,,,,,,,,,,,,,,,,289.9852671632543,None,,,0,0.3226119708269834,292.4691738784313,None,292.4691738784313,None,,,291.2867012675852,None,,,,,1,2022_May_27_1431,Real-fake-judgement-flashing-group1,2021.1.2,60.25878774693221,
56,Trial # 54,Group1-stimuli/group1-block1/fake-group2-b1/encoded_Group2_IMG_9758.jpg,0,encoded_Group2_IMG_9758.jpg,,,,,0.0,53.0,53.0,53.0,,,,,,,,,,,,,,,,,,,292.81912808213383,None,,,0,0.6238939920440316,295.2878864137456,None,295.2878864137456,None,,,294.1196897085756,None,,,,,1,2022_May_27_1431,Real-fake-judgement-flashing-group1,2021.1.2,60.25878774693221,
57,Trial # 55,Group1-stimuli/group1-block1/fake-group2-b1/encoded_Group2_IMG_0339.jpg,0,encoded_Group2_IMG_0339.jpg,,,,,0.0,54.0,54.0,54.0,,,,,,,,,,,,,,,,,,,295.9384008804336,None,,,1,0.3952946867793798,298.404491186142,None,298.404491186142,None,,,297.2374074226245,None,,,,,1,2022_May_27_1431,Real-fake-judgement-flashing-group1,2021.1.2,60.25878774693221,
58,Trial # 56,Group1-stimuli/group1-block1/real-group1-b1/Group1_IMG_0314.jpg,1,Group1_IMG_0314.jpg,,,,,0.0,55.0,55.0,55.0,,,,,,,,,,,,,,,,,,,298.82193537801504,None,,,0,0.5172278145328164,301.3064878247678,None,301.3064878247678,None,,,300.1218329397961,None,,,,,1,2022_May_27_1431,Real-fake-judgement-flashing-group1,2021.1.2,60.25878774693221,
59,Trial # 57,Group1-stimuli/group1-block1/fake-group2-b1/encoded_Group2_IMG_0532.jpg,0,encoded_Group2_IMG_0532.jpg,,,,,0.0,56.0,56.0,56.0,,,,,,,,,,,,,,,,,,,301.85669976845384,None,,,0,0.3083252403885126,304.33947445079684,None,304.33947445079684,None,,,303.1723184566945,None,,,,,1,2022_May_27_1431,Real-fake-judgement-flashing-group1,2021.1.2,60.25878774693221,
60,Trial # 58,Group1-stimuli/group1-block1/fake-group2-b1/encoded_Group2_IMG_0462.jpg,0,encoded_Group2_IMG_0462.jpg,,,,,0.0,57.0,57.0,57.0,,,,,,,,,,,,,,,,,,,304.6727621052414,None,,,0,0.2908240463584661,307.15696112345904,None,307.15696112345904,None,,,305.9745108038187,None,,,,,1,2022_May_27_1431,Real-fake-judgement-flashing-group1,2021.1.2,60.25878774693221,
61,Trial # 59,Group1-stimuli/group1-block1/real-group1-b1/Group1_IMG_0172.jpg,1,Group1_IMG_0172.jpg,,,,,0.0,58.0,58.0,58.0,,,,,,,,,,,,,,,,,,,307.47413569223136,None,,,1,0.2901978669688105,309.95758835971355,None,309.95758835971355,None,,,308.7907510343939,None,,,,,1,2022_May_27_1431,Real-fake-judgement-flashing-group1,2021.1.2,60.25878774693221,
62,Trial # 60,Group1-stimuli/group1-block1/real-group1-b1/Group1_IMG_4841.jpg,1,Group1_IMG_4841.jpg,,,,,0.0,59.0,59.0,59.0,,,,,,,,,,,,,,,,,,,310.27502166014165,None,,,1,0.3450585678219795,312.758778876625,None,312.758778876625,None,,,311.5930706206709,None,,,,,1,2022_May_27_1431,Real-fake-judgement-flashing-group1,2021.1.2,60.25878774693221,
63,Trial # 61,Group1-stimuli/group1-block1/fake-group2-b1/encoded_Group2_IMG_0352.jpg,0,encoded_Group2_IMG_0352.jpg,,,,,0.0,60.0,60.0,60.0,,,,,,,,,,,,,,,,,,,313.1262053642422,None,,,0,0.2944841794669628,315.593310569413,None,315.593310569413,None,,,314.42592569068074,None,,,,,1,2022_May_27_1431,Real-fake-judgement-flashing-group1,2021.1.2,60.25878774693221,
64,Trial # 62,Group1-stimuli/group1-block1/fake-group2-b1/encoded_Group2_IMG_9726.jpg,0,encoded_Group2_IMG_9726.jpg,,,,,0.0,61.0,61.0,61.0,,,,,,,,,,,,,,,,,,,315.9110704353079,None,,,0,0.4861349230632186,318.3936507087201,None,318.3936507087201,None,,,317.2112825885415,None,,,,,1,2022_May_27_1431,Real-fake-judgement-flashing-group1,2021.1.2,60.25878774693221,
65,Trial # 63,Group1-stimuli/group1-block1/fake-group2-b1/encoded_Group2_IMG_9785.jpg,0,encoded_Group2_IMG_9785.jpg,,,,,0.0,62.0,62.0,62.0,,,,,,,,,,,,,,,,,,,318.9110207008198,None,,,1,0.3239581370726228,321.3958634035662,None,321.3958634035662,None,,,320.2104152329266,None,,,,,1,2022_May_27_1431,Real-fake-judgement-flashing-group1,2021.1.2,60.25878774693221,
66,Trial # 64,Group1-stimuli/group1-block1/fake-group2-b1/encoded_Group2_IMG_0440.jpg,0,encoded_Group2_IMG_0440.jpg,,,,,0.0,63.0,63.0,63.0,,,,,,,,,,,,,,,,,,,321.74514077510685,None,,,1,0.3626369852572679,324.21315242536366,None,324.21315242536366,None,,,323.0452705062926,None,,,,,1,2022_May_27_1431,Real-fake-judgement-flashing-group1,2021.1.2,60.25878774693221,
67,Trial # 65,Group1-stimuli/group1-block1/fake-group2-b1/encoded_Group2_IMG_1695.jpg,0,encoded_Group2_IMG_1695.jpg,,,,,0.0,64.0,64.0,64.0,,,,,,,,,,,,,,,,,,,324.5956515977159,None,,,0,0.4801237126812339,327.0796705028042,None,327.0796705028042,None,,,325.91332776192576,None,,,,,1,2022_May_27_1431,Real-fake-judgement-flashing-group1,2021.1.2,60.25878774693221,
68,Trial # 66,Group1-stimuli/group1-block1/real-group1-b1/Group1_IMG_0552.jpg,1,Group1_IMG_0552.jpg,,,,,0.0,65.0,65.0,65.0,,,,,,,,,,,,,,,,,,,327.58014173060656,None,,,1,0.3598486706614494,330.0639884611592,None,330.0639884611592,None,,,328.89687130227685,None,,,,,1,2022_May_27_1431,Real-fake-judgement-flashing-group1,2021.1.2,60.25878774693221,
69,Trial # 67,Group1-stimuli/group1-block1/real-group1-b1/Group1_IMG_1029.jpg,1,Group1_IMG_1029.jpg,,,,,0.0,66.0,66.0,66.0,,,,,,,,,,,,,,,,,,,330.4490425074473,None,,,0,0.3322426807135343,332.93157019931823,None,332.93157019931823,None,,,331.749155764468,None,,,,,1,2022_May_27_1431,Real-fake-judgement-flashing-group1,2021.1.2,60.25878774693221,
70,Trial # 68,Group1-stimuli/group1-block1/fake-group2-b1/encoded_Group2_IMG_6517.jpg,0,encoded_Group2_IMG_6517.jpg,,,,,0.0,67.0,67.0,67.0,,,,,,,,,,,,,,,,,,,333.2822083514184,None,,,0,1.3940776586532593,335.74970651976764,None,335.74970651976764,None,,,334.5815895469859,None,,,,,1,2022_May_27_1431,Real-fake-judgement-flashing-group1,2021.1.2,60.25878774693221,
71,Trial # 69,Group1-stimuli/group1-block1/fake-group2-b1/encoded_Group2_IMG_0002.jpg,0,encoded_Group2_IMG_0002.jpg,,,,,0.0,68.0,68.0,68.0,,,,,,,,,,,,,,,,,,,337.1676028240472,None,,,1,0.3415661146864295,339.6502376999706,None,339.6502376999706,None,,,338.48293446563184,None,,,,,1,2022_May_27_1431,Real-fake-judgement-flashing-group1,2021.1.2,60.25878774693221,
72,Trial # 70,Group1-stimuli/group1-block1/real-group1-b1/Group1_IMG_0495.jpg,1,Group1_IMG_0495.jpg,,,,,0.0,69.0,69.0,69.0,,,,,,,,,,,,,,,,,,,340.01806926354766,None,,,0,1.5217773513868451,342.48600879404694,None,342.48600879404694,None,,,341.3355897665024,None,,,,,1,2022_May_27_1431,Real-fake-judgement-flashing-group1,2021.1.2,60.25878774693221,
73,Trial # 71,Group1-stimuli/group1-block1/real-group1-b1/Group1_IMG_1391.jpg,1,Group1_IMG_1391.jpg,,,,,0.0,70.0,70.0,70.0,,,,,,,,,,,,,,,,,,,344.0363102154806,None,,,1,0.3287046765908599,346.5030807117,None,346.5030807117,None,,,345.3525514258072,None,,,,,1,2022_May_27_1431,Real-fake-judgement-flashing-group1,2021.1.2,60.25878774693221,
74,Trial # 72,Group1-stimuli/group1-block1/real-group1-b1/Group1_IMG_0343.jpg,1,Group1_IMG_0343.jpg,,,,,0.0,71.0,71.0,71.0,,,,,,,,,,,,,,,,,,,346.85277439281344,None,,,1,0.334923411719501,349.3368631275371,None,349.3368631275371,None,,,348.1696485588327,None,,,,,1,2022_May_27_1431,Real-fake-judgement-flashing-group1,2021.1.2,60.25878774693221,
75,Trial # 73,Group1-stimuli/group1-block1/fake-group2-b1/encoded_Group2_IMG_9810.jpg,0,encoded_Group2_IMG_9810.jpg,,,,,0.0,72.0,72.0,72.0,,,,,,,,,,,,,,,,,,,349.7033650483936,None,,,0,0.2996398042887449,352.1720820954069,None,352.1720820954069,None,,,351.00517881289124,None,,,,,1,2022_May_27_1431,Real-fake-judgement-flashing-group1,2021.1.2,60.25878774693221,
76,Trial # 74,Group1-stimuli/group1-block1/fake-group2-b1/encoded_Group2_IMG_5900.jpg,0,encoded_Group2_IMG_5900.jpg,,,,,0.0,73.0,73.0,73.0,,,,,,,,,,,,,,,,,,,352.5044596074149,None,,,1,0.4755503311753273,354.97223503049463,None,354.97223503049463,None,,,353.8048059558496,None,,,,,1,2022_May_27_1431,Real-fake-judgement-flashing-group1,2021.1.2,60.25878774693221,
77,Trial # 75,Group1-stimuli/group1-block1/real-group1-b1/Group1_IMG_9679.jpg,1,Group1_IMG_9679.jpg,,,,,0.0,74.0,74.0,74.0,,,,,,,,,,,,,,,,,,,355.4732691394165,None,,,1,0.3156645521521568,357.95613728277385,None,357.95613728277385,None,,,356.790293160826,None,,,,,1,2022_May_27_1431,Real-fake-judgement-flashing-group1,2021.1.2,60.25878774693221,
78,Trial # 76,Group1-stimuli/group1-block1/fake-group2-b1/encoded_Group2_IMG_4249.jpg,0,encoded_Group2_IMG_4249.jpg,,,,,0.0,75.0,75.0,75.0,,,,,,,,,,,,,,,,,,,358.28968584071845,None,,,0,0.3457646872848272,360.758021296002,None,360.758021296002,None,,,359.6064864844084,None,,,,,1,2022_May_27_1431,Real-fake-judgement-flashing-group1,2021.1.2,60.25878774693221,
79,Trial # 77,Group1-stimuli/group1-block1/fake-group2-b1/encoded_Group2_IMG_0174.jpg,0,encoded_Group2_IMG_0174.jpg,,,,,0.0,76.0,76.0,76.0,,,,,,,,,,,,,,,,,,,361.1252752505243,None,,,1,0.3914084555581212,363.6083795437589,None,363.6083795437589,None,,,362.4254243923351,None,,,,,1,2022_May_27_1431,Real-fake-judgement-flashing-group1,2021.1.2,60.25878774693221,
80,Trial # 78,Group1-stimuli/group1-block1/fake-group2-b1/encoded_Group2_IMG_0475.jpg,0,encoded_Group2_IMG_0475.jpg,,,,,0.0,77.0,77.0,77.0,,,,,,,,,,,,,,,,,,,364.02472147904336,None,,,0,0.2906173206865787,366.493162936531,None,366.493162936531,None,,,365.309392307885,None,,,,,1,2022_May_27_1431,Real-fake-judgement-flashing-group1,2021.1.2,60.25878774693221,
81,Trial # 79,Group1-stimuli/group1-block1/fake-group2-b1/encoded_Group2_IMG_9751.jpg,0,encoded_Group2_IMG_9751.jpg,,,,,0.0,78.0,78.0,78.0,,,,,,,,,,,,,,,,,,,366.8101280806586,None,,,0,0.3461885238066315,369.293611779809,None,369.293611779809,None,,,368.10896785277873,None,,,,,1,2022_May_27_1431,Real-fake-judgement-flashing-group1,2021.1.2,60.25878774693221,
82,Trial # 80,Group1-stimuli/group1-block1/fake-group2-b1/encoded_Group2_IMG_0492.jpg,0,encoded_Group2_IMG_0492.jpg,,,,,0.0,79.0,79.0,79.0,,,,,,,,,,,,,,,,,,,369.65975142270327,None,,,0,0.4161079674959183,372.12768719065934,None,372.12768719065934,None,,,370.9612646298483,None,,,,,1,2022_May_27_1431,Real-fake-judgement-flashing-group1,2021.1.2,60.25878774693221,
83,Trial # 81,Group1-stimuli/group1-block1/real-group1-b1/Group1_IMG_0535.jpg,1,Group1_IMG_0535.jpg,,,,,0.0,80.0,80.0,80.0,,,,,,,,,,,,,,,,,,,372.5606041913852,None,,,1,0.3788535511121154,375.044932724908,None,375.044932724908,None,,,373.8777448125184,None,,,,,1,2022_May_27_1431,Real-fake-judgement-flashing-group1,2021.1.2,60.25878774693221,
84,Trial # 82,Group1-stimuli/group1-block1/real-group1-b1/Group1_IMG_0077.jpg,1,Group1_IMG_0077.jpg,,,,,0.0,81.0,81.0,81.0,,,,,,,,,,,,,,,,,,,375.4462842186913,None,,,1,0.3352057160809636,377.9286084389314,None,377.9286084389314,None,,,376.76224005036056,None,,,,,1,2022_May_27_1431,Real-fake-judgement-flashing-group1,2021.1.2,60.25878774693221,
85,Trial # 83,Group1-stimuli/group1-block1/fake-group2-b1/encoded_Group2_IMG_9702.jpg,0,encoded_Group2_IMG_9702.jpg,,,,,0.0,82.0,82.0,82.0,,,,,,,,,,,,,,,,,,,378.29601349309087,None,,,0,0.2753762491047382,380.76440792158246,None,380.76440792158246,None,,,379.6122930739075,None,,,,,1,2022_May_27_1431,Real-fake-judgement-flashing-group1,2021.1.2,60.25878774693221,
86,Trial # 84,Group1-stimuli/group1-block1/real-group1-b1/Group1_IMG_0357.jpg,1,Group1_IMG_0357.jpg,,,,,0.0,83.0,83.0,83.0,,,,,,,,,,,,,,,,,,,381.06483918614686,None,,,1,0.3640408525243401,383.56374097056687,None,383.56374097056687,None,,,382.380119567737,None,,,,,1,2022_May_27_1431,Real-fake-judgement-flashing-group1,2021.1.2,60.25878774693221,
87,Trial # 85,Group1-stimuli/group1-block1/real-group1-b1/Group1_IMG_9772.jpg,1,Group1_IMG_9772.jpg,,,,,0.0,84.0,84.0,84.0,,,,,,,,,,,,,,,,,,,383.9474970530719,None,,,1,0.3675444545224309,386.4162423424423,None,386.4162423424423,None,,,385.2490121964365,None,,,,,1,2022_May_27_1431,Real-fake-judgement-flashing-group1,2021.1.2,60.25878774693221,
88,Trial # 86,Group1-stimuli/group1-block1/real-group1-b1/Group1_IMG_0482.jpg,1,Group1_IMG_0482.jpg,,,,,0.0,85.0,85.0,85.0,,,,,,,,,,,,,,,,,,,386.8163078026846,None,,,1,0.3165141884237528,389.29922257736325,None,389.29922257736325,None,,,388.1492715450004,None,,,,,1,2022_May_27_1431,Real-fake-judgement-flashing-group1,2021.1.2,60.25878774693221,
89,Trial # 87,Group1-stimuli/group1-block1/real-group1-b1/Group1_IMG_0299.jpg,1,Group1_IMG_0299.jpg,,,,,0.0,86.0,86.0,86.0,,,,,,,,,,,,,,,,,,,389.6320180688053,None,,,1,0.3069922346621752,392.1168194403872,None,392.1168194403872,None,,,390.9341322258115,None,,,,,1,2022_May_27_1431,Real-fake-judgement-flashing-group1,2021.1.2,60.25878774693221,
90,Trial # 88,Group1-stimuli/group1-block1/fake-group2-b1/encoded_Group2_IMG_0301.jpg,0,encoded_Group2_IMG_0301.jpg,,,,,0.0,87.0,87.0,87.0,,,,,,,,,,,,,,,,,,,392.4502318240702,None,,,1,0.3220964940264821,394.9176867827773,None,394.9176867827773,None,,,393.75043626036495,None,,,,,1,2022_May_27_1431,Real-fake-judgement-flashing-group1,2021.1.2,60.25878774693221,
91,Trial # 89,Group1-stimuli/group1-block1/fake-group2-b1/encoded_Group2_IMG_5136.jpg,0,encoded_Group2_IMG_5136.jpg,,,,,0.0,88.0,88.0,88.0,,,,,,,,,,,,,,,,,,,395.26821000594646,None,,,0,0.9286474799737334,397.735174395144,None,397.735174395144,None,,,396.5690568415448,None,,,,,1,2022_May_27_1431,Real-fake-judgement-flashing-group1,2021.1.2,60.25878774693221,
92,Trial # 90,Group1-stimuli/group1-block1/real-group1-b1/Group1_IMG_0460.jpg,1,Group1_IMG_0460.jpg,,,,,0.0,89.0,89.0,89.0,,,,,,,,,,,,,,,,,,,398.6854818053544,None,,,0,0.3257146943360567,401.1540712071583,None,401.1540712071583,None,,,400.0023254565895,None,,,,,1,2022_May_27_1431,Real-fake-judgement-flashing-group1,2021.1.2,60.25878774693221,
93,Trial # 91,Group1-stimuli/group1-block1/fake-group2-b1/encoded_Group2_IMG_0068.jpg,0,encoded_Group2_IMG_0068.jpg,,,,,0.0,90.0,90.0,90.0,,,,,,,,,,,,,,,,,,,401.5042519485578,None,,,0,0.2842747084796428,404.0034602005034,None,404.0034602005034,None,,,402.8198819886893,None,,,,,1,2022_May_27_1431,Real-fake-judgement-flashing-group1,2021.1.2,60.25878774693221,
94,Trial # 92,Group1-stimuli/group1-block1/real-group1-b1/Group1_IMG_0337.jpg,1,Group1_IMG_0337.jpg,,,,,0.0,91.0,91.0,91.0,,,,,,,,,,,,,,,,,,,404.32069686986506,None,,,0,0.3476691618561744,406.7882360620424,None,406.7882360620424,None,,,405.62215242162347,None,,,,,1,2022_May_27_1431,Real-fake-judgement-flashing-group1,2021.1.2,60.25878774693221,
95,Trial # 93,Group1-stimuli/group1-block1/fake-group2-b1/encoded_Group2_IMG_0346.jpg,0,encoded_Group2_IMG_0346.jpg,,,,,0.0,92.0,92.0,92.0,,,,,,,,,,,,,,,,,,,407.1544363396242,None,,,1,0.3216404188424349,409.6221702964976,None,409.6221702964976,None,,,408.4550170041621,None,,,,,1,2022_May_27_1431,Real-fake-judgement-flashing-group1,2021.1.2,60.25878774693221,
96,Trial # 94,Group1-stimuli/group1-block1/real-group1-b1/Group1_IMG_4253.jpg,1,Group1_IMG_4253.jpg,,,,,0.0,93.0,93.0,93.0,,,,,,,,,,,,,,,,,,,409.972159252502,None,,,1,0.3122124308720231,412.4395701028407,None,412.4395701028407,None,,,411.2735737916082,None,,,,,1,2022_May_27_1431,Real-fake-judgement-flashing-group1,2021.1.2,60.25878774693221,
97,Trial # 95,Group1-stimuli/group1-block1/fake-group2-b1/encoded_Group2_IMG_9280.jpg,0,encoded_Group2_IMG_9280.jpg,,,,,0.0,94.0,94.0,94.0,,,,,,,,,,,,,,,,,,,412.7742220964283,None,,,0,0.3492622449994087,415.2585348673165,None,415.2585348673165,None,,,414.0732697546482,None,,,,,1,2022_May_27_1431,Real-fake-judgement-flashing-group1,2021.1.2,60.25878774693221,
98,Trial # 96,Group1-stimuli/group1-block1/real-group1-b1/Group1_IMG_0417.jpg,1,Group1_IMG_0417.jpg,,,,,0.0,95.0,95.0,95.0,,,,,,,,,,,,,,,,,,,415.6244114730507,None,,,1,1.267264042980969,418.10845304094255,None,418.10845304094255,None,,,416.9420314049348,None,,,,,1,2022_May_27_1431,Real-fake-judgement-flashing-group1,2021.1.2,60.25878774693221,
99,Trial # 97,Group1-stimuli/group1-block1/fake-group2-b1/encoded_Group2_IMG_9695.jpg,0,encoded_Group2_IMG_9695.jpg,,,,,0.0,96.0,96.0,96.0,,,,,,,,,,,,,,,,,,,419.4084784463048,None,,,0,1.0197986215353012,421.8759862855077,None,421.8759862855077,None,,,420.7093843827024,None,,,,,1,2022_May_27_1431,Real-fake-judgement-flashing-group1,2021.1.2,60.25878774693221,
100,Trial # 98,Group1-stimuli/group1-block1/real-group1-b1/Group1_IMG_1160.jpg,1,Group1_IMG_1160.jpg,,,,,0.0,97.0,97.0,97.0,,,,,,,,,,,,,,,,,,,422.9261871352792,None,,,1,0.3010625746101141,425.4106467999518,None,425.4106467999518,None,,,424.2431307975203,None,,,,,1,2022_May_27_1431,Real-fake-judgement-flashing-group1,2021.1.2,60.25878774693221,
101,Trial # 99,Group1-stimuli/group1-block1/real-group1-b1/Group1_IMG_0448.jpg,1,Group1_IMG_0448.jpg,,,,,0.0,98.0,98.0,98.0,,,,,,,,,,,,,,,,,,,425.7439770372585,None,,,1,0.6836933558806777,428.2280249521136,None,428.2280249521136,None,,,427.0453674364835,None,,,,,1,2022_May_27_1431,Real-fake-judgement-flashing-group1,2021.1.2,60.25878774693221,
102,Trial # 100,Group1-stimuli/group1-block1/fake-group2-b1/encoded_Group2_IMG_0393.jpg,0,encoded_Group2_IMG_0393.jpg,,,,,0.0,99.0,99.0,99.0,,,,,,,,,,,,,,,,,,,428.9447171781212,None,,,0,1.010751890949905,431.4130439721048,None,431.4130439721048,None,,,430.2446459112689,None,,,,,1,2022_May_27_1431,Real-fake-judgement-flashing-group1,2021.1.2,60.25878774693221,
103,Trial # 101,Group1-stimuli/group1-block1/real-group1-b1/Group1_IMG_0090.jpg,1,Group1_IMG_0090.jpg,,,,,0.0,100.0,100.0,100.0,,,,,,,,,,,,,,,,,,,432.4459706638008,None,,,1,0.3177803717553615,434.9300062078983,None,434.9300062078983,None,,,433.7629417069256,None,,,,,1,2022_May_27_1431,Real-fake-judgement-flashing-group1,2021.1.2,60.25878774693221,
104,Trial # 102,Group1-stimuli/group1-block1/real-group1-b1/Group1_IMG_0310.jpg,1,Group1_IMG_0310.jpg,,,,,0.0,101.0,101.0,101.0,,,,,,,,,,,,,,,,,,,435.2803256837651,None,,,1,0.323747999034822,437.76403837185353,None,437.76403837185353,None,,,436.5981000065804,None,,,,,1,2022_May_27_1431,Real-fake-judgement-flashing-group1,2021.1.2,60.25878774693221,
105,Trial # 103,Group1-stimuli/group1-block1/fake-group2-b1/encoded_Group2_IMG_0528.jpg,0,encoded_Group2_IMG_0528.jpg,,,,,0.0,102.0,102.0,102.0,,,,,,,,,,,,,,,,,,,438.1152298413217,None,,,0,0.369752787053585,440.5820339312777,None,440.5820339312777,None,,,439.414409420453,None,,,,,1,2022_May_27_1431,Real-fake-judgement-flashing-group1,2021.1.2,60.25878774693221,
106,Trial # 104,Group1-stimuli/group1-block1/fake-group2-b1/encoded_Group2_IMG_1975.jpg,0,encoded_Group2_IMG_1975.jpg,,,,,0.0,103.0,103.0,103.0,,,,,,,,,,,,,,,,,,,440.9827896114439,None,,,0,1.1658536959439516,443.4659272627905,None,443.4659272627905,None,,,442.2832407057285,None,,,,,1,2022_May_27_1431,Real-fake-judgement-flashing-group1,2021.1.2,60.25878774693221,
107,Trial # 105,Group1-stimuli/group1-block1/fake-group2-b1/encoded_Group2_IMG_0052.jpg,0,encoded_Group2_IMG_0052.jpg,,,,,0.0,104.0,104.0,104.0,,,,,,,,,,,,,,,,,,,444.6492112632841,None,,,1,0.3215227099135518,447.11827049124986,None,447.11827049124986,None,,,445.9504348039627,None,,,,,1,2022_May_27_1431,Real-fake-judgement-flashing-group1,2021.1.2,60.25878774693221,
108,Trial # 106,Group1-stimuli/group1-block1/fake-group2-b1/encoded_Group2_IMG_0225.jpg,0,encoded_Group2_IMG_0225.jpg,,,,,0.0,105.0,105.0,105.0,,,,,,,,,,,,,,,,,,,447.4672553678975,None,,,0,0.2725247796624899,449.9512611730024,None,449.9512611730024,None,,,448.78451761510223,None,,,,,1,2022_May_27_1431,Real-fake-judgement-flashing-group1,2021.1.2,60.25878774693221,
109,Trial # 107,Group1-stimuli/group1-block1/real-group1-b1/Group1_IMG_2231.jpg,1,Group1_IMG_2231.jpg,,,,,0.0,106.0,106.0,106.0,,,,,,,,,,,,,,,,,,,450.2508396813646,None,,,1,0.2805131021887064,452.7352691199631,None,452.7352691199631,None,,,451.5694341799244,None,,,,,1,2022_May_27_1431,Real-fake-judgement-flashing-group1,2021.1.2,60.25878774693221,
110,Trial # 108,Group1-stimuli/group1-block1/real-group1-b1/Group1_IMG_0217.jpg,1,Group1_IMG_0217.jpg,,,,,0.0,107.0,107.0,107.0,,,,,,,,,,,,,,,,,,,453.0357404956594,None,,,1,0.3364176116883755,455.5033689374104,None,455.5033689374104,None,,,454.3358280006796,None,,,,,1,2022_May_27_1431,Real-fake-judgement-flashing-group1,2021.1.2,60.25878774693221,
111,Trial # 109,Group1-stimuli/group1-block1/real-group1-b1/Group1_IMG_0264.jpg,1,Group1_IMG_0264.jpg,,,,,0.0,108.0,108.0,108.0,,,,,,,,,,,,,,,,,,,455.87129240483046,None,,,1,0.2787211099639535,458.3370615467429,None,458.3370615467429,None,,,457.171290284954,None,,,,,1,2022_May_27_1431,Real-fake-judgement-flashing-group1,2021.1.2,60.25878774693221,
112,Trial # 110,Group1-stimuli/group1-block1/fake-group2-b1/encoded_Group2_IMG_0254.jpg,0,encoded_Group2_IMG_0254.jpg,,,,,0.0,109.0,109.0,109.0,,,,,,,,,,,,,,,,,,,458.6377657884732,None,,,1,0.3094966830685735,461.122286727652,None,461.122286727652,None,,,459.9374754754826,None,,,,,1,2022_May_27_1431,Real-fake-judgement-flashing-group1,2021.1.2,60.25878774693221,
113,Trial # 111,Group1-stimuli/group1-block1/fake-group2-b1/encoded_Group2_IMG_5433.jpg,0,encoded_Group2_IMG_5433.jpg,,,,,0.0,110.0,110.0,110.0,,,,,,,,,,,,,,,,,,,461.4560394529253,None,,,0,0.2535394504666328,463.9222471648827,None,463.9222471648827,None,,,462.754996647127,None,,,,,1,2022_May_27_1431,Real-fake-judgement-flashing-group1,2021.1.2,60.25878774693221,
114,Trial # 112,Group1-stimuli/group1-block1/real-group1-b1/Group1_IMG_0252.jpg,1,Group1_IMG_0252.jpg,,,,,0.0,111.0,111.0,111.0,,,,,,,,,,,,,,,,,,,464.2059209840372,None,,,1,0.2855648249387741,466.6742208898068,None,466.6742208898068,None,,,465.5070502525196,None,,,,,1,2022_May_27_1431,Real-fake-judgement-flashing-group1,2021.1.2,60.25878774693221,
115,Trial # 113,Group1-stimuli/group1-block1/real-group1-b1/Group1_IMG_9720.jpg,1,Group1_IMG_9720.jpg,,,,,0.0,112.0,112.0,112.0,,,,,,,,,,,,,,,,,,,466.9899138519541,None,,,1,0.2617732658982277,469.4740226287395,None,469.4740226287395,None,,,468.3067000117153,None,,,,,1,2022_May_27_1431,Real-fake-judgement-flashing-group1,2021.1.2,60.25878774693221,
116,Trial # 114,Group1-stimuli/group1-block1/fake-group2-b1/encoded_Group2_IMG_0550.jpg,0,encoded_Group2_IMG_0550.jpg,,,,,0.0,113.0,113.0,113.0,,,,,,,,,,,,,,,,,,,469.7581138629466,None,,,0,0.262229504995048,472.2415573736653,None,472.2415573736653,None,,,471.0745644280687,None,,,,,1,2022_May_27_1431,Real-fake-judgement-flashing-group1,2021.1.2,60.25878774693221,
117,Trial # 115,Group1-stimuli/group1-block1/real-group1-b1/Group1_IMG_9915.jpg,1,Group1_IMG_9915.jpg,,,,,0.0,114.0,114.0,114.0,,,,,,,,,,,,,,,,,,,472.5247745299712,None,,,1,0.2947848718613386,475.0089939786121,None,475.0089939786121,None,,,473.841722917743,None,,,,,1,2022_May_27_1431,Real-fake-judgement-flashing-group1,2021.1.2,60.25878774693221,
118,Trial # 116,Group1-stimuli/group1-block1/real-group1-b1/Group1_IMG_9850.jpg,1,Group1_IMG_9850.jpg,,,,,0.0,115.0,115.0,115.0,,,,,,,,,,,,,,,,,,,475.3267049603164,None,,,1,0.3421936398372054,477.8096163906157,None,477.8096163906157,None,,,476.6440205425024,None,,,,,1,2022_May_27_1431,Real-fake-judgement-flashing-group1,2021.1.2,60.25878774693221,
119,Trial # 117,Group1-stimuli/group1-block1/real-group1-b1/Group1_IMG_3579.jpg,1,Group1_IMG_3579.jpg,,,,,0.0,116.0,116.0,116.0,,,,,,,,,,,,,,,,,,,478.1765786083415,None,,,1,0.3474466735497117,480.6443123538047,None,480.6443123538047,None,,,479.47734556067735,None,,,,,1,2022_May_27_1431,Real-fake-judgement-flashing-group1,2021.1.2,60.25878774693221,
120,Trial # 118,Group1-stimuli/group1-block1/fake-group2-b1/encoded_Group2_IMG_0377.jpg,0,encoded_Group2_IMG_0377.jpg,,,,,0.0,117.0,117.0,117.0,,,,,,,,,,,,,,,,,,,481.01127633824944,None,,,0,0.2811109516769647,483.4946913402528,None,483.4946913402528,None,,,482.3277609590441,None,,,,,1,2022_May_27_1431,Real-fake-judgement-flashing-group1,2021.1.2,60.25878774693221,
121,Trial # 119,Group1-stimuli/group1-block1/real-group1-b1/Group1_IMG_0469.jpg,1,Group1_IMG_0469.jpg,,,,,0.0,118.0,118.0,118.0,,,,,,,,,,,,,,,,,,,483.7949456917122,None,,,0,0.3765656668692827,486.2632205197588,None,486.2632205197588,None,,,485.1122907791287,None,,,,,1,2022_May_27_1431,Real-fake-judgement-flashing-group1,2021.1.2,60.25878774693221,
122,Trial # 120,Group1-stimuli/group1-block1/fake-group2-b1/encoded_Group2_IMG_0100.jpg,0,encoded_Group2_IMG_0100.jpg,,,,,0.0,119.0,119.0,119.0,,,,,,,,,,,,,,,,,,,486.6639324184507,None,,,1,0.652455436065793,489.1633074646816,None,489.1633074646816,None,,,487.9798758821562,None,,,,,1,2022_May_27_1431,Real-fake-judgement-flashing-group1,2021.1.2,60.25878774693221,
123,Trial # 121,Group1-stimuli/group1-block1/real-group1-b1/Group1_IMG_5359.jpg,1,Group1_IMG_5359.jpg,,,,,0.0,120.0,120.0,120.0,,,,,,,,,,,,,,,,,,,489.846692529507,None,,,1,0.3723339159041643,492.34745198953897,None,492.34745198953897,None,,,491.1650701379404,None,,,,,1,2022_May_27_1431,Real-fake-judgement-flashing-group1,2021.1.2,60.25878774693221,
124,Trial # 122,Group1-stimuli/group1-block1/fake-group2-b1/encoded_Group2_IMG_0304.jpg,0,encoded_Group2_IMG_0304.jpg,,,,,0.0,121.0,121.0,121.0,,,,,,,,,,,,,,,,,,,492.7479120986536,None,,,1,0.360467929393053,495.2153181619942,None,495.2153181619942,None,,,494.0479973806068,None,,,,,1,2022_May_27_1431,Real-fake-judgement-flashing-group1,2021.1.2,60.25878774693221,
125,Trial # 123,Group1-stimuli/group1-block1/real-group1-b1/Group1_IMG_0306.jpg,1,Group1_IMG_0306.jpg,,,,,0.0,122.0,122.0,122.0,,,,,,,,,,,,,,,,,,,495.5997765865177,None,,,1,0.2846172424033284,498.0831016497687,None,498.0831016497687,None,,,496.9169000880793,None,,,,,1,2022_May_27_1431,Real-fake-judgement-flashing-group1,2021.1.2,60.25878774693221,
126,Trial # 124,Group1-stimuli/group1-block1/real-group1-b1/Group1_IMG_0224.jpg,1,Group1_IMG_0224.jpg,,,,,0.0,123.0,123.0,123.0,,,,,,,,,,,,,,,,,,,498.3999929279089,None,,,0,0.299436243250966,500.8682883596048,None,500.8682883596048,None,,,499.6998954769224,None,,,,,1,2022_May_27_1431,Real-fake-judgement-flashing-group1,2021.1.2,60.25878774693221,
127,Trial # 125,Group1-stimuli/group1-block1/real-group1-b1/Group1_IMG_9889.jpg,1,Group1_IMG_9889.jpg,,,,,0.0,124.0,124.0,124.0,,,,,,,,,,,,,,,,,,,501.20166290551424,None,,,0,0.2666417667642236,503.7011522157118,None,503.7011522157118,None,,,502.5175667954609,None,,,,,1,2022_May_27_1431,Real-fake-judgement-flashing-group1,2021.1.2,60.25878774693221,
128,Trial # 126,Group1-stimuli/group1-block1/real-group1-b1/Group1_IMG_0293.jpg,1,Group1_IMG_0293.jpg,,,,,0.0,125.0,125.0,125.0,,,,,,,,,,,,,,,,,,,503.984731329605,None,,,1,0.3546069152653217,506.4531801911071,None,506.4531801911071,None,,,505.286323572509,None,,,,,1,2022_May_27_1431,Real-fake-judgement-flashing-group1,2021.1.2,60.25878774693221,
129,Trial # 127,Group1-stimuli/group1-block1/fake-group2-b1/encoded_Group2_IMG_0321.jpg,0,encoded_Group2_IMG_0321.jpg,,,,,0.0,126.0,126.0,126.0,,,,,,,,,,,,,,,,,,,506.8366580028087,None,,,0,0.2642815383151173,509.3195346677676,None,509.3195346677676,None,,,508.1526304036379,None,,,,,1,2022_May_27_1431,Real-fake-judgement-flashing-group1,2021.1.2,60.25878774693221,
130,Trial # 128,Group1-stimuli/group1-block1/fake-group2-b1/encoded_Group2_IMG_0400.jpg,0,encoded_Group2_IMG_0400.jpg,,,,,0.0,127.0,127.0,127.0,,,,,,,,,,,,,,,,,,,509.6026494819671,None,,,0,1.4653642401099205,512.0703700575978,None,512.0703700575978,None,,,510.90448793862015,None,,,,,1,2022_May_27_1431,Real-fake-judgement-flashing-group1,2021.1.2,60.25878774693221,
131,Trial # 129,Group1-stimuli/group1-block1/fake-group2-b1/encoded_Group2_IMG_0443.jpg,0,encoded_Group2_IMG_0443.jpg,,,,,0.0,128.0,128.0,128.0,,,,,,,,,,,,,,,,,,,513.554497894831,None,,,1,0.2339607998728752,516.0217652004212,None,516.0217652004212,None,,,514.8542274022475,None,,,,,1,2022_May_27_1431,Real-fake-judgement-flashing-group1,2021.1.2,60.25878774693221,
132,Trial # 130,Group1-stimuli/group1-block1/fake-group2-b1/encoded_Group2_IMG_0542.jpg,0,encoded_Group2_IMG_0542.jpg,,,,,0.0,129.0,129.0,129.0,,,,,,,,,,,,,,,,,,,516.2726205829531,None,,,0,0.2594997491687536,518.756286168471,None,518.756286168471,None,,,517.589673133567,None,,,,,1,2022_May_27_1431,Real-fake-judgement-flashing-group1,2021.1.2,60.25878774693221,
133,Trial # 131,Group1-stimuli/group1-block1/real-group1-b1/Group1_IMG_0885.jpg,1,Group1_IMG_0885.jpg,,,,,0.0,130.0,130.0,130.0,,,,,,,,,,,,,,,,,,,519.0389163689688,None,,,1,0.3565087299793958,521.5072856238112,None,521.5072856238112,None,,,520.3907704306766,None,,,,,1,2022_May_27_1431,Real-fake-judgement-flashing-group1,2021.1.2,60.25878774693221,
134,Trial # 132,Group1-stimuli/group1-block1/real-group1-b1/Group1_IMG_0375.jpg,1,Group1_IMG_0375.jpg,,,,,0.0,131.0,131.0,131.0,,,,,,,,,,,,,,,,,,,521.89173227828,None,,,1,0.3694306304678321,524.3743547257036,None,524.3743547257036,None,,,523.2080919509754,None,,,,,1,2022_May_27_1431,Real-fake-judgement-flashing-group1,2021.1.2,60.25878774693221,
135,Trial # 133,Group1-stimuli/group1-block1/fake-group2-b1/encoded_Group2_IMG_7351.jpg,0,encoded_Group2_IMG_7351.jpg,,,,,0.0,132.0,132.0,132.0,,,,,,,,,,,,,,,,,,,524.7750017326325,None,,,1,0.684801734983921,527.258982475847,None,527.258982475847,None,,,526.0756483785808,None,,,,,1,2022_May_27_1431,Real-fake-judgement-flashing-group1,2021.1.2,60.25878774693221,
136,Trial # 134,Group1-stimuli/group1-block1/fake-group2-b1/encoded_Group2_IMG_0416.jpg,0,encoded_Group2_IMG_0416.jpg,,,,,0.0,133.0,133.0,133.0,,,,,,,,,,,,,,,,,,,527.9753232588992,None,,,0,0.3477894542738795,530.443944583647,None,530.443944583647,None,,,529.2757453788072,None,,,,,1,2022_May_27_1431,Real-fake-judgement-flashing-group1,2021.1.2,60.25878774693221,
137,Trial # 135,Group1-stimuli/group1-block1/fake-group2-b1/encoded_Group2_IMG_0139.jpg,0,encoded_Group2_IMG_0139.jpg,,,,,0.0,134.0,134.0,134.0,,,,,,,,,,,,,,,,,,,530.8099081451073,None,,,0,0.7227112939581275,533.2770827822387,None,533.2770827822387,None,,,532.1103681717068,None,,,,,1,2022_May_27_1431,Real-fake-judgement-flashing-group1,2021.1.2,60.25878774693221,
138,Trial # 136,Group1-stimuli/group1-block1/real-group1-b1/Group1_IMG_9677.jpg,1,Group1_IMG_9677.jpg,,,,,0.0,135.0,135.0,135.0,,,,,,,,,,,,,,,,,,,534.0273429565132,None,,,1,0.2878958061337471,536.4958903510123,None,536.4958903510123,None,,,535.3454146115109,None,,,,,1,2022_May_27_1431,Real-fake-judgement-flashing-group1,2021.1.2,60.25878774693221,
139,Trial # 137,Group1-stimuli/group1-block1/fake-group2-b1/encoded_Group2_IMG_5982.jpg,0,encoded_Group2_IMG_5982.jpg,,,,,0.0,136.0,136.0,136.0,,,,,,,,,,,,,,,,,,,536.8128757057711,None,,,1,0.3122958969324827,539.2954878406599,None,539.2954878406599,None,,,538.1450041877106,None,,,,,1,2022_May_27_1431,Real-fake-judgement-flashing-group1,2021.1.2,60.25878774693221,
140,Trial # 138,Group1-stimuli/group1-block1/fake-group2-b1/encoded_Group2_IMG_1144.jpg,0,encoded_Group2_IMG_1144.jpg,,,,,0.0,137.0,137.0,137.0,,,,,,,,,,,,,,,,,,,539.6290913056582,None,,,1,0.3741909982636571,542.0975951654837,None,542.0975951654837,None,,,540.9303885763511,None,,,,,1,2022_May_27_1431,Real-fake-judgement-flashing-group1,2021.1.2,60.25878774693221,
141,Trial # 139,Group1-stimuli/group1-block1/fake-group2-b1/encoded_Group2_IMG_0315.jpg,0,encoded_Group2_IMG_0315.jpg,,,,,0.0,138.0,138.0,138.0,,,,,,,,,,,,,,,,,,,542.4968659784645,None,,,1,0.3317239815369248,544.9640724519268,None,544.9640724519268,None,,,543.7969030551612,None,,,,,1,2022_May_27_1431,Real-fake-judgement-flashing-group1,2021.1.2,60.25878774693221,
142,Trial # 140,Group1-stimuli/group1-block1/real-group1-b1/Group1_IMG_130.jpg,1,Group1_IMG_130.jpg,,,,,0.0,139.0,139.0,139.0,,,,,,,,,,,,,,,,,,,545.3155112592503,None,,,0,0.3054700475186109,547.7983544040471,None,547.7983544040471,None,,,546.6320148147643,None,,,,,1,2022_May_27_1431,Real-fake-judgement-flashing-group1,2021.1.2,60.25878774693221,
143,Trial # 141,Group1-stimuli/group1-block1/real-group1-b1/Group1_IMG_0024.jpg,1,Group1_IMG_0024.jpg,,,,,0.0,140.0,140.0,140.0,,,,,,,,,,,,,,,,,,,548.1318326350302,None,,,1,0.2635116279125213,550.6002949513495,None,550.6002949513495,None,,,549.4320018086582,None,,,,,1,2022_May_27_1431,Real-fake-judgement-flashing-group1,2021.1.2,60.25878774693221,
144,Trial # 142,Group1-stimuli/group1-block1/fake-group2-b1/encoded_Group2_IMG_5012.jpg,0,encoded_Group2_IMG_5012.jpg,,,,,0.0,141.0,141.0,141.0,,,,,,,,,,,,,,,,,,,550.8838529260829,None,,,0,0.2978082569316029,553.34991564136,None,553.34991564136,None,,,552.1832493906841,None,,,,,1,2022_May_27_1431,Real-fake-judgement-flashing-group1,2021.1.2,60.25878774693221,
145,Trial # 143,Group1-stimuli/group1-block1/fake-group2-b1/encoded_Group2_IMG_0209.jpg,0,encoded_Group2_IMG_0209.jpg,,,,,0.0,142.0,142.0,142.0,,,,,,,,,,,,,,,,,,,553.6666422914714,None,,,0,0.296545248478651,556.1352023687214,None,556.1352023687214,None,,,554.9670728128403,None,,,,,1,2022_May_27_1431,Real-fake-judgement-flashing-group1,2021.1.2,60.25878774693221,
146,Trial # 144,Group1-stimuli/group1-block1/real-group1-b1/Group1_IMG_0373.jpg,1,Group1_IMG_0373.jpg,,,,,0.0,143.0,143.0,143.0,,,,,,,,,,,,,,,,,,,556.4521723370999,None,,,1,0.3128026239573955,558.9349824646488,None,558.9349824646488,None,,,557.7845001891255,None,,,,,1,2022_May_27_1431,Real-fake-judgement-flashing-group1,2021.1.2,60.25878774693221,
147,Trial # 145,Group1-stimuli/group1-block1/real-group1-b1/Group1_IMG_5899.jpg,1,Group1_IMG_5899.jpg,,,,,0.0,144.0,144.0,144.0,,,,,,,,,,,,,,,,,,,559.268255145289,None,,,1,0.294926811940968,561.7368464609608,None,561.7368464609608,None,,,560.5698988325894,None,,,,,1,2022_May_27_1431,Real-fake-judgement-flashing-group1,2021.1.2,60.25878774693221,
148,Trial # 146,Group1-stimuli/group1-block1/real-group1-b1/Group1_IMG_0162.jpg,1,Group1_IMG_0162.jpg,,,,,0.0,145.0,145.0,145.0,,,,,,,,,,,,,,,,,,,562.0524747632444,None,,,1,0.2874056100845337,564.5363771207631,None,564.5363771207631,None,,,563.4029689505696,None,,,,,1,2022_May_27_1431,Real-fake-judgement-flashing-group1,2021.1.2,60.25878774693221,
149,Trial # 147,Group1-stimuli/group1-block1/real-group1-b1/Group1_IMG_0543.jpg,1,Group1_IMG_0543.jpg,,,,,0.0,146.0,146.0,146.0,,,,,,,,,,,,,,,,,,,564.853479301557,None,,,1,0.3578926771879196,567.3218901799992,None,567.3218901799992,None,,,566.1716885184869,None,,,,,1,2022_May_27_1431,Real-fake-judgement-flashing-group1,2021.1.2,60.25878774693221,
150,Trial # 148,Group1-stimuli/group1-block1/fake-group2-b1/encoded_Group2_IMG_0355.jpg,0,encoded_Group2_IMG_0355.jpg,,,,,0.0,147.0,147.0,147.0,,,,,,,,,,,,,,,,,,,567.7042328286916,None,,,0,0.3078137459233403,570.1880191685632,None,570.1880191685632,None,,,569.0042287744582,None,,,,,1,2022_May_27_1431,Real-fake-judgement-flashing-group1,2021.1.2,60.25878774693221,
151,Trial # 149,Group1-stimuli/group1-block1/real-group1-b1/Group1_IMG_9765.jpg,1,Group1_IMG_9765.jpg,,,,,0.0,148.0,148.0,148.0,,,,,,,,,,,,,,,,,,,570.5223043169826,None,,,1,0.2500994699075818,573.0057121068239,None,573.0057121068239,None,,,571.8234120393172,None,,,,,1,2022_May_27_1431,Real-fake-judgement-flashing-group1,2021.1.2,60.25878774693221,
152,Trial # 150,Group1-stimuli/group1-block1/fake-group2-b1/encoded_Group2_IMG_1378.jpg,0,encoded_Group2_IMG_1378.jpg,,,,,0.0,149.0,149.0,149.0,,,,,,,,,,,,,,,,,,,573.2731007132679,None,,,1,0.2505496181547642,575.7572439201176,None,575.7572439201176,None,,,574.57298912853,None,,,,,1,2022_May_27_1431,Real-fake-judgement-flashing-group1,2021.1.2,60.25878774693221,
153,Trial # 1,Group1-stimuli/group1-block2/fake-group2-b2/encoded_Group2_IMG_0155.jpg,0,encoded_Group2_IMG_0155.jpg,,,,,,,,,0.0,0.0,0.0,0.0,,,,,,,,,,,,,,,590.6792460307479,None,,,0,0.8394883312284946,593.1122981440276,None,593.1122981440276,None,579.6240991260856,None,591.9461211394519,None,576.0249967202544,None,,,1,2022_May_27_1431,Real-fake-judgement-flashing-group1,2021.1.2,60.25878774693221,
154,Trial # 2,Group1-stimuli/group1-block2/real-group1-b2/Group1_IMG_0519.jpg,1,Group1_IMG_0519.jpg,,,,,,,,,0.0,1.0,1.0,1.0,,,,,,,,,,,,,,,593.9785297000781,None,,,0,1.232377991080284,596.4474130636081,None,596.4474130636081,None,,,595.2963107638061,None,,,,,1,2022_May_27_1431,Real-fake-judgement-flashing-group1,2021.1.2,60.25878774693221,
155,Trial # 3,Group1-stimuli/group1-block2/fake-group2-b2/encoded_Group2_IMG_0135.jpg,0,encoded_Group2_IMG_0135.jpg,,,,,,,,,0.0,2.0,2.0,2.0,,,,,,,,,,,,,,,597.6977668134496,None,,,0,0.2994747888296842,600.1643069963902,None,600.1643069963902,None,,,599.0136773418635,None,,,,,1,2022_May_27_1431,Real-fake-judgement-flashing-group1,2021.1.2,60.25878774693221,
156,Trial # 4,Group1-stimuli/group1-block2/real-group1-b2/Group1_IMG_5310.jpg,1,Group1_IMG_5310.jpg,,,,,,,,,0.0,3.0,3.0,3.0,,,,,,,,,,,,,,,600.482304901816,None,,,1,0.2832256415858865,602.948566686362,None,602.948566686362,None,,,601.7825317177922,None,,,,,1,2022_May_27_1431,Real-fake-judgement-flashing-group1,2021.1.2,60.25878774693221,
157,Trial # 5,Group1-stimuli/group1-block2/real-group1-b2/Group1_IMG_0522.jpg,1,Group1_IMG_0522.jpg,,,,,,,,,0.0,4.0,4.0,4.0,,,,,,,,,,,,,,,603.2490898240358,None,,,0,0.2827313039451837,605.7170654404908,None,605.7170654404908,None,,,604.5655881008133,None,,,,,1,2022_May_27_1431,Real-fake-judgement-flashing-group1,2021.1.2,60.25878774693221,
158,Trial # 6,Group1-stimuli/group1-block2/fake-group2-b2/encoded_Group2_IMG_0484.jpg,0,encoded_Group2_IMG_0484.jpg,,,,,,,,,0.0,5.0,5.0,5.0,,,,,,,,,,,,,,,606.0164995193481,None,,,1,0.291691480204463,608.5001420369372,None,608.5001420369372,None,,,607.3333616759628,None,,,,,1,2022_May_27_1431,Real-fake-judgement-flashing-group1,2021.1.2,60.25878774693221,
159,Trial # 7,Group1-stimuli/group1-block2/fake-group2-b2/encoded_Group2_IMG_5948.jpg,0,encoded_Group2_IMG_5948.jpg,,,,,,,,,0.0,6.0,6.0,6.0,,,,,,,,,,,,,,,608.8167855329812,None,,,1,0.2986985938623547,611.2850131066516,None,611.2850131066516,None,,,610.1175123853609,None,,,,,1,2022_May_27_1431,Real-fake-judgement-flashing-group1,2021.1.2,60.25878774693221,
160,Trial # 8,Group1-stimuli/group1-block2/fake-group2-b2/encoded_Group2_IMG_3591.jpg,0,encoded_Group2_IMG_3591.jpg,,,,,,,,,0.0,7.0,7.0,7.0,,,,,,,,,,,,,,,611.6021103169769,None,,,1,0.2906797295436263,614.0851035965607,None,614.0851035965607,None,,,612.9187010163441,None,,,,,1,2022_May_27_1431,Real-fake-judgement-flashing-group1,2021.1.2,60.25878774693221,
161,Trial # 9,Group1-stimuli/group1-block2/real-group1-b2/Group1_IMG_9835.jpg,1,Group1_IMG_9835.jpg,,,,,,,,,0.0,8.0,8.0,8.0,,,,,,,,,,,,,,,614.4027154603973,None,,,1,0.9609899101778864,616.8707838607952,None,616.8707838607952,None,,,615.7204363970086,None,,,,,1,2022_May_27_1431,Real-fake-judgement-flashing-group1,2021.1.2,60.25878774693221,
162,Trial # 10,Group1-stimuli/group1-block2/real-group1-b2/Group1_IMG_0556.jpg,1,Group1_IMG_0556.jpg,,,,,,,,,0.0,9.0,9.0,9.0,,,,,,,,,,,,,,,617.8532034726813,None,,,1,0.3173302542418241,620.3383895754814,None,620.3383895754814,None,,,619.1701349709183,None,,,,,1,2022_May_27_1431,Real-fake-judgement-flashing-group1,2021.1.2,60.25878774693221,
163,Trial # 11,Group1-stimuli/group1-block2/fake-group2-b2/encoded_Group2_IMG_9736.jpg,0,encoded_Group2_IMG_9736.jpg,,,,,,,,,0.0,10.0,10.0,10.0,,,,,,,,,,,,,,,620.6887640748173,None,,,0,0.3322159145027399,623.1715618381277,None,623.1715618381277,None,,,622.0041570933536,None,,,,,1,2022_May_27_1431,Real-fake-judgement-flashing-group1,2021.1.2,60.25878774693221,
164,Trial # 12,Group1-stimuli/group1-block2/real-group1-b2/Group1_IMG_9867.jpg,1,Group1_IMG_9867.jpg,,,,,,,,,0.0,11.0,11.0,11.0,,,,,,,,,,,,,,,623.5216174796224,None,,,1,0.2423629639670252,625.989423090592,None,625.989423090592,None,,,624.8552788319066,None,,,,,1,2022_May_27_1431,Real-fake-judgement-flashing-group1,2021.1.2,60.25878774693221,
165,Trial # 13,Group1-stimuli/group1-block2/fake-group2-b2/encoded_Group2_IMG_9886.jpg,0,encoded_Group2_IMG_9886.jpg,,,,,,,,,0.0,12.0,12.0,12.0,,,,,,,,,,,,,,,626.2571723116562,None,,,1,2.4679707577452064,628.7398244384676,None,628.7398244384676,None,,,627.5732574798167,None,,,,,1,2022_May_27_1431,Real-fake-judgement-flashing-group1,2021.1.2,60.25878774693221,
166,Trial # 14,Group1-stimuli/group1-block2/fake-group2-b2/encoded_Group2_IMG_2245.jpg,0,encoded_Group2_IMG_2245.jpg,,,,,,,,,0.0,13.0,13.0,13.0,,,,,,,,,,,,,,,631.2244761921465,None,,,0,0.3242832832038402,633.6914999457076,None,633.6914999457076,None,,,632.5241238037124,None,,,,,1,2022_May_27_1431,Real-fake-judgement-flashing-group1,2021.1.2,60.25878774693221,
167,Trial # 15,Group1-stimuli/group1-block2/fake-group2-b2/encoded_Group2_IMG_0507.jpg,0,encoded_Group2_IMG_0507.jpg,,,,,,,,,0.0,14.0,14.0,14.0,,,,,,,,,,,,,,,634.0415628943592,None,,,0,0.2664962895214557,636.5093023143709,None,636.5093023143709,None,,,635.3431342234835,None,,,,,1,2022_May_27_1431,Real-fake-judgement-flashing-group1,2021.1.2,60.25878774693221,
168,Trial # 16,Group1-stimuli/group1-block2/fake-group2-b2/encoded_Group2_IMG_0338.jpg,0,encoded_Group2_IMG_0338.jpg,,,,,,,,,0.0,15.0,15.0,15.0,,,,,,,,,,,,,,,636.7923394320533,None,,,1,0.1953014424070716,639.276483646594,None,639.276483646594,None,,,638.1092295469716,None,,,,,1,2022_May_27_1431,Real-fake-judgement-flashing-group1,2021.1.2,60.25878774693221,
169,Trial # 17,Group1-stimuli/group1-block2/real-group1-b2/Group1_IMG_0376.jpg,1,Group1_IMG_0376.jpg,,,,,,,,,0.0,16.0,16.0,16.0,,,,,,,,,,,,,,,639.4939154516906,None,,,1,0.2539468836039305,641.9618405206129,None,641.9618405206129,None,,,640.811252841726,None,,,,,1,2022_May_27_1431,Real-fake-judgement-flashing-group1,2021.1.2,60.25878774693221,
170,Trial # 18,Group1-stimuli/group1-block2/real-group1-b2/Group1_IMG_9821.jpg,1,Group1_IMG_9821.jpg,,,,,,,,,0.0,17.0,17.0,17.0,,,,,,,,,,,,,,,642.2448702706024,None,,,1,0.2883232152089476,644.7114973468706,None,644.7114973468706,None,,,643.5443931529298,None,,,,,1,2022_May_27_1431,Real-fake-judgement-flashing-group1,2021.1.2,60.25878774693221,
171,Trial # 19,Group1-stimuli/group1-block2/fake-group2-b2/encoded_Group2_IMG_0388.jpg,0,encoded_Group2_IMG_0388.jpg,,,,,,,,,0.0,18.0,18.0,18.0,,,,,,,,,,,,,,,645.0278642019257,None,,,0,0.2475103419274091,647.5122903753072,None,647.5122903753072,None,,,646.3464393438771,None,,,,,1,2022_May_27_1431,Real-fake-judgement-flashing-group1,2021.1.2,60.25878774693221,
172,Trial # 20,Group1-stimuli/group1-block2/fake-group2-b2/encoded_Group2_IMG_0222.jpg,0,encoded_Group2_IMG_0222.jpg,,,,,,,,,0.0,19.0,19.0,19.0,,,,,,,,,,,,,,,647.7795147011057,None,,,0,0.2646034695208072,650.2632203884423,None,650.2632203884423,None,,,649.0956716733053,None,,,,,1,2022_May_27_1431,Real-fake-judgement-flashing-group1,2021.1.2,60.25878774693221,
173,Trial # 21,Group1-stimuli/group1-block2/fake-group2-b2/encoded_Group2_IMG_2215.jpg,0,encoded_Group2_IMG_2215.jpg,,,,,,,,,0.0,20.0,20.0,20.0,,,,,,,,,,,,,,,650.547198696062,None,,,0,0.2736945459619164,653.0140981897712,None,653.0140981897712,None,,,651.8481044657528,None,,,,,1,2022_May_27_1431,Real-fake-judgement-flashing-group1,2021.1.2,60.25878774693221,
174,Trial # 22,Group1-stimuli/group1-block2/real-group1-b2/Group1_IMG_9760.jpg,1,Group1_IMG_9760.jpg,,,,,,,,,0.0,21.0,21.0,21.0,,,,,,,,,,,,,,,653.3140599019825,None,,,1,0.3297392250970006,655.7820408651605,None,655.7820408651605,None,,,654.6311169704422,None,,,,,1,2022_May_27_1431,Real-fake-judgement-flashing-group1,2021.1.2,60.25878774693221,
175,Trial # 23,Group1-stimuli/group1-block2/real-group1-b2/Group1_IMG_9897.jpg,1,Group1_IMG_9897.jpg,,,,,,,,,0.0,22.0,22.0,22.0,,,,,,,,,,,,,,,656.1320366347209,None,,,0,0.2719945693388581,658.6157920900732,None,658.6157920900732,None,,,657.4497621767223,None,,,,,1,2022_May_27_1431,Real-fake-judgement-flashing-group1,2021.1.2,60.25878774693221,
176,Trial # 24,Group1-stimuli/group1-block2/real-group1-b2/Group1_IMG_4250.jpg,1,Group1_IMG_4250.jpg,,,,,,,,,0.0,23.0,23.0,23.0,,,,,,,,,,,,,,,658.9154956750572,None,,,1,0.2724320953711867,661.3833517376333,None,661.3833517376333,None,,,660.2327410690486,None,,,,,1,2022_May_27_1431,Real-fake-judgement-flashing-group1,2021.1.2,60.25878774693221,
177,Trial # 25,Group1-stimuli/group1-block2/real-group1-b2/Group1_IMG_2244.jpg,1,Group1_IMG_2244.jpg,,,,,,,,,0.0,24.0,24.0,24.0,,,,,,,,,,,,,,,661.6838501179591,None,,,1,0.2803522059693932,664.1675037434325,None,664.1675037434325,None,,,663.0004386734217,None,,,,,1,2022_May_27_1431,Real-fake-judgement-flashing-group1,2021.1.2,60.25878774693221,
178,Trial # 26,Group1-stimuli/group1-block2/fake-group2-b2/encoded_Group2_IMG_0501.jpg,0,encoded_Group2_IMG_0501.jpg,,,,,,,,,0.0,25.0,25.0,25.0,,,,,,,,,,,,,,,664.4675063630566,None,,,1,0.1754945591092109,666.9363025622442,None,666.9363025622442,None,,,665.7682919297367,None,,,,,1,2022_May_27_1431,Real-fake-judgement-flashing-group1,2021.1.2,60.25878774693221,
179,Trial # 27,Group1-stimuli/group1-block2/real-group1-b2/Group1_IMG_9684.jpg,1,Group1_IMG_9684.jpg,,,,,,,,,0.0,26.0,26.0,26.0,,,,,,,,,,,,,,,667.1364190457389,None,,,1,0.2605429170653224,669.6192429903895,None,669.6192429903895,None,,,668.4687336497009,None,,,,,1,2022_May_27_1431,Real-fake-judgement-flashing-group1,2021.1.2,60.25878774693221,
180,Trial # 28,Group1-stimuli/group1-block2/real-group1-b2/Group1_IMG_1039.jpg,1,Group1_IMG_1039.jpg,,,,,,,,,0.0,27.0,27.0,27.0,,,,,,,,,,,,,,,669.9021386504173,None,,,1,0.245144972577691,672.3866532705724,None,672.3866532705724,None,,,671.2207375885919,None,,,,,1,2022_May_27_1431,Real-fake-judgement-flashing-group1,2021.1.2,60.25878774693221,
181,Trial # 29,Group1-stimuli/group1-block2/fake-group2-b2/encoded_Group2_IMG_0251.jpg,0,encoded_Group2_IMG_0251.jpg,,,,,,,,,0.0,28.0,28.0,28.0,,,,,,,,,,,,,,,672.6539819333702,None,,,0,0.414501640945673,675.1372833689675,None,675.1372833689675,None,,,674.0038057425991,None,,,,,1,2022_May_27_1431,Real-fake-judgement-flashing-group1,2021.1.2,60.25878774693221,
182,Trial # 30,Group1-stimuli/group1-block2/real-group1-b2/Group1_IMG_9692.jpg,1,Group1_IMG_9692.jpg,,,,,,,,,0.0,29.0,29.0,29.0,,,,,,,,,,,,,,,675.5722673367709,None,,,1,0.2326011732220649,678.0551940901205,None,678.0551940901205,None,,,676.8881161054596,None,,,,,1,2022_May_27_1431,Real-fake-judgement-flashing-group1,2021.1.2,60.25878774693221,
183,Trial # 31,Group1-stimuli/group1-block2/real-group1-b2/Group1_IMG_0512.jpg,1,Group1_IMG_0512.jpg,,,,,,,,,0.0,30.0,30.0,30.0,,,,,,,,,,,,,,,678.3054989017546,None,,,1,0.37069190479815,680.7730945600197,None,680.7730945600197,None,,,679.6055780211464,None,,,,,1,2022_May_27_1431,Real-fake-judgement-flashing-group1,2021.1.2,60.25878774693221,
184,Trial # 32,Group1-stimuli/group1-block2/fake-group2-b2/encoded_Group2_IMG_9673.jpg,0,encoded_Group2_IMG_9673.jpg,,,,,,,,,0.0,31.0,31.0,31.0,,,,,,,,,,,,,,,681.1739631183445,None,,,1,0.3988223625347018,683.6569513576105,None,683.6569513576105,None,,,682.4908086350188,None,,,,,1,2022_May_27_1431,Real-fake-judgement-flashing-group1,2021.1.2,60.25878774693221,
185,Trial # 33,Group1-stimuli/group1-block2/fake-group2-b2/encoded_Group2_IMG_5135.jpg,0,encoded_Group2_IMG_5135.jpg,,,,,,,,,0.0,32.0,32.0,32.0,,,,,,,,,,,,,,,684.0740682249889,None,,,1,0.3534524673596024,686.542332937941,None,686.542332937941,None,,,685.3751485254616,None,,,,,1,2022_May_27_1431,Real-fake-judgement-flashing-group1,2021.1.2,60.25878774693221,
186,Trial # 34,Group1-stimuli/group1-block2/real-group1-b2/Group1_IMG_0396.jpg,1,Group1_IMG_0396.jpg,,,,,,,,,0.0,33.0,33.0,33.0,,,,,,,,,,,,,,,686.925805891864,None,,,1,0.3107243468984961,689.4251120295376,None,689.4251120295376,None,,,688.2415249133483,None,,,,,1,2022_May_27_1431,Real-fake-judgement-flashing-group1,2021.1.2,60.25878774693221,
187,Trial # 35,Group1-stimuli/group1-block2/real-group1-b2/Group1_IMG_4919.jpg,1,Group1_IMG_4919.jpg,,,,,,,,,0.0,34.0,34.0,34.0,,,,,,,,,,,,,,,689.7582848714665,None,,,0,0.3564864844083786,692.2432981058955,None,692.2432981058955,None,,,691.0603035464883,None,,,,,1,2022_May_27_1431,Real-fake-judgement-flashing-group1,2021.1.2,60.25878774693221,
188,Trial # 36,Group1-stimuli/group1-block2/real-group1-b2/Group1_IMG_0449.jpg,1,Group1_IMG_0449.jpg,,,,,,,,,0.0,35.0,35.0,35.0,,,,,,,,,,,,,,,692.6261464273557,None,,,1,0.2729287762194872,695.1108545120806,None,695.1108545120806,None,,,693.9433570979163,None,,,,,1,2022_May_27_1431,Real-fake-judgement-flashing-group1,2021.1.2,60.25878774693221,
189,Trial # 37,Group1-stimuli/group1-block2/fake-group2-b2/encoded_Group2_IMG_0539.jpg,0,encoded_Group2_IMG_0539.jpg,,,,,,,,,0.0,36.0,36.0,36.0,,,,,,,,,,,,,,,695.4118547383696,None,,,0,0.1698926268145442,697.8779498180375,None,697.8779498180375,None,,,696.7120165256783,None,,,,,1,2022_May_27_1431,Real-fake-judgement-flashing-group1,2021.1.2,60.25878774693221,
190,Trial # 38,Group1-stimuli/group1-block2/real-group1-b2/Group1_IMG_0453.jpg,1,Group1_IMG_0453.jpg,,,,,,,,,0.0,37.0,37.0,37.0,,,,,,,,,,,,,,,698.0785551462322,None,,,1,0.2212922479957342,700.5624932665378,None,700.5624932665378,None,,,699.395484091714,None,,,,,1,2022_May_27_1431,Real-fake-judgement-flashing-group1,2021.1.2,60.25878774693221,
191,Trial # 39,Group1-stimuli/group1-block2/fake-group2-b2/encoded_Group2_IMG_0318.jpg,0,encoded_Group2_IMG_0318.jpg,,,,,,,,,0.0,38.0,38.0,38.0,,,,,,,,,,,,,,,700.8135773548856,None,,,1,0.3195614479482174,703.2962223794311,None,703.2962223794311,None,,,702.1302058510482,None,,,,,1,2022_May_27_1431,Real-fake-judgement-flashing-group1,2021.1.2,60.25878774693221,
192,Trial # 40,Group1-stimuli/group1-block2/real-group1-b2/Group1_IMG_1678.jpg,1,Group1_IMG_1678.jpg,,,,,,,,,0.0,39.0,39.0,39.0,,,,,,,,,,,,,,,703.646778033115,None,,,1,0.2375080185011029,706.1142766233534,None,706.1142766233534,None,,,704.9466272704303,None,,,,,1,2022_May_27_1431,Real-fake-judgement-flashing-group1,2021.1.2,60.25878774693221,
193,Trial # 41,Group1-stimuli/group1-block2/fake-group2-b2/encoded_Group2_IMG_0325.jpg,0,encoded_Group2_IMG_0325.jpg,,,,,,,,,0.0,40.0,40.0,40.0,,,,,,,,,,,,,,,706.3810876701027,None,,,0,0.3118436280637979,708.8479409627616,None,708.8479409627616,None,,,707.6808845028281,None,,,,,1,2022_May_27_1431,Real-fake-judgement-flashing-group1,2021.1.2,60.25878774693221,
194,Trial # 42,Group1-stimuli/group1-block2/fake-group2-b2/encoded_Group2_IMG_9935.jpg,0,encoded_Group2_IMG_9935.jpg,,,,,,,,,0.0,41.0,41.0,41.0,,,,,,,,,,,,,,,709.1813439074904,None,,,0,1.789793866686523,711.6499938080087,None,711.6499938080087,None,,,710.4996783155948,None,,,,,1,2022_May_27_1431,Real-fake-judgement-flashing-group1,2021.1.2,60.25878774693221,
195,Trial # 43,Group1-stimuli/group1-block2/fake-group2-b2/encoded_Group2_IMG_0308.jpg,0,encoded_Group2_IMG_0308.jpg,,,,,,,,,0.0,42.0,42.0,42.0,,,,,,,,,,,,,,,713.4666054062545,None,,,1,0.2883763462305069,715.9514101045206,None,715.9514101045206,None,,,714.7664567818865,None,,,,,1,2022_May_27_1431,Real-fake-judgement-flashing-group1,2021.1.2,60.25878774693221,
196,Trial # 44,Group1-stimuli/group1-block2/real-group1-b2/Group1_IMG_0467.jpg,1,Group1_IMG_0467.jpg,,,,,,,,,0.0,43.0,43.0,43.0,,,,,,,,,,,,,,,716.268320905976,None,,,1,0.5766821326687932,718.751139216125,None,718.751139216125,None,,,717.5840062927455,None,,,,,1,2022_May_27_1431,Real-fake-judgement-flashing-group1,2021.1.2,60.25878774693221,
197,Trial # 45,Group1-stimuli/group1-block2/fake-group2-b2/encoded_Group2_IMG_9839.jpg,0,encoded_Group2_IMG_9839.jpg,,,,,,,,,0.0,44.0,44.0,44.0,,,,,,,,,,,,,,,719.3513302179053,None,,,0,0.3406817866489291,721.8191219540313,None,721.8191219540313,None,,,720.65265612863,None,,,,,1,2022_May_27_1431,Real-fake-judgement-flashing-group1,2021.1.2,60.25878774693221,
198,Trial # 46,Group1-stimuli/group1-block2/fake-group2-b2/encoded_Group2_IMG_9681.jpg,0,encoded_Group2_IMG_9681.jpg,,,,,,,,,0.0,45.0,45.0,45.0,,,,,,,,,,,,,,,722.1866785557941,None,,,0,0.6015242543071508,724.686246319674,None,724.686246319674,None,,,723.5022271657363,None,,,,,1,2022_May_27_1431,Real-fake-judgement-flashing-group1,2021.1.2,60.25878774693221,
199,Trial # 47,Group1-stimuli/group1-block2/fake-group2-b2/encoded_Group2_IMG_0458.jpg,0,encoded_Group2_IMG_0458.jpg,,,,,,,,,0.0,46.0,46.0,46.0,,,,,,,,,,,,,,,725.3197277449071,None,,,0,0.3878561118617654,727.8039291482419,None,727.8039291482419,None,,,726.6212697997689,None,,,,,1,2022_May_27_1431,Real-fake-judgement-flashing-group1,2021.1.2,60.25878774693221,
200,Trial # 48,Group1-stimuli/group1-block2/real-group1-b2/Group1_IMG_1095.jpg,1,Group1_IMG_1095.jpg,,,,,,,,,0.0,47.0,47.0,47.0,,,,,,,,,,,,,,,728.220477485098,None,,,1,0.2546891681849956,730.7051109774038,None,730.7051109774038,None,,,729.5209725946188,None,,,,,1,2022_May_27_1431,Real-fake-judgement-flashing-group1,2021.1.2,60.25878774693221,
201,Trial # 49,Group1-stimuli/group1-block2/fake-group2-b2/encoded_Group2_IMG_9710.jpg,0,encoded_Group2_IMG_9710.jpg,,,,,,,,,0.0,48.0,48.0,48.0,,,,,,,,,,,,,,,730.9885997977108,None,,,0,1.4954777965322137,733.4723150543869,None,733.4723150543869,None,,,732.3562706746161,None,,,,,1,2022_May_27_1431,Real-fake-judgement-flashing-group1,2021.1.2,60.25878774693221,
202,Trial # 50,Group1-stimuli/group1-block2/fake-group2-b2/encoded_Group2_IMG_9819.jpg,0,encoded_Group2_IMG_9819.jpg,,,,,,,,,0.0,49.0,49.0,49.0,,,,,,,,,,,,,,,734.9894343046471,None,,,1,1.1750224232673645,737.4567626249045,None,737.4567626249045,None,,,736.2907593995333,None,,,,,1,2022_May_27_1431,Real-fake-judgement-flashing-group1,2021.1.2,60.25878774693221,
203,Trial # 51,Group1-stimuli/group1-block2/real-group1-b2/Group1_IMG_0064.jpg,1,Group1_IMG_0064.jpg,,,,,,,,,0.0,50.0,50.0,50.0,,,,,,,,,,,,,,,738.6578120030463,None,,,1,0.3853044100105762,741.1425386052579,None,741.1425386052579,None,,,739.974337240681,None,,,,,1,2022_May_27_1431,Real-fake-judgement-flashing-group1,2021.1.2,60.25878774693221,
204,Trial # 52,Group1-stimuli/group1-block2/fake-group2-b2/encoded_Group2_IMG_9756.jpg,0,encoded_Group2_IMG_9756.jpg,,,,,,,,,0.0,51.0,51.0,51.0,,,,,,,,,,,,,,,741.5584264388308,None,,,0,0.3095957199111581,744.0421901671216,None,744.0421901671216,None,,,742.8753143139184,None,,,,,1,2022_May_27_1431,Real-fake-judgement-flashing-group1,2021.1.2,60.25878774693221,
205,Trial # 53,Group1-stimuli/group1-block2/fake-group2-b2/encoded_Group2_IMG_5888.jpg,0,encoded_Group2_IMG_5888.jpg,,,,,,,,,0.0,52.0,52.0,52.0,,,,,,,,,,,,,,,744.3754387572408,None,,,1,0.6115583842620254,746.8442244566977,None,746.8442244566977,None,,,745.6770342597738,None,,,,,1,2022_May_27_1431,Real-fake-judgement-flashing-group1,2021.1.2,60.25878774693221,
206,Trial # 54,Group1-stimuli/group1-block2/real-group1-b2/Group1_IMG_1476.jpg,1,Group1_IMG_1476.jpg,,,,,,,,,0.0,53.0,53.0,53.0,,,,,,,,,,,,,,,747.4768238561228,None,,,1,0.3190064076334238,749.9607791854069,None,749.9607791854069,None,,,748.7935435920954,None,,,,,1,2022_May_27_1431,Real-fake-judgement-flashing-group1,2021.1.2,60.25878774693221,
207,Trial # 55,Group1-stimuli/group1-block2/real-group1-b2/Group1_IMG_1917.jpg,1,Group1_IMG_1917.jpg,,,,,,,,,0.0,54.0,54.0,54.0,,,,,,,,,,,,,,,750.3109715888277,None,,,1,0.2936803679913282,752.778099427931,None,752.778099427931,None,,,751.612134821713,None,,,,,1,2022_May_27_1431,Real-fake-judgement-flashing-group1,2021.1.2,60.25878774693221,
208,Trial # 56,Group1-stimuli/group1-block2/real-group1-b2/Group1_IMG_0413.jpg,1,Group1_IMG_0413.jpg,,,,,,,,,0.0,55.0,55.0,55.0,,,,,,,,,,,,,,,753.0950249126181,None,,,0,0.164060384966433,755.5636822888628,None,755.5636822888628,None,,,754.4617022154853,None,,,,,1,2022_May_27_1431,Real-fake-judgement-flashing-group1,2021.1.2,60.25878774693221,
209,Trial # 57,Group1-stimuli/group1-block2/real-group1-b2/Group1_IMG_1001.jpg,1,Group1_IMG_1001.jpg,,,,,,,,,0.0,56.0,56.0,56.0,,,,,,,,,,,,,,,755.7462103320286,None,,,1,0.2664544628933072,758.2133416002616,None,758.2133416002616,None,,,757.0473280567676,None,,,,,1,2022_May_27_1431,Real-fake-judgement-flashing-group1,2021.1.2,60.25878774693221,
210,Trial # 58,Group1-stimuli/group1-block2/fake-group2-b2/encoded_Group2_IMG_0441.jpg,0,encoded_Group2_IMG_0441.jpg,,,,,,,,,0.0,57.0,57.0,57.0,,,,,,,,,,,,,,,758.4967725044116,None,,,0,0.2111955126747489,760.9645888833329,None,760.9645888833329,None,,,759.7969471979886,None,,,,,1,2022_May_27_1431,Real-fake-judgement-flashing-group1,2021.1.2,60.25878774693221,
211,Trial # 59,Group1-stimuli/group1-block2/real-group1-b2/Group1_IMG_9774.jpg,1,Group1_IMG_9774.jpg,,,,,,,,,0.0,58.0,58.0,58.0,,,,,,,,,,,,,,,761.1988703804091,None,,,0,0.2223338671028614,763.681456043385,None,763.681456043385,None,,,762.5156758986413,None,,,,,1,2022_May_27_1431,Real-fake-judgement-flashing-group1,2021.1.2,60.25878774693221,
212,Trial # 60,Group1-stimuli/group1-block2/fake-group2-b2/encoded_Group2_IMG_2751.jpg,0,encoded_Group2_IMG_2751.jpg,,,,,,,,,0.0,59.0,59.0,59.0,,,,,,,,,,,,,,,763.9327301522717,None,,,1,0.1923466119915247,766.3994504408911,None,766.3994504408911,None,,,765.2320464653894,None,,,,,1,2022_May_27_1431,Real-fake-judgement-flashing-group1,2021.1.2,60.25878774693221,
213,Trial # 61,Group1-stimuli/group1-block2/fake-group2-b2/encoded_Group2_IMG_0409.jpg,0,encoded_Group2_IMG_0409.jpg,,,,,,,,,0.0,60.0,60.0,60.0,,,,,,,,,,,,,,,766.6161696966738,None,,,1,0.2837916100397706,769.0999562656507,None,769.0999562656507,None,,,767.9160645827651,None,,,,,1,2022_May_27_1431,Real-fake-judgement-flashing-group1,2021.1.2,60.25878774693221,
214,Trial # 62,Group1-stimuli/group1-block2/real-group1-b2/Group1_IMG_1346.jpg,1,Group1_IMG_1346.jpg,,,,,,,,,0.0,61.0,61.0,61.0,,,,,,,,,,,,,,,769.4167304821312,None,,,1,0.3301757574081421,771.8855347409844,None,771.8855347409844,None,,,770.7349136490375,None,,,,,1,2022_May_27_1431,Real-fake-judgement-flashing-group1,2021.1.2,60.25878774693221,
215,Trial # 63,Group1-stimuli/group1-block2/real-group1-b2/Group1_IMG_0481.jpg,1,Group1_IMG_0481.jpg,,,,,,,,,0.0,62.0,62.0,62.0,,,,,,,,,,,,,,,772.2346222773194,None,,,1,0.2333752298727631,774.7183647127822,None,774.7183647127822,None,,,773.53446425125,None,,,,,1,2022_May_27_1431,Real-fake-judgement-flashing-group1,2021.1.2,60.25878774693221,
216,Trial # 64,Group1-stimuli/group1-block2/fake-group2-b2/encoded_Group2_IMG_4718.jpg,0,encoded_Group2_IMG_4718.jpg,,,,,,,,,0.0,63.0,63.0,63.0,,,,,,,,,,,,,,,774.9847126509994,None,,,0,0.2433538176119327,777.4524322897196,None,777.4524322897196,None,,,776.2865321515128,None,,,,,1,2022_May_27_1431,Real-fake-judgement-flashing-group1,2021.1.2,60.25878774693221,
217,Trial # 65,Group1-stimuli/group1-block2/real-group1-b2/Group1_IMG_0540.jpg,1,Group1_IMG_0540.jpg,,,,,,,,,0.0,64.0,64.0,64.0,,,,,,,,,,,,,,,777.720599851571,None,,,1,0.2524133352562785,780.2033702442423,None,780.2033702442423,None,,,779.0526298284531,None,,,,,1,2022_May_27_1431,Real-fake-judgement-flashing-group1,2021.1.2,60.25878774693221,
218,Trial # 66,Group1-stimuli/group1-block2/fake-group2-b2/encoded_Group2_IMG_0166.jpg,0,encoded_Group2_IMG_0166.jpg,,,,,,,,,0.0,65.0,65.0,65.0,,,,,,,,,,,,,,,780.4878365192562,None,,,0,1.2535881446674466,782.9541972102597,None,782.9541972102597,None,,,781.7883640388027,None,,,,,1,2022_May_27_1431,Real-fake-judgement-flashing-group1,2021.1.2,60.25878774693221,
219,Trial # 67,Group1-stimuli/group1-block2/fake-group2-b2/encoded_Group2_IMG_0412.jpg,0,encoded_Group2_IMG_0412.jpg,,,,,,,,,0.0,66.0,66.0,66.0,,,,,,,,,,,,,,,784.2376962509006,None,,,0,0.2124726688489318,786.7233114531264,None,786.7233114531264,None,,,785.539461068809,None,,,,,1,2022_May_27_1431,Real-fake-judgement-flashing-group1,2021.1.2,60.25878774693221,
220,Trial # 68,Group1-stimuli/group1-block2/real-group1-b2/Group1_IMG_0485.jpg,1,Group1_IMG_0485.jpg,,,,,,,,,0.0,67.0,67.0,67.0,,,,,,,,,,,,,,,786.9567785942927,None,,,1,0.1290071830153465,789.4227907229215,None,789.4227907229215,None,,,788.2890279181302,None,,,,,1,2022_May_27_1431,Real-fake-judgement-flashing-group1,2021.1.2,60.25878774693221,
221,Trial # 69,Group1-stimuli/group1-block2/fake-group2-b2/encoded_Group2_IMG_1495.jpg,0,encoded_Group2_IMG_1495.jpg,,,,,,,,,0.0,68.0,68.0,68.0,,,,,,,,,,,,,,,789.5731314644217,None,,,0,0.2961914399638772,792.0235920073465,None,792.0235920073465,None,,,790.8568705264479,None,,,,,1,2022_May_27_1431,Real-fake-judgement-flashing-group1,2021.1.2,60.25878774693221,
222,Trial # 70,Group1-stimuli/group1-block2/real-group1-b2/Group1_IMG_0426.jpg,1,Group1_IMG_0426.jpg,,,,,,,,,0.0,69.0,69.0,69.0,,,,,,,,,,,,,,,792.3404719997197,None,,,1,0.287816465832293,794.8239696901292,None,794.8239696901292,None,,,793.6407564282417,None,,,,,1,2022_May_27_1431,Real-fake-judgement-flashing-group1,2021.1.2,60.25878774693221,
223,Trial # 71,Group1-stimuli/group1-block2/real-group1-b2/Group1_IMG_0349.jpg,1,Group1_IMG_0349.jpg,,,,,,,,,0.0,70.0,70.0,70.0,,,,,,,,,,,,,,,795.1407124279067,None,,,1,0.2703010709956288,797.6254847524688,None,797.6254847524688,None,,,796.459482925944,None,,,,,1,2022_May_27_1431,Real-fake-judgement-flashing-group1,2021.1.2,60.25878774693221,
224,Trial # 72,Group1-stimuli/group1-block2/real-group1-b2/Group1_IMG_0414.jpg,1,Group1_IMG_0414.jpg,,,,,,,,,0.0,71.0,71.0,71.0,,,,,,,,,,,,,,,797.9253079937771,None,,,1,0.2464550975710153,800.3933352762833,None,800.3933352762833,None,,,799.2262460608035,None,,,,,1,2022_May_27_1431,Real-fake-judgement-flashing-group1,2021.1.2,60.25878774693221,
225,Trial # 73,Group1-stimuli/group1-block2/fake-group2-b2/encoded_Group2_IMG_9856.jpg,0,encoded_Group2_IMG_9856.jpg,,,,,,,,,0.0,72.0,72.0,72.0,,,,,,,,,,,,,,,800.6602054918185,None,,,0,0.2640813663601875,803.1437038481236,None,803.1437038481236,None,,,801.9611700968817,None,,,,,1,2022_May_27_1431,Real-fake-judgement-flashing-group1,2021.1.2,60.25878774693221,
226,Trial # 74,Group1-stimuli/group1-block2/fake-group2-b2/encoded_Group2_IMG_5313.jpg,0,encoded_Group2_IMG_5313.jpg,,,,,,,,,0.0,73.0,73.0,73.0,,,,,,,,,,,,,,,803.4274302423,None,,,1,0.3599668694660067,805.8958170935512,None,805.8958170935512,None,,,804.7271020701155,None,,,,,1,2022_May_27_1431,Real-fake-judgement-flashing-group1,2021.1.2,60.25878774693221,
227,Trial # 75,Group1-stimuli/group1-block2/fake-group2-b2/encoded_Group2_IMG_0421.jpg,0,encoded_Group2_IMG_0421.jpg,,,,,,,,,0.0,74.0,74.0,74.0,,,,,,,,,,,,,,,806.2786107426509,None,,,1,0.4463328327983618,808.7454540068284,None,808.7454540068284,None,,,807.5782706895843,None,,,,,1,2022_May_27_1431,Real-fake-judgement-flashing-group1,2021.1.2,60.25878774693221,
228,Trial # 76,Group1-stimuli/group1-block2/fake-group2-b2/encoded_Group2_IMG_0446.jpg,0,encoded_Group2_IMG_0446.jpg,,,,,,,,,0.0,75.0,75.0,75.0,,,,,,,,,,,,,,,809.2122946912423,None,,,0,0.3109641475602984,811.6808669446036,None,811.6808669446036,None,,,810.5137769971043,None,,,,,1,2022_May_27_1431,Real-fake-judgement-flashing-group1,2021.1.2,60.25878774693221,
229,Trial # 77,Group1-stimuli/group1-block2/real-group1-b2/Group1_IMG_5999.jpg,1,Group1_IMG_5999.jpg,,,,,,,,,0.0,76.0,76.0,76.0,,,,,,,,,,,,,,,812.0146038243547,None,,,1,0.2865405231714248,814.4972451534122,None,814.4972451534122,None,,,813.3466812297702,None,,,,,1,2022_May_27_1431,Real-fake-judgement-flashing-group1,2021.1.2,60.25878774693221,
230,Trial # 78,Group1-stimuli/group1-block2/real-group1-b2/Group1_IMG_0107.jpg,1,Group1_IMG_0107.jpg,,,,,,,,,0.0,77.0,77.0,77.0,,,,,,,,,,,,,,,814.8149920878932,None,,,1,0.277813920751214,817.2979883626103,None,817.2979883626103,None,,,816.1145327007398,None,,,,,1,2022_May_27_1431,Real-fake-judgement-flashing-group1,2021.1.2,60.25878774693221,
231,Trial # 79,Group1-stimuli/group1-block2/fake-group2-b2/encoded_Group2_IMG_0322.jpg,0,encoded_Group2_IMG_0322.jpg,,,,,,,,,0.0,78.0,78.0,78.0,,,,,,,,,,,,,,,817.5992238251492,None,,,0,0.269383761100471,820.0824024556205,None,820.0824024556205,None,,,818.9157715560868,None,,,,,1,2022_May_27_1431,Real-fake-judgement-flashing-group1,2021.1.2,60.25878774693221,
232,Trial # 80,Group1-stimuli/group1-block2/fake-group2-b2/encoded_Group2_IMG_4255.jpg,0,encoded_Group2_IMG_4255.jpg,,,,,,,,,0.0,79.0,79.0,79.0,,,,,,,,,,,,,,,820.3834956446663,None,,,0,0.253950621932745,822.8498523356393,None,822.8498523356393,None,,,821.6831065965816,None,,,,,1,2022_May_27_1431,Real-fake-judgement-flashing-group1,2021.1.2,60.25878774693221,
233,Trial # 81,Group1-stimuli/group1-block2/fake-group2-b2/encoded_Group2_IMG_0219.jpg,0,encoded_Group2_IMG_0219.jpg,,,,,,,,,0.0,80.0,80.0,80.0,,,,,,,,,,,,,,,823.1344486493617,None,,,0,0.2301305886358022,825.6017087493092,None,825.6017087493092,None,,,824.4336290629581,None,,,,,1,2022_May_27_1431,Real-fake-judgement-flashing-group1,2021.1.2,60.25878774693221,
234,Trial # 82,Group1-stimuli/group1-block2/real-group1-b2/Group1_IMG_0548.jpg,1,Group1_IMG_0548.jpg,,,,,,,,,0.0,81.0,81.0,81.0,,,,,,,,,,,,,,,825.8510333038867,None,,,1,0.2729123290628195,828.3348726918921,None,828.3348726918921,None,,,827.1687327697873,None,,,,,1,2022_May_27_1431,Real-fake-judgement-flashing-group1,2021.1.2,60.25878774693221,
235,Trial # 83,Group1-stimuli/group1-block2/real-group1-b2/Group1_IMG_0229.jpg,1,Group1_IMG_0229.jpg,,,,,,,,,0.0,82.0,82.0,82.0,,,,,,,,,,,,,,,828.6357024740428,None,,,1,1.5921863242983818,831.1035985220224,None,831.1035985220224,None,,,829.9517745217308,None,,,,,1,2022_May_27_1431,Real-fake-judgement-flashing-group1,2021.1.2,60.25878774693221,
236,Trial # 84,Group1-stimuli/group1-block2/fake-group2-b2/encoded_Group2_IMG_0365.jpg,0,encoded_Group2_IMG_0365.jpg,,,,,,,,,0.0,83.0,83.0,83.0,,,,,,,,,,,,,,,832.7194550074637,None,,,0,0.1248607160523533,835.1869243262336,None,835.1869243262336,None,,,834.0199189521372,None,,,,,1,2022_May_27_1431,Real-fake-judgement-flashing-group1,2021.1.2,60.25878774693221,
237,Trial # 85,Group1-stimuli/group1-block2/real-group1-b2/Group1_IMG_9822.jpg,1,Group1_IMG_9822.jpg,,,,,,,,,0.0,84.0,84.0,84.0,,,,,,,,,,,,,,,835.336408960633,None,,,1,0.25141526106745,837.8042989503592,None,837.8042989503592,None,,,836.6553045809269,None,,,,,1,2022_May_27_1431,Real-fake-judgement-flashing-group1,2021.1.2,60.25878774693221,
238,Trial # 86,Group1-stimuli/group1-block2/fake-group2-b2/encoded_Group2_IMG_0195.jpg,0,encoded_Group2_IMG_0195.jpg,,,,,,,,,0.0,85.0,85.0,85.0,,,,,,,,,,,,,,,838.0878646327183,None,,,0,1.5158782955259085,840.5558451944962,None,840.5558451944962,None,,,839.3882342092693,None,,,,,1,2022_May_27_1431,Real-fake-judgement-flashing-group1,2021.1.2,60.25878774693221,
239,Trial # 87,Group1-stimuli/group1-block2/fake-group2-b2/encoded_Group2_IMG_0494.jpg,0,encoded_Group2_IMG_0494.jpg,,,,,,,,,0.0,86.0,86.0,86.0,,,,,,,,,,,,,,,842.0895582288504,None,,,0,0.2431331705302,844.5566522059962,None,844.5566522059962,None,,,843.3894934337586,None,,,,,1,2022_May_27_1431,Real-fake-judgement-flashing-group1,2021.1.2,60.25878774693221,
240,Trial # 88,Group1-stimuli/group1-block2/real-group1-b2/Group1_IMG_0509.jpg,1,Group1_IMG_0509.jpg,,,,,,,,,0.0,87.0,87.0,87.0,,,,,,,,,,,,,,,844.8235714798793,None,,,1,0.2850243533030152,847.2907607285306,None,847.2907607285306,None,,,846.1411015642807,None,,,,,1,2022_May_27_1431,Real-fake-judgement-flashing-group1,2021.1.2,60.25878774693221,
241,Trial # 89,Group1-stimuli/group1-block2/fake-group2-b2/encoded_Group2_IMG_8924.jpg,0,encoded_Group2_IMG_8924.jpg,,,,,,,,,0.0,88.0,88.0,88.0,,,,,,,,,,,,,,,847.6073375400156,None,,,0,0.2446621349081397,850.0911224596202,None,850.0911224596202,None,,,848.9078740477562,None,,,,,1,2022_May_27_1431,Real-fake-judgement-flashing-group1,2021.1.2,60.25878774693221,
242,Trial # 90,Group1-stimuli/group1-block2/real-group1-b2/Group1_IMG_0360.jpg,1,Group1_IMG_0360.jpg,,,,,,,,,0.0,89.0,89.0,89.0,,,,,,,,,,,,,,,850.3584092156962,None,,,1,0.3660257300361991,852.8257549926639,None,852.8257549926639,None,,,851.6763535235077,None,,,,,1,2022_May_27_1431,Real-fake-judgement-flashing-group1,2021.1.2,60.25878774693221,
243,Trial # 91,Group1-stimuli/group1-block2/fake-group2-b2/encoded_Group2_IMG_0523.jpg,0,encoded_Group2_IMG_0523.jpg,,,,,,,,,0.0,90.0,90.0,90.0,,,,,,,,,,,,,,,853.2092288630083,None,,,0,6.361967229284346,855.6778191402555,None,855.6778191402555,None,,,854.5095678661019,None,,,,,1,2022_May_27_1431,Real-fake-judgement-flashing-group1,2021.1.2,60.25878774693221,
244,Trial # 92,Group1-stimuli/group1-block2/real-group1-b2/Group1_IMG_0518.jpg,1,Group1_IMG_0518.jpg,,,,,,,,,0.0,91.0,91.0,91.0,,,,,,,,,,,,,,,862.0627524936572,None,,,0,0.2867182958871126,864.5290671000257,None,864.5290671000257,None,,,863.3620953056961,None,,,,,1,2022_May_27_1431,Real-fake-judgement-flashing-group1,2021.1.2,60.25878774693221,
245,Trial # 93,Group1-stimuli/group1-block2/fake-group2-b2/encoded_Group2_IMG_0372.jpg,0,encoded_Group2_IMG_0372.jpg,,,,,,,,,0.0,92.0,92.0,92.0,,,,,,,,,,,,,,,864.8460061047226,None,,,0,0.4295973302796483,867.3301867702976,None,867.3301867702976,None,,,866.147633574903,None,,,,,1,2022_May_27_1431,Real-fake-judgement-flashing-group1,2021.1.2,60.25878774693221,
246,Trial # 94,Group1-stimuli/group1-block2/fake-group2-b2/encoded_Group2_IMG_9761.jpg,0,encoded_Group2_IMG_9761.jpg,,,,,,,,,0.0,93.0,93.0,93.0,,,,,,,,,,,,,,,867.7812993116677,None,,,1,1.3758735191076994,870.247910970822,None,870.247910970822,None,,,869.0807064538822,None,,,,,1,2022_May_27_1431,Real-fake-judgement-flashing-group1,2021.1.2,60.25878774693221,
247,Trial # 95,Group1-stimuli/group1-block2/real-group1-b2/Group1_IMG_2690.jpg,1,Group1_IMG_2690.jpg,,,,,,,,,0.0,94.0,94.0,94.0,,,,,,,,,,,,,,,871.6497676856816,None,,,0,0.2356059867888689,874.1321792928502,None,874.1321792928502,None,,,872.9820260265842,None,,,,,1,2022_May_27_1431,Real-fake-judgement-flashing-group1,2021.1.2,60.25878774693221,
248,Trial # 96,Group1-stimuli/group1-block2/real-group1-b2/Group1_IMG_9855.jpg,1,Group1_IMG_9855.jpg,,,,,,,,,0.0,95.0,95.0,95.0,,,,,,,,,,,,,,,874.3997148890048,None,,,1,1.2280272021889689,876.8677563425153,None,876.8677563425153,None,,,875.7174957208335,None,,,,,1,2022_May_27_1431,Real-fake-judgement-flashing-group1,2021.1.2,60.25878774693221,
249,Trial # 97,Group1-stimuli/group1-block2/fake-group2-b2/encoded_Group2_IMG_0470.jpg,0,encoded_Group2_IMG_0470.jpg,,,,,,,,,0.0,96.0,96.0,96.0,,,,,,,,,,,,,,,878.1170294219628,None,,,0,0.2709233593195677,880.5848625777289,None,880.5848625777289,None,,,879.4176087509841,None,,,,,1,2022_May_27_1431,Real-fake-judgement-flashing-group1,2021.1.2,60.25878774693221,
250,Trial # 98,Group1-stimuli/group1-block2/fake-group2-b2/encoded_Group2_IMG_1191.jpg,0,encoded_Group2_IMG_1191.jpg,,,,,,,,,0.0,97.0,97.0,97.0,,,,,,,,,,,,,,,880.8849296988919,None,,,0,0.1671170471236109,883.3685995535925,None,883.3685995535925,None,,,882.1847950732335,None,,,,,1,2022_May_27_1431,Real-fake-judgement-flashing-group1,2021.1.2,60.25878774693221,
251,Trial # 99,Group1-stimuli/group1-block2/real-group1-b2/Group1_IMG_9937.jpg,1,Group1_IMG_9937.jpg,,,,,,,,,0.0,98.0,98.0,98.0,,,,,,,,,,,,,,,883.5693090362474,None,,,1,0.3073318814858794,886.0364556778222,None,886.0364556778222,None,,,884.8855437617749,None,,,,,1,2022_May_27_1431,Real-fake-judgement-flashing-group1,2021.1.2,60.25878774693221,
252,Trial # 100,Group1-stimuli/group1-block2/fake-group2-b2/encoded_Group2_IMG_0106.jpg,0,encoded_Group2_IMG_0106.jpg,,,,,,,,,0.0,99.0,99.0,99.0,,,,,,,,,,,,,,,886.3702620668337,None,,,0,0.1142062172293663,888.837512658909,None,888.837512658909,None,,,887.6705933678895,None,,,,,1,2022_May_27_1431,Real-fake-judgement-flashing-group1,2021.1.2,60.25878774693221,
253,Trial # 101,Group1-stimuli/group1-block2/real-group1-b2/Group1_IMG_2790.jpg,1,Group1_IMG_2790.jpg,,,,,,,,,0.0,100.0,100.0,100.0,,,,,,,,,,,,,,,888.9714556187391,None,,,1,0.136943151243031,891.438843161799,None,891.438843161799,None,,,890.2869492638856,None,,,,,1,2022_May_27_1431,Real-fake-judgement-flashing-group1,2021.1.2,60.25878774693221,
254,Trial # 102,Group1-stimuli/group1-block2/real-group1-b2/Group1_IMG_9792.jpg,1,Group1_IMG_9792.jpg,,,,,,,,,0.0,101.0,101.0,101.0,,,,,,,,,,,,,,,891.6048367330804,None,,,1,0.143821538425982,894.0719815660268,None,894.0719815660268,None,,,892.9046502895653,None,,,,,1,2022_May_27_1431,Real-fake-judgement-flashing-group1,2021.1.2,60.25878774693221,
255,Trial # 103,Group1-stimuli/group1-block2/real-group1-b2/Group1_IMG_1640.jpg,1,Group1_IMG_1640.jpg,,,,,,,,,0.0,102.0,102.0,102.0,,,,,,,,,,,,,,,894.2386608542874,None,,,1,0.3013350153341889,896.7063812660053,None,896.7063812660053,None,,,895.5568475211039,None,,,,,1,2022_May_27_1431,Real-fake-judgement-flashing-group1,2021.1.2,60.25878774693221,
256,Trial # 104,Group1-stimuli/group1-block2/real-group1-b2/Group1_IMG_0033.jpg,1,Group1_IMG_0033.jpg,,,,,,,,,0.0,103.0,103.0,103.0,,,,,,,,,,,,,,,897.0397605793551,None,,,0,0.3162405742332339,899.5235570622608,None,899.5235570622608,None,,,898.3564683524892,None,,,,,1,2022_May_27_1431,Real-fake-judgement-flashing-group1,2021.1.2,60.25878774693221,
257,Trial # 105,Group1-stimuli/group1-block2/real-group1-b2/Group1_IMG_0079.jpg,1,Group1_IMG_0079.jpg,,,,,,,,,0.0,104.0,104.0,104.0,,,,,,,,,,,,,,,899.8574232934043,None,,,1,0.20335896871984,902.3244278831409,None,902.3244278831409,None,,,901.1578534711152,None,,,,,1,2022_May_27_1431,Real-fake-judgement-flashing-group1,2021.1.2,60.25878774693221,
258,Trial # 106,Group1-stimuli/group1-block2/fake-group2-b2/encoded_Group2_IMG_9909.jpg,0,encoded_Group2_IMG_9909.jpg,,,,,,,,,0.0,105.0,105.0,105.0,,,,,,,,,,,,,,,902.5588348945604,None,,,0,0.1255639726296067,905.0422716876492,None,905.0422716876492,None,,,903.8587461188436,None,,,,,1,2022_May_27_1431,Real-fake-judgement-flashing-group1,2021.1.2,60.25878774693221,
259,Trial # 107,Group1-stimuli/group1-block2/fake-group2-b2/encoded_Group2_IMG_0398.jpg,0,encoded_Group2_IMG_0398.jpg,,,,,,,,,0.0,106.0,106.0,106.0,,,,,,,,,,,,,,,905.1921005202456,None,,,0,0.0675627263262867,907.676161606796,None,907.676161606796,None,,,906.4933171868324,None,,,,,1,2022_May_27_1431,Real-fake-judgement-flashing-group1,2021.1.2,60.25878774693221,
260,Trial # 108,Group1-stimuli/group1-block2/real-group1-b2/Group1_IMG_4268.jpg,1,Group1_IMG_4268.jpg,,,,,,,,,0.0,107.0,107.0,107.0,,,,,,,,,,,,,,,907.7759733973072,None,,,1,0.2679354101419449,910.2438103305176,None,910.2438103305176,None,,,909.0763714108616,None,,,,,1,2022_May_27_1431,Real-fake-judgement-flashing-group1,2021.1.2,60.25878774693221,
261,Trial # 109,Group1-stimuli/group1-block2/fake-group2-b2/encoded_Group2_IMG_9321.jpg,0,encoded_Group2_IMG_9321.jpg,,,,,,,,,0.0,108.0,108.0,108.0,,,,,,,,,,,,,,,910.5448069423436,None,,,0,0.2675245376303792,913.0441937725992,None,913.0441937725992,None,,,911.8451742837206,None,,,,,1,2022_May_27_1431,Real-fake-judgement-flashing-group1,2021.1.2,60.25878774693221,
262,Trial # 110,Group1-stimuli/group1-block2/fake-group2-b2/encoded_Group2_IMG_9964.jpg,0,encoded_Group2_IMG_9964.jpg,,,,,,,,,0.0,109.0,109.0,109.0,,,,,,,,,,,,,,,913.3443321874364,None,,,1,0.1473768781870603,915.812412004918,None,915.812412004918,None,,,914.6447399398312,None,,,,,1,2022_May_27_1431,Real-fake-judgement-flashing-group1,2021.1.2,60.25878774693221,
263,Trial # 111,Group1-stimuli/group1-block2/real-group1-b2/Group1_IMG_0329.jpg,1,Group1_IMG_0329.jpg,,,,,,,,,0.0,110.0,110.0,110.0,,,,,,,,,,,,,,,915.9798805406316,None,,,1,1.5205129869282246,918.4632733250036,None,918.4632733250036,None,,,917.2956629637628,None,,,,,1,2022_May_27_1431,Real-fake-judgement-flashing-group1,2021.1.2,60.25878774693221,
264,Trial # 112,Group1-stimuli/group1-block2/fake-group2-b2/encoded_Group2_IMG_0534.jpg,0,encoded_Group2_IMG_0534.jpg,,,,,,,,,0.0,111.0,111.0,111.0,,,,,,,,,,,,,,,920.0136664705352,None,,,0,0.2548651024699211,922.4809199674056,None,922.4809199674056,None,,,921.3147235549986,None,,,,,1,2022_May_27_1431,Real-fake-judgement-flashing-group1,2021.1.2,60.25878774693221,
265,Trial # 113,Group1-stimuli/group1-block2/fake-group2-b2/encoded_Group2_IMG_0054.jpg,0,encoded_Group2_IMG_0054.jpg,,,,,,,,,0.0,112.0,112.0,112.0,,,,,,,,,,,,,,,922.7643366139382,None,,,0,0.26427180506289,925.2315341476352,None,925.2315341476352,None,,,924.0648426888512,None,,,,,1,2022_May_27_1431,Real-fake-judgement-flashing-group1,2021.1.2,60.25878774693221,
266,Trial # 114,Group1-stimuli/group1-block2/real-group1-b2/Group1_IMG_9979.jpg,1,Group1_IMG_9979.jpg,,,,,,,,,0.0,113.0,113.0,113.0,,,,,,,,,,,,,,,925.5155448690056,None,,,1,0.3047080459073186,927.9990773657336,None,927.9990773657336,None,,,926.83310973458,None,,,,,1,2022_May_27_1431,Real-fake-judgement-flashing-group1,2021.1.2,60.25878774693221,
267,Trial # 115,Group1-stimuli/group1-block2/real-group1-b2/Group1_IMG_0170.jpg,1,Group1_IMG_0170.jpg,,,,,,,,,0.0,114.0,114.0,114.0,,,,,,,,,,,,,,,928.3327034646644,None,,,1,0.2714471602812409,930.8003383530304,None,930.8003383530304,None,,,929.6327651040629,None,,,,,1,2022_May_27_1431,Real-fake-judgement-flashing-group1,2021.1.2,60.25878774693221,
268,Trial # 116,Group1-stimuli/group1-block2/fake-group2-b2/encoded_Group2_IMG_0007.jpg,0,encoded_Group2_IMG_0007.jpg,,,,,,,,,0.0,115.0,115.0,115.0,,,,,,,,,,,,,,,931.100774067454,None,,,0,0.2955705747008323,933.5842127744108,None,933.5842127744108,None,,,932.4003671519458,None,,,,,1,2022_May_27_1431,Real-fake-judgement-flashing-group1,2021.1.2,60.25878774693221,
269,Trial # 117,Group1-stimuli/group1-block2/real-group1-b2/Group1_IMG_0192.jpg,1,Group1_IMG_0192.jpg,,,,,,,,,0.0,116.0,116.0,116.0,,,,,,,,,,,,,,,933.9007644541562,None,,,1,0.3111569751054048,936.3686295766385,None,936.3686295766385,None,,,935.2176857218146,None,,,,,1,2022_May_27_1431,Real-fake-judgement-flashing-group1,2021.1.2,60.25878774693221,
270,Trial # 118,Group1-stimuli/group1-block2/real-group1-b2/Group1_IMG_9786.jpg,1,Group1_IMG_9786.jpg,,,,,,,,,0.0,117.0,117.0,117.0,,,,,,,,,,,,,,,936.7026841882616,None,,,1,0.2539008390158415,939.1858855104074,None,939.1858855104074,None,,,938.0191576816142,None,,,,,1,2022_May_27_1431,Real-fake-judgement-flashing-group1,2021.1.2,60.25878774693221,
271,Trial # 119,Group1-stimuli/group1-block2/real-group1-b2/Group1_IMG_0187.jpg,1,Group1_IMG_0187.jpg,,,,,,,,,0.0,118.0,118.0,118.0,,,,,,,,,,,,,,,939.4692169288172,None,,,1,0.2133614476770162,941.9544407008216,None,941.9544407008216,None,,,940.7862953124568,None,,,,,1,2022_May_27_1431,Real-fake-judgement-flashing-group1,2021.1.2,60.25878774693221,
272,Trial # 120,Group1-stimuli/group1-block2/fake-group2-b2/encoded_Group2_IMG_0249.jpg,0,encoded_Group2_IMG_0249.jpg,,,,,,,,,0.0,119.0,119.0,119.0,,,,,,,,,,,,,,,942.187851574272,None,,,0,0.2654259270057082,944.6542628500612,None,944.6542628500612,None,,,943.487187700346,None,,,,,1,2022_May_27_1431,Real-fake-judgement-flashing-group1,2021.1.2,60.25878774693221,
273,Trial # 121,Group1-stimuli/group1-block2/fake-group2-b2/encoded_Group2_IMG_0074.jpg,0,encoded_Group2_IMG_0074.jpg,,,,,,,,,0.0,120.0,120.0,120.0,,,,,,,,,,,,,,,944.9372193478048,None,,,1,0.3219696059823036,947.421813296154,None,947.421813296154,None,,,946.2557071456686,None,,,,,1,2022_May_27_1431,Real-fake-judgement-flashing-group1,2021.1.2,60.25878774693221,
274,Trial # 122,Group1-stimuli/group1-block2/real-group1-b2/Group1_IMG_0243.jpg,1,Group1_IMG_0243.jpg,,,,,,,,,0.0,121.0,121.0,121.0,,,,,,,,,,,,,,,947.7718515433372,None,,,0,0.2724582143127918,950.2553272601216,None,950.2553272601216,None,,,949.0889859097078,None,,,,,1,2022_May_27_1431,Real-fake-judgement-flashing-group1,2021.1.2,60.25878774693221,
275,Trial # 123,Group1-stimuli/group1-block2/real-group1-b2/Group1_IMG_0130.jpg,1,Group1_IMG_0130.jpg,,,,,,,,,0.0,122.0,122.0,122.0,,,,,,,,,,,,,,,950.5574482064694,None,,,1,0.1916663721203804,953.0401232335716,None,953.0401232335716,None,,,951.8909719353542,None,,,,,1,2022_May_27_1431,Real-fake-judgement-flashing-group1,2021.1.2,60.25878774693221,
276,Trial # 124,Group1-stimuli/group1-block2/real-group1-b2/Group1_IMG_0298.jpg,1,Group1_IMG_0298.jpg,,,,,,,,,0.0,123.0,123.0,123.0,,,,,,,,,,,,,,,953.2570244325324,None,,,1,0.2191131589934229,955.7246739268304,None,955.7246739268304,None,,,954.5571496607736,None,,,,,1,2022_May_27_1431,Real-fake-judgement-flashing-group1,2021.1.2,60.25878774693221,
277,Trial # 125,Group1-stimuli/group1-block2/real-group1-b2/Group1_IMG_5871.jpg,1,Group1_IMG_5871.jpg,,,,,,,,,0.0,124.0,124.0,124.0,,,,,,,,,,,,,,,955.9753925185652,None,,,1,0.2852446492761373,958.4585408465936,None,958.4585408465936,None,,,957.2747099632396,None,,,,,1,2022_May_27_1431,Real-fake-judgement-flashing-group1,2021.1.2,60.25878774693221,
278,Trial # 126,Group1-stimuli/group1-block2/fake-group2-b2/encoded_Group2_IMG_0479.jpg,0,encoded_Group2_IMG_0479.jpg,,,,,,,,,0.0,125.0,125.0,125.0,,,,,,,,,,,,,,,958.7752501396462,None,,,1,0.2522368943318724,961.2435494661332,None,961.2435494661332,None,,,960.0754182888196,None,,,,,1,2022_May_27_1431,Real-fake-judgement-flashing-group1,2021.1.2,60.25878774693221,
