,Trial_num,image_path,ground_truth,image_name,demos.thisRepN,demos.thisTrialN,demos.thisN,demos.thisIndex,block1.thisRepN,block1.thisTrialN,block1.thisN,block1.thisIndex,block2.thisRepN,block2.thisTrialN,block2.thisN,block2.thisIndex,block1_rep2.thisRepN,block1_rep2.thisTrialN,block1_rep2.thisN,block1_rep2.thisIndex,block2_rep.thisRepN,block2_rep.thisTrialN,block2_rep.thisN,block2_rep.thisIndex,text_3.started,text_3.stopped,text_4.started,text_4.stopped,text.started,text.stopped,trail_num.started,trail_num.stopped,image_6.started,image_6.stopped,Judgement.keys,Judgement.rt,Judgement.started,Judgement.stopped,text_19.started,text_19.stopped,text_12.started,text_12.stopped,image.started,image.stopped,text_2.started,text_2.stopped,text_13.started,text_13.stopped,session,date,expName,psychopyVersion,frameRate,Unnamed: 54
0,Demo 1,demo/Demo_IMG_0974.jpg,demo,Demo_IMG_0974.jpg,0.0,0.0,0.0,0.0,,,,,,,,,,,,,,,,,18.91909807128832,None,49.12838986515999,None,75.16970212897286,None,79.48782147932798,None,80.87180506624281,None,1,4.258626752067357,81.88993983529508,None,81.88993983529508,None,,,,,,,,,1,2022_Apr_25_1604,Real-fake-judgement-flashing-group1,2021.1.2,59.867214260378105,
1,Demo 2,demo/Demo_IMG_1024.jpg,demo,Demo_IMG_1024.jpg,0.0,1.0,1.0,1.0,,,,,,,,,,,,,,,,,,,,,,,86.17362602427602,None,87.54162548622116,None,0,2.250303552020341,88.67419243324548,None,88.67419243324548,None,,,,,,,,,1,2022_Apr_25_1604,Real-fake-judgement-flashing-group1,2021.1.2,59.867214260378105,
2,Demo 3,demo/Demo_seed_80003.png,demo,Demo_seed_80003.png,0.0,2.0,2.0,2.0,,,,,,,,,,,,,,,,,,,,,,,90.9581929310225,None,92.39307016506793,None,0,1.8029780159704387,93.42564203310758,None,93.42564203310758,None,,,,,,,,,1,2022_Apr_25_1604,Real-fake-judgement-flashing-group1,2021.1.2,59.867214260378105,
3,Trial # 1,Group1-stimuli/group1-block1/real-group1-b1/Group1_IMG_0022.jpg,1,Group1_IMG_0022.jpg,,,,,0.0,0.0,0.0,0.0,,,,,,,,,,,,,,,,,,,104.04570655431598,None,,,1,2.02778279222548,106.496778359171,None,106.496778359171,None,95.74314090516418,None,105.36265320936218,None,,,,,1,2022_Apr_25_1604,Real-fake-judgement-flashing-group1,2021.1.2,59.867214260378105,
4,Trial # 2,Group1-stimuli/group1-block1/fake-group2-b1/encoded_Group2_IMG_0386.jpg,0,encoded_Group2_IMG_0386.jpg,,,,,0.0,1.0,1.0,1.0,,,,,,,,,,,,,,,,,,,108.54727027518676,None,,,0,0.8293107589706779,111.03124832594769,None,111.03124832594769,None,,,109.86397781828418,None,,,,,1,2022_Apr_25_1604,Real-fake-judgement-flashing-group1,2021.1.2,59.867214260378105,
5,Trial # 3,Group1-stimuli/group1-block1/real-group1-b1/Group1_IMG_9704.jpg,1,Group1_IMG_9704.jpg,,,,,0.0,2.0,2.0,2.0,,,,,,,,,,,,,,,,,,,111.88177679711951,None,,,0,1.5991630740463734,114.36545356502756,None,114.36545356502756,None,,,113.19956807000564,None,,,,,1,2022_Apr_25_1604,Real-fake-judgement-flashing-group1,2021.1.2,59.867214260378105,
6,Trial # 4,Group1-stimuli/group1-block1/real-group1-b1/Group1_IMG_0406.jpg,1,Group1_IMG_0406.jpg,,,,,0.0,3.0,3.0,3.0,,,,,,,,,,,,,,,,,,,115.98192697297782,None,,,1,0.6617504931055009,118.45481181005016,None,118.45481181005016,None,,,117.30085236625746,None,,,,,1,2022_Apr_25_1604,Real-fake-judgement-flashing-group1,2021.1.2,59.867214260378105,
7,Trial # 5,Group1-stimuli/group1-block1/fake-group2-b1/encoded_Group2_IMG_0364.jpg,0,encoded_Group2_IMG_0364.jpg,,,,,0.0,4.0,4.0,4.0,,,,,,,,,,,,,,,,,,,119.13880837522449,None,,,0,0.4030217411927879,121.60159061197191,None,121.60159061197191,None,,,120.43396282894535,None,,,,,1,2022_Apr_25_1604,Real-fake-judgement-flashing-group1,2021.1.2,59.867214260378105,
8,Trial # 6,Group1-stimuli/group1-block1/fake-group2-b1/encoded_Group2_IMG_0407.jpg,0,encoded_Group2_IMG_0407.jpg,,,,,0.0,5.0,5.0,5.0,,,,,,,,,,,,,,,,,,,122.03558875620364,None,,,1,0.9900260679423808,124.51853688107803,None,124.51853688107803,None,,,123.35264868894592,None,,,,,1,2022_Apr_25_1604,Real-fake-judgement-flashing-group1,2021.1.2,59.867214260378105,
9,Trial # 7,Group1-stimuli/group1-block1/real-group1-b1/Group1_IMG_0428.jpg,1,Group1_IMG_0428.jpg,,,,,0.0,6.0,6.0,6.0,,,,,,,,,,,,,,,,,,,125.53544185310602,None,,,1,0.6002695262432098,128.0042221210897,None,128.0042221210897,None,,,126.83706647204237,None,,,,,1,2022_Apr_25_1604,Real-fake-judgement-flashing-group1,2021.1.2,59.867214260378105,
10,Trial # 8,Group1-stimuli/group1-block1/fake-group2-b1/encoded_Group2_IMG_0474.jpg,0,encoded_Group2_IMG_0474.jpg,,,,,0.0,7.0,7.0,7.0,,,,,,,,,,,,,,,,,,,128.63654739409685,None,,,0,0.300320393871516,131.12026490923017,None,131.12026490923017,None,,,129.9532535551116,None,,,,,1,2022_Apr_25_1604,Real-fake-judgement-flashing-group1,2021.1.2,59.867214260378105,
11,Trial # 9,Group1-stimuli/group1-block1/fake-group2-b1/encoded_Group2_IMG_1506.jpg,0,encoded_Group2_IMG_1506.jpg,,,,,0.0,8.0,8.0,8.0,,,,,,,,,,,,,,,,,,,131.43878237111494,None,,,1,1.075087432283908,133.92147886613384,None,133.92147886613384,None,,,132.77220350829884,None,,,,,1,2022_Apr_25_1604,Real-fake-judgement-flashing-group1,2021.1.2,59.867214260378105,
12,Trial # 10,Group1-stimuli/group1-block1/real-group1-b1/Group1_IMG_9789.jpg,1,Group1_IMG_9789.jpg,,,,,0.0,9.0,9.0,9.0,,,,,,,,,,,,,,,,,,,135.02154567325488,None,,,1,0.6581176673062146,137.50644497433677,None,137.50644497433677,None,,,136.3390260101296,None,,,,,1,2022_Apr_25_1604,Real-fake-judgement-flashing-group1,2021.1.2,59.867214260378105,
13,Trial # 11,Group1-stimuli/group1-block1/real-group1-b1/Group1_IMG_9778.jpg,1,Group1_IMG_9778.jpg,,,,,0.0,10.0,10.0,10.0,,,,,,,,,,,,,,,,,,,138.18962108902633,None,,,0,0.587667154148221,140.6568949879147,None,140.6568949879147,None,,,139.50655677635223,None,,,,,1,2022_Apr_25_1604,Real-fake-judgement-flashing-group1,2021.1.2,59.867214260378105,
14,Trial # 12,Group1-stimuli/group1-block1/real-group1-b1/Group1_IMG_9813.jpg,1,Group1_IMG_9813.jpg,,,,,0.0,11.0,11.0,11.0,,,,,,,,,,,,,,,,,,,141.27335051307455,None,,,1,0.7267008568160236,143.75786215113476,None,143.75786215113476,None,,,142.57503679627553,None,,,,,1,2022_Apr_25_1604,Real-fake-judgement-flashing-group1,2021.1.2,59.867214260378105,
15,Trial # 13,Group1-stimuli/group1-block1/real-group1-b1/Group1_IMG_0516.jpg,1,Group1_IMG_0516.jpg,,,,,0.0,12.0,12.0,12.0,,,,,,,,,,,,,,,,,,,144.5081001170911,None,,,1,1.3725046068429947,146.97605744190514,None,146.97605744190514,None,,,145.80894293403253,None,,,,,1,2022_Apr_25_1604,Real-fake-judgement-flashing-group1,2021.1.2,59.867214260378105,
16,Trial # 14,Group1-stimuli/group1-block1/fake-group2-b1/encoded_Group2_IMG_0038.jpg,0,encoded_Group2_IMG_0038.jpg,,,,,0.0,13.0,13.0,13.0,,,,,,,,,,,,,,,,,,,148.376304294914,None,,,0,0.2887175558134913,150.8598456881009,None,150.8598456881009,None,,,149.6927037499845,None,,,,,1,2022_Apr_25_1604,Real-fake-judgement-flashing-group1,2021.1.2,59.867214260378105,
17,Trial # 15,Group1-stimuli/group1-block1/real-group1-b1/Group1_IMG_5984.jpg,1,Group1_IMG_5984.jpg,,,,,0.0,14.0,14.0,14.0,,,,,,,,,,,,,,,,,,,151.1764728743583,None,,,1,0.3435119739733636,153.66104936413467,None,153.66104936413467,None,,,152.51168451923877,None,,,,,1,2022_Apr_25_1604,Real-fake-judgement-flashing-group1,2021.1.2,59.867214260378105,
18,Trial # 16,Group1-stimuli/group1-block1/real-group1-b1/Group1_IMG_0383.jpg,1,Group1_IMG_0383.jpg,,,,,0.0,15.0,15.0,15.0,,,,,,,,,,,,,,,,,,,154.02767313597724,None,,,1,0.3075043563731015,156.5130564402789,None,156.5130564402789,None,,,155.34478830732405,None,,,,,1,2022_Apr_25_1604,Real-fake-judgement-flashing-group1,2021.1.2,59.867214260378105,
19,Trial # 17,Group1-stimuli/group1-block1/fake-group2-b1/encoded_Group2_IMG_0456.jpg,0,encoded_Group2_IMG_0456.jpg,,,,,0.0,16.0,16.0,16.0,,,,,,,,,,,,,,,,,,,156.84555833926424,None,,,0,0.0195577531121671,159.32902337005362,None,159.32902337005362,None,,,158.16295859590173,None,,,,,1,2022_Apr_25_1604,Real-fake-judgement-flashing-group1,2021.1.2,59.867214260378105,
20,Trial # 18,Group1-stimuli/group1-block1/fake-group2-b1/encoded_Group2_IMG_8390.jpg,0,encoded_Group2_IMG_8390.jpg,,,,,0.0,17.0,17.0,17.0,,,,,,,,,,,,,,,,,,,159.37973257899284,None,,,0,0.4518403098918497,161.86472204327583,None,161.86472204327583,None,,,160.67955322330818,None,,,,,1,2022_Apr_25_1604,Real-fake-judgement-flashing-group1,2021.1.2,59.867214260378105,
21,Trial # 19,Group1-stimuli/group1-block1/real-group1-b1/Group1_IMG_0011.jpg,1,Group1_IMG_0011.jpg,,,,,0.0,18.0,18.0,18.0,,,,,,,,,,,,,,,,,,,162.34732342418283,None,,,1,0.517251281067729,164.8312440942973,None,164.8312440942973,None,,,163.66397932823747,None,,,,,1,2022_Apr_25_1604,Real-fake-judgement-flashing-group1,2021.1.2,59.867214260378105,
22,Trial # 20,Group1-stimuli/group1-block1/fake-group2-b1/encoded_Group2_IMG_0328.jpg,0,encoded_Group2_IMG_0328.jpg,,,,,0.0,19.0,19.0,19.0,,,,,,,,,,,,,,,,,,,165.38119785115123,None,,,1,0.3235475192777812,167.83304701000452,None,167.83304701000452,None,,,166.66613596025854,None,,,,,1,2022_Apr_25_1604,Real-fake-judgement-flashing-group1,2021.1.2,59.867214260378105,
23,Trial # 21,Group1-stimuli/group1-block1/fake-group2-b1/encoded_Group2_IMG_0163.jpg,0,encoded_Group2_IMG_0163.jpg,,,,,0.0,20.0,20.0,20.0,,,,,,,,,,,,,,,,,,,168.18339755712077,None,,,0,0.4182929140515625,170.66626886511222,None,170.66626886511222,None,,,169.49921181891114,None,,,,,1,2022_Apr_25_1604,Real-fake-judgement-flashing-group1,2021.1.2,59.867214260378105,
24,Trial # 22,Group1-stimuli/group1-block1/real-group1-b1/Group1_IMG_9862.jpg,1,Group1_IMG_9862.jpg,,,,,0.0,21.0,21.0,21.0,,,,,,,,,,,,,,,,,,,171.11634093010798,None,,,1,1.451214533764869,173.60136177623644,None,173.60136177623644,None,,,172.41792244603857,None,,,,,1,2022_Apr_25_1604,Real-fake-judgement-flashing-group1,2021.1.2,59.867214260378105,
25,Trial # 23,Group1-stimuli/group1-block1/fake-group2-b1/encoded_Group2_IMG_0296.jpg,0,encoded_Group2_IMG_0296.jpg,,,,,0.0,22.0,22.0,22.0,,,,,,,,,,,,,,,,,,,175.08443698100746,None,,,0,0.5318630030378699,177.55270807025954,None,177.55270807025954,None,,,176.38407461019233,None,,,,,1,2022_Apr_25_1604,Real-fake-judgement-flashing-group1,2021.1.2,59.867214260378105,
26,Trial # 24,Group1-stimuli/group1-block1/fake-group2-b1/encoded_Group2_IMG_0503.jpg,0,encoded_Group2_IMG_0503.jpg,,,,,0.0,23.0,23.0,23.0,,,,,,,,,,,,,,,,,,,178.10199101129547,None,,,0,0.6837452449835837,180.56881117913872,None,180.56881117913872,None,,,179.40189794823527,None,,,,,1,2022_Apr_25_1604,Real-fake-judgement-flashing-group1,2021.1.2,59.867214260378105,
27,Trial # 25,Group1-stimuli/group1-block1/fake-group2-b1/encoded_Group2_IMG_9804.jpg,0,encoded_Group2_IMG_9804.jpg,,,,,0.0,24.0,24.0,24.0,,,,,,,,,,,,,,,,,,,181.2684935480356,None,,,1,0.2043697293847799,183.72021709335968,None,183.72021709335968,None,,,182.55442808009684,None,,,,,1,2022_Apr_25_1604,Real-fake-judgement-flashing-group1,2021.1.2,59.867214260378105,
28,Trial # 26,Group1-stimuli/group1-block1/real-group1-b1/Group1_IMG_0391.jpg,1,Group1_IMG_0391.jpg,,,,,0.0,25.0,25.0,25.0,,,,,,,,,,,,,,,,,,,183.95372172817588,None,,,1,0.350957304239273,186.4215485341847,None,186.4215485341847,None,,,185.25401075091213,None,,,,,1,2022_Apr_25_1604,Real-fake-judgement-flashing-group1,2021.1.2,59.867214260378105,
29,Trial # 27,Group1-stimuli/group1-block1/fake-group2-b1/encoded_Group2_IMG_3584.jpg,0,encoded_Group2_IMG_3584.jpg,,,,,0.0,26.0,26.0,26.0,,,,,,,,,,,,,,,,,,,186.80495272018013,None,,,0,0.3158784890547395,189.28866525134072,None,189.28866525134072,None,,,188.10613828431812,None,,,,,1,2022_Apr_25_1604,Real-fake-judgement-flashing-group1,2021.1.2,59.867214260378105,
30,Trial # 28,Group1-stimuli/group1-block1/fake-group2-b1/encoded_Group2_IMG_0434.jpg,0,encoded_Group2_IMG_0434.jpg,,,,,0.0,27.0,27.0,27.0,,,,,,,,,,,,,,,,,,,189.62185915606096,None,,,0,0.2818841473199427,192.09068884607404,None,192.09068884607404,None,,,190.9225025312044,None,,,,,1,2022_Apr_25_1604,Real-fake-judgement-flashing-group1,2021.1.2,59.867214260378105,
31,Trial # 29,Group1-stimuli/group1-block1/fake-group2-b1/encoded_Group2_IMG_9575.jpg,0,encoded_Group2_IMG_9575.jpg,,,,,0.0,28.0,28.0,28.0,,,,,,,,,,,,,,,,,,,192.3911512629129,None,,,1,0.3549875831231475,194.8735822569579,None,194.8735822569579,None,,,193.72422995930535,None,,,,,1,2022_Apr_25_1604,Real-fake-judgement-flashing-group1,2021.1.2,59.867214260378105,
32,Trial # 30,Group1-stimuli/group1-block1/fake-group2-b1/encoded_Group2_IMG_1025.jpg,0,encoded_Group2_IMG_1025.jpg,,,,,0.0,29.0,29.0,29.0,,,,,,,,,,,,,,,,,,,195.25740742031485,None,,,0,0.4787026364356279,197.72585947532207,None,197.72585947532207,None,,,196.55874826805663,None,,,,,1,2022_Apr_25_1604,Real-fake-judgement-flashing-group1,2021.1.2,59.867214260378105,
33,Trial # 31,Group1-stimuli/group1-block1/real-group1-b1/Group1_IMG_0502.jpg,1,Group1_IMG_0502.jpg,,,,,0.0,30.0,30.0,30.0,,,,,,,,,,,,,,,,,,,198.226171317976,None,,,1,1.0076007251627743,200.7089721122757,None,200.7089721122757,None,,,199.55839738808567,None,,,,,1,2022_Apr_25_1604,Real-fake-judgement-flashing-group1,2021.1.2,59.867214260378105,
34,Trial # 32,Group1-stimuli/group1-block1/real-group1-b1/Group1_IMG_0182.jpg,1,Group1_IMG_0182.jpg,,,,,0.0,31.0,31.0,31.0,,,,,,,,,,,,,,,,,,,201.74368991702795,None,,,0,1.5862391120754182,204.22633080836383,None,204.22633080836383,None,,,203.06083878595385,None,,,,,1,2022_Apr_25_1604,Real-fake-judgement-flashing-group1,2021.1.2,59.867214260378105,
35,Trial # 33,Group1-stimuli/group1-block1/fake-group2-b1/encoded_Group2_IMG_2728.jpg,0,encoded_Group2_IMG_2728.jpg,,,,,0.0,32.0,32.0,32.0,,,,,,,,,,,,,,,,,,,205.8436825089157,None,,,1,0.8300923788920045,208.29446629993615,None,208.29446629993615,None,,,207.12870586803183,None,,,,,1,2022_Apr_25_1604,Real-fake-judgement-flashing-group1,2021.1.2,59.867214260378105,
36,Trial # 34,Group1-stimuli/group1-block1/fake-group2-b1/encoded_Group2_IMG_4867.jpg,0,encoded_Group2_IMG_4867.jpg,,,,,0.0,33.0,33.0,33.0,,,,,,,,,,,,,,,,,,,209.14499803911892,None,,,0,0.4320931611582637,211.61250704620036,None,211.61250704620036,None,,,210.4451038702391,None,,,,,1,2022_Apr_25_1604,Real-fake-judgement-flashing-group1,2021.1.2,59.867214260378105,
37,Trial # 35,Group1-stimuli/group1-block1/real-group1-b1/Group1_IMG_9894.jpg,1,Group1_IMG_9894.jpg,,,,,0.0,34.0,34.0,34.0,,,,,,,,,,,,,,,,,,,212.0637201280333,None,,,1,0.2105548079125583,214.53001013724133,None,214.53001013724133,None,,,213.36268686223772,None,,,,,1,2022_Apr_25_1604,Real-fake-judgement-flashing-group1,2021.1.2,59.867214260378105,
38,Trial # 36,Group1-stimuli/group1-block1/fake-group2-b1/encoded_Group2_IMG_0444.jpg,0,encoded_Group2_IMG_0444.jpg,,,,,0.0,35.0,35.0,35.0,,,,,,,,,,,,,,,,,,,214.7632399541326,None,,,0,0.2929010018706321,217.2316598100588,None,217.2316598100588,None,,,216.06336245592684,None,,,,,1,2022_Apr_25_1604,Real-fake-judgement-flashing-group1,2021.1.2,59.867214260378105,
39,Trial # 37,Group1-stimuli/group1-block1/real-group1-b1/Group1_IMG_2656.jpg,1,Group1_IMG_2656.jpg,,,,,0.0,36.0,36.0,36.0,,,,,,,,,,,,,,,,,,,217.5488549619913,None,,,1,0.3250633841380477,220.0315356482752,None,220.0315356482752,None,,,218.8643418499269,None,,,,,1,2022_Apr_25_1604,Real-fake-judgement-flashing-group1,2021.1.2,59.867214260378105,
40,Trial # 38,Group1-stimuli/group1-block1/real-group1-b1/Group1_IMG_0207.jpg,1,Group1_IMG_0207.jpg,,,,,0.0,37.0,37.0,37.0,,,,,,,,,,,,,,,,,,,220.38166341325268,None,,,0,0.2103943866677582,222.8501841663383,None,222.8501841663383,None,,,221.6999966702424,None,,,,,1,2022_Apr_25_1604,Real-fake-judgement-flashing-group1,2021.1.2,59.867214260378105,
41,Trial # 39,Group1-stimuli/group1-block1/real-group1-b1/Group1_IMG_9638.jpg,1,Group1_IMG_9638.jpg,,,,,0.0,38.0,38.0,38.0,,,,,,,,,,,,,,,,,,,223.08234876021743,None,,,0,0.1426127240993082,225.54994519613683,None,225.54994519613683,None,,,224.3826154023409,None,,,,,1,2022_Apr_25_1604,Real-fake-judgement-flashing-group1,2021.1.2,59.867214260378105,
42,Trial # 40,Group1-stimuli/group1-block1/real-group1-b1/Group1_IMG_0148.jpg,1,Group1_IMG_0148.jpg,,,,,0.0,39.0,39.0,39.0,,,,,,,,,,,,,,,,,,,225.71662779990584,None,,,0,0.100034852977842,228.2005658140406,None,228.2005658140406,None,,,227.0180201153271,None,,,,,1,2022_Apr_25_1604,Real-fake-judgement-flashing-group1,2021.1.2,59.867214260378105,
43,Trial # 41,Group1-stimuli/group1-block1/real-group1-b1/Group1_IMG_2891.jpg,1,Group1_IMG_2891.jpg,,,,,0.0,40.0,40.0,40.0,,,,,,,,,,,,,,,,,,,228.3172592651099,None,,,1,0.0681340172886848,230.7843564501964,None,230.7843564501964,None,,,229.63445904431865,None,,,,,1,2022_Apr_25_1604,Real-fake-judgement-flashing-group1,2021.1.2,59.867214260378105,
44,Trial # 42,Group1-stimuli/group1-block1/real-group1-b1/Group1_IMG_0157.jpg,1,Group1_IMG_0157.jpg,,,,,0.0,41.0,41.0,41.0,,,,,,,,,,,,,,,,,,,230.88490990409628,None,,,0,0.4681554459966719,233.35235034208745,None,233.35235034208745,None,,,232.31972783105448,None,,,,,1,2022_Apr_25_1604,Real-fake-judgement-flashing-group1,2021.1.2,59.867214260378105,
45,Trial # 43,Group1-stimuli/group1-block1/real-group1-b1/Group1_IMG_9833.jpg,1,Group1_IMG_9833.jpg,,,,,0.0,42.0,42.0,42.0,,,,,,,,,,,,,,,,,,,233.8526285253465,None,,,1,1.1402335590682924,236.33634947426617,None,236.33634947426617,None,,,235.16934066591784,None,,,,,1,2022_Apr_25_1604,Real-fake-judgement-flashing-group1,2021.1.2,59.867214260378105,
46,Trial # 44,Group1-stimuli/group1-block1/fake-group2-b1/encoded_Group2_IMG_2230.jpg,0,encoded_Group2_IMG_2230.jpg,,,,,0.0,43.0,43.0,43.0,,,,,,,,,,,,,,,,,,,237.50407849112528,None,,,1,0.1607731659896671,239.9877875130624,None,239.9877875130624,None,,,238.82053033122796,None,,,,,1,2022_Apr_25_1604,Real-fake-judgement-flashing-group1,2021.1.2,59.867214260378105,
47,Trial # 45,Group1-stimuli/group1-block1/real-group1-b1/Group1_IMG_9966.jpg,1,Group1_IMG_9966.jpg,,,,,0.0,44.0,44.0,44.0,,,,,,,,,,,,,,,,,,,240.1706828759052,None,,,1,0.3167312908917665,242.63979130610824,None,242.63979130610824,None,,,241.47263029031456,None,,,,,1,2022_Apr_25_1604,Real-fake-judgement-flashing-group1,2021.1.2,59.867214260378105,
48,Trial # 46,Group1-stimuli/group1-block1/real-group1-b1/Group1_IMG_0239.jpg,1,Group1_IMG_0239.jpg,,,,,0.0,45.0,45.0,45.0,,,,,,,,,,,,,,,,,,,242.989583583083,None,,,0,2.18886573985219,245.4556955411099,None,245.4556955411099,None,,,244.2889814162627,None,,,,,1,2022_Apr_25_1604,Real-fake-judgement-flashing-group1,2021.1.2,59.867214260378105,
49,Trial # 47,Group1-stimuli/group1-block1/fake-group2-b1/encoded_Group2_IMG_0536.jpg,0,encoded_Group2_IMG_0536.jpg,,,,,0.0,46.0,46.0,46.0,,,,,,,,,,,,,,,,,,,247.6739854379557,None,,,0,0.2472971151582896,250.1572708701715,None,250.1572708701715,None,,,248.9734088019468,None,,,,,1,2022_Apr_25_1604,Real-fake-judgement-flashing-group1,2021.1.2,59.867214260378105,
50,Trial # 48,Group1-stimuli/group1-block1/fake-group2-b1/encoded_Group2_IMG_0521.jpg,0,encoded_Group2_IMG_0521.jpg,,,,,0.0,47.0,47.0,47.0,,,,,,,,,,,,,,,,,,,250.4240969573148,None,,,0,0.2557247607037425,252.89294053195044,None,252.89294053195044,None,,,251.7256766553037,None,,,,,1,2022_Apr_25_1604,Real-fake-judgement-flashing-group1,2021.1.2,59.867214260378105,
51,Trial # 49,Group1-stimuli/group1-block1/fake-group2-b1/encoded_Group2_IMG_9924.jpg,0,encoded_Group2_IMG_9924.jpg,,,,,0.0,48.0,48.0,48.0,,,,,,,,,,,,,,,,,,,253.1753319259733,None,,,1,0.3134745159186423,255.6590796331875,None,255.6590796331875,None,,,254.5087721911259,None,,,,,1,2022_Apr_25_1604,Real-fake-judgement-flashing-group1,2021.1.2,59.867214260378105,
52,Trial # 50,Group1-stimuli/group1-block1/real-group1-b1/Group1_IMG_9730.jpg,1,Group1_IMG_9730.jpg,,,,,0.0,49.0,49.0,49.0,,,,,,,,,,,,,,,,,,,255.9923065439798,None,,,1,0.4485404607839882,258.46005752217025,None,258.46005752217025,None,,,257.31068291934207,None,,,,,1,2022_Apr_25_1604,Real-fake-judgement-flashing-group1,2021.1.2,59.867214260378105,
53,Trial # 51,Group1-stimuli/group1-block1/real-group1-b1/Group1_IMG_0053.jpg,1,Group1_IMG_0053.jpg,,,,,0.0,50.0,50.0,50.0,,,,,,,,,,,,,,,,,,,258.92668639915064,None,,,1,0.5625014817342162,261.3940900792368,None,261.3940900792368,None,,,260.2434822022915,None,,,,,1,2022_Apr_25_1604,Real-fake-judgement-flashing-group1,2021.1.2,59.867214260378105,
54,Trial # 52,Group1-stimuli/group1-block1/real-group1-b1/Group1_IMG_9698.jpg,1,Group1_IMG_9698.jpg,,,,,0.0,51.0,51.0,51.0,,,,,,,,,,,,,,,,,,,261.97916840715334,None,,,0,0.3113613021560013,264.44522485509515,None,264.44522485509515,None,,,263.2791139231995,None,,,,,1,2022_Apr_25_1604,Real-fake-judgement-flashing-group1,2021.1.2,59.867214260378105,
55,Trial # 53,Group1-stimuli/group1-block1/fake-group2-b1/encoded_Group2_IMG_0553.jpg,0,encoded_Group2_IMG_0553.jpg,,,,,0.0,52.0,52.0,52.0,,,,,,,,,,,,,,,,,,,264.7790033281781,None,,,0,0.2291475581005215,267.2474140929989,None,267.2474140929989,None,,,266.079003633,None,,,,,1,2022_Apr_25_1604,Real-fake-judgement-flashing-group1,2021.1.2,59.867214260378105,
56,Trial # 54,Group1-stimuli/group1-block1/fake-group2-b1/encoded_Group2_IMG_9758.jpg,0,encoded_Group2_IMG_9758.jpg,,,,,0.0,53.0,53.0,53.0,,,,,,,,,,,,,,,,,,,267.4972268030979,None,,,1,0.0809598010964691,269.963632225059,None,269.963632225059,None,,,268.7965214173309,None,,,,,1,2022_Apr_25_1604,Real-fake-judgement-flashing-group1,2021.1.2,59.867214260378105,
57,Trial # 55,Group1-stimuli/group1-block1/fake-group2-b1/encoded_Group2_IMG_0339.jpg,0,encoded_Group2_IMG_0339.jpg,,,,,0.0,54.0,54.0,54.0,,,,,,,,,,,,,,,,,,,270.0643542460166,None,,,1,3.128300915006548,272.5322768311016,None,272.5322768311016,None,,,271.3801317983307,None,,,,,1,2022_Apr_25_1604,Real-fake-judgement-flashing-group1,2021.1.2,59.867214260378105,
58,Trial # 56,Group1-stimuli/group1-block1/real-group1-b1/Group1_IMG_0314.jpg,1,Group1_IMG_0314.jpg,,,,,0.0,55.0,55.0,55.0,,,,,,,,,,,,,,,,,,,275.682290636003,None,,,1,0.2140877000056207,278.1505111469887,None,278.1505111469887,None,,,277.00048708636314,None,,,,,1,2022_Apr_25_1604,Real-fake-judgement-flashing-group1,2021.1.2,59.867214260378105,
59,Trial # 57,Group1-stimuli/group1-block1/fake-group2-b1/encoded_Group2_IMG_0532.jpg,0,encoded_Group2_IMG_0532.jpg,,,,,0.0,56.0,56.0,56.0,,,,,,,,,,,,,,,,,,,278.3833303032443,None,,,0,0.5221168408170342,280.85045020701364,None,280.85045020701364,None,,,279.6840174263343,None,,,,,1,2022_Apr_25_1604,Real-fake-judgement-flashing-group1,2021.1.2,59.867214260378105,
60,Trial # 58,Group1-stimuli/group1-block1/fake-group2-b1/encoded_Group2_IMG_0462.jpg,0,encoded_Group2_IMG_0462.jpg,,,,,0.0,57.0,57.0,57.0,,,,,,,,,,,,,,,,,,,281.4002508870326,None,,,0,0.297162429895252,283.8513898733072,None,283.8513898733072,None,,,282.6851857849397,None,,,,,1,2022_Apr_25_1604,Real-fake-judgement-flashing-group1,2021.1.2,59.867214260378105,
61,Trial # 59,Group1-stimuli/group1-block1/real-group1-b1/Group1_IMG_0172.jpg,1,Group1_IMG_0172.jpg,,,,,0.0,58.0,58.0,58.0,,,,,,,,,,,,,,,,,,,284.1682608332485,None,,,1,0.3126981337554753,286.63587170792744,None,286.63587170792744,None,,,285.4844555202872,None,,,,,1,2022_Apr_25_1604,Real-fake-judgement-flashing-group1,2021.1.2,59.867214260378105,
62,Trial # 60,Group1-stimuli/group1-block1/real-group1-b1/Group1_IMG_4841.jpg,1,Group1_IMG_4841.jpg,,,,,0.0,59.0,59.0,59.0,,,,,,,,,,,,,,,,,,,286.9702298552729,None,,,1,0.2394703608006239,289.4530980270356,None,289.4530980270356,None,,,288.3192938133143,None,,,,,1,2022_Apr_25_1604,Real-fake-judgement-flashing-group1,2021.1.2,59.867214260378105,
63,Trial # 61,Group1-stimuli/group1-block1/fake-group2-b1/encoded_Group2_IMG_0352.jpg,0,encoded_Group2_IMG_0352.jpg,,,,,0.0,60.0,60.0,60.0,,,,,,,,,,,,,,,,,,,289.72006874205545,None,,,0,0.1760758338496089,292.1885172012262,None,292.1885172012262,None,,,291.0202190009877,None,,,,,1,2022_Apr_25_1604,Real-fake-judgement-flashing-group1,2021.1.2,59.867214260378105,
64,Trial # 62,Group1-stimuli/group1-block1/fake-group2-b1/encoded_Group2_IMG_9726.jpg,0,encoded_Group2_IMG_9726.jpg,,,,,0.0,61.0,61.0,61.0,,,,,,,,,,,,,,,,,,,292.3884997521527,None,,,1,0.293422520160675,294.8711639982648,None,294.8711639982648,None,,,293.70405673608184,None,,,,,1,2022_Apr_25_1604,Real-fake-judgement-flashing-group1,2021.1.2,59.867214260378105,
65,Trial # 63,Group1-stimuli/group1-block1/fake-group2-b1/encoded_Group2_IMG_9785.jpg,0,encoded_Group2_IMG_9785.jpg,,,,,0.0,62.0,62.0,62.0,,,,,,,,,,,,,,,,,,,295.1882386673242,None,,,0,0.2764459089376032,297.6401229100302,None,297.6401229100302,None,,,296.4730727621354,None,,,,,1,2022_Apr_25_1604,Real-fake-judgement-flashing-group1,2021.1.2,59.867214260378105,
66,Trial # 64,Group1-stimuli/group1-block1/fake-group2-b1/encoded_Group2_IMG_0440.jpg,0,encoded_Group2_IMG_0440.jpg,,,,,0.0,63.0,63.0,63.0,,,,,,,,,,,,,,,,,,,297.93980547692627,None,,,0,0.278481847140938,300.4060840071179,None,300.4060840071179,None,,,299.23935643117875,None,,,,,1,2022_Apr_25_1604,Real-fake-judgement-flashing-group1,2021.1.2,59.867214260378105,
67,Trial # 65,Group1-stimuli/group1-block1/fake-group2-b1/encoded_Group2_IMG_1695.jpg,0,encoded_Group2_IMG_1695.jpg,,,,,0.0,64.0,64.0,64.0,,,,,,,,,,,,,,,,,,,300.7069461029023,None,,,1,0.4052858729846775,303.175284455996,None,303.175284455996,None,,,302.0084276050329,None,,,,,1,2022_Apr_25_1604,Real-fake-judgement-flashing-group1,2021.1.2,59.867214260378105,
68,Trial # 66,Group1-stimuli/group1-block1/real-group1-b1/Group1_IMG_0552.jpg,1,Group1_IMG_0552.jpg,,,,,0.0,65.0,65.0,65.0,,,,,,,,,,,,,,,,,,,303.6087294812314,None,,,1,0.2332096849568188,306.09134814329445,None,306.09134814329445,None,,,304.924057001248,None,,,,,1,2022_Apr_25_1604,Real-fake-judgement-flashing-group1,2021.1.2,59.867214260378105,
69,Trial # 67,Group1-stimuli/group1-block1/real-group1-b1/Group1_IMG_1029.jpg,1,Group1_IMG_1029.jpg,,,,,0.0,66.0,66.0,66.0,,,,,,,,,,,,,,,,,,,306.3416753411293,None,,,0,0.1709356913343072,308.8096361961216,None,308.8096361961216,None,,,307.6430578841828,None,,,,,1,2022_Apr_25_1604,Real-fake-judgement-flashing-group1,2021.1.2,59.867214260378105,
70,Trial # 68,Group1-stimuli/group1-block1/fake-group2-b1/encoded_Group2_IMG_6517.jpg,0,encoded_Group2_IMG_6517.jpg,,,,,0.0,67.0,67.0,67.0,,,,,,,,,,,,,,,,,,,309.00892955623567,None,,,0,0.3194987131282687,311.47707220492885,None,311.47707220492885,None,,,310.30952945398167,None,,,,,1,2022_Apr_25_1604,Real-fake-judgement-flashing-group1,2021.1.2,59.867214260378105,
71,Trial # 69,Group1-stimuli/group1-block1/fake-group2-b1/encoded_Group2_IMG_0002.jpg,0,encoded_Group2_IMG_0002.jpg,,,,,0.0,68.0,68.0,68.0,,,,,,,,,,,,,,,,,,,311.8272195532918,None,,,1,0.2539122137241065,314.3106572730467,None,314.3106572730467,None,,,313.1280805882998,None,,,,,1,2022_Apr_25_1604,Real-fake-judgement-flashing-group1,2021.1.2,59.867214260378105,
72,Trial # 70,Group1-stimuli/group1-block1/real-group1-b1/Group1_IMG_0495.jpg,1,Group1_IMG_0495.jpg,,,,,0.0,69.0,69.0,69.0,,,,,,,,,,,,,,,,,,,314.59480099519715,None,,,1,0.3978217393159866,317.0627480652184,None,317.0627480652184,None,,,315.9606985542923,None,,,,,1,2022_Apr_25_1604,Real-fake-judgement-flashing-group1,2021.1.2,59.867214260378105,
73,Trial # 71,Group1-stimuli/group1-block1/real-group1-b1/Group1_IMG_1391.jpg,1,Group1_IMG_1391.jpg,,,,,0.0,70.0,70.0,70.0,,,,,,,,,,,,,,,,,,,317.4796558902599,None,,,1,0.834302231669426,319.9621889241971,None,319.9621889241971,None,,,318.81183234229684,None,,,,,1,2022_Apr_25_1604,Real-fake-judgement-flashing-group1,2021.1.2,59.867214260378105,
74,Trial # 72,Group1-stimuli/group1-block1/real-group1-b1/Group1_IMG_0343.jpg,1,Group1_IMG_0343.jpg,,,,,0.0,71.0,71.0,71.0,,,,,,,,,,,,,,,,,,,320.8294872092083,None,,,1,0.2997072790749371,323.2968710609712,None,323.2968710609712,None,,,322.14748615026474,None,,,,,1,2022_Apr_25_1604,Real-fake-judgement-flashing-group1,2021.1.2,59.867214260378105,
75,Trial # 73,Group1-stimuli/group1-block1/fake-group2-b1/encoded_Group2_IMG_9810.jpg,0,encoded_Group2_IMG_9810.jpg,,,,,0.0,72.0,72.0,72.0,,,,,,,,,,,,,,,,,,,323.6136526702903,None,,,0,0.5150352967903018,326.08151427516714,None,326.08151427516714,None,,,324.914363949094,None,,,,,1,2022_Apr_25_1604,Real-fake-judgement-flashing-group1,2021.1.2,59.867214260378105,
76,Trial # 74,Group1-stimuli/group1-block1/fake-group2-b1/encoded_Group2_IMG_5900.jpg,0,encoded_Group2_IMG_5900.jpg,,,,,0.0,73.0,73.0,73.0,,,,,,,,,,,,,,,,,,,326.6158681861125,None,,,0,0.4184740888886153,329.0820961529389,None,329.0820961529389,None,,,327.91603021416813,None,,,,,1,2022_Apr_25_1604,Real-fake-judgement-flashing-group1,2021.1.2,59.867214260378105,
77,Trial # 75,Group1-stimuli/group1-block1/real-group1-b1/Group1_IMG_9679.jpg,1,Group1_IMG_9679.jpg,,,,,0.0,74.0,74.0,74.0,,,,,,,,,,,,,,,,,,,329.5324428132735,None,,,1,0.2199751706793904,332.0005878531374,None,332.0005878531374,None,,,330.8487958381884,None,,,,,1,2022_Apr_25_1604,Real-fake-judgement-flashing-group1,2021.1.2,59.867214260378105,
78,Trial # 76,Group1-stimuli/group1-block1/fake-group2-b1/encoded_Group2_IMG_4249.jpg,0,encoded_Group2_IMG_4249.jpg,,,,,0.0,75.0,75.0,75.0,,,,,,,,,,,,,,,,,,,332.250808973331,None,,,0,1.0699940072372556,334.734568647109,None,334.734568647109,None,,,333.5665921391919,None,,,,,1,2022_Apr_25_1604,Real-fake-judgement-flashing-group1,2021.1.2,59.867214260378105,
79,Trial # 77,Group1-stimuli/group1-block1/fake-group2-b1/encoded_Group2_IMG_0174.jpg,0,encoded_Group2_IMG_0174.jpg,,,,,0.0,76.0,76.0,76.0,,,,,,,,,,,,,,,,,,,335.8345136260614,None,,,0,0.3510615169070661,338.30143925827,None,338.30143925827,None,,,337.11807754123583,None,,,,,1,2022_Apr_25_1604,Real-fake-judgement-flashing-group1,2021.1.2,59.867214260378105,
80,Trial # 78,Group1-stimuli/group1-block1/fake-group2-b1/encoded_Group2_IMG_0475.jpg,0,encoded_Group2_IMG_0475.jpg,,,,,0.0,77.0,77.0,77.0,,,,,,,,,,,,,,,,,,,338.6859834953211,None,,,0,0.3088435097597539,341.1357700941153,None,341.1357700941153,None,,,339.9685980011709,None,,,,,1,2022_Apr_25_1604,Real-fake-judgement-flashing-group1,2021.1.2,59.867214260378105,
81,Trial # 79,Group1-stimuli/group1-block1/fake-group2-b1/encoded_Group2_IMG_9751.jpg,0,encoded_Group2_IMG_9751.jpg,,,,,0.0,78.0,78.0,78.0,,,,,,,,,,,,,,,,,,,341.4696237943135,None,,,0,0.3958935933187604,343.9366773320362,None,343.9366773320362,None,,,342.770598593168,None,,,,,1,2022_Apr_25_1604,Real-fake-judgement-flashing-group1,2021.1.2,59.867214260378105,
82,Trial # 80,Group1-stimuli/group1-block1/fake-group2-b1/encoded_Group2_IMG_0492.jpg,0,encoded_Group2_IMG_0492.jpg,,,,,0.0,79.0,79.0,79.0,,,,,,,,,,,,,,,,,,,344.3543510190211,None,,,0,0.2299796491861343,346.8385807131417,None,346.8385807131417,None,,,345.65411978634074,None,,,,,1,2022_Apr_25_1604,Real-fake-judgement-flashing-group1,2021.1.2,59.867214260378105,
83,Trial # 81,Group1-stimuli/group1-block1/real-group1-b1/Group1_IMG_0535.jpg,1,Group1_IMG_0535.jpg,,,,,0.0,80.0,80.0,80.0,,,,,,,,,,,,,,,,,,,347.08807446295395,None,,,1,0.1608664668165147,349.5717325890437,None,349.5717325890437,None,,,348.40506517793983,None,,,,,1,2022_Apr_25_1604,Real-fake-judgement-flashing-group1,2021.1.2,59.867214260378105,
84,Trial # 82,Group1-stimuli/group1-block1/real-group1-b1/Group1_IMG_0077.jpg,1,Group1_IMG_0077.jpg,,,,,0.0,81.0,81.0,81.0,,,,,,,,,,,,,,,,,,,349.7551489593461,None,,,1,0.7007599151693285,352.2237415909767,None,352.2237415909767,None,,,351.05547533603385,None,,,,,1,2022_Apr_25_1604,Real-fake-judgement-flashing-group1,2021.1.2,59.867214260378105,
85,Trial # 83,Group1-stimuli/group1-block1/fake-group2-b1/encoded_Group2_IMG_9702.jpg,0,encoded_Group2_IMG_9702.jpg,,,,,0.0,82.0,82.0,82.0,,,,,,,,,,,,,,,,,,,352.95630071498454,None,,,1,0.5087844622321427,355.4397742613219,None,355.4397742613219,None,,,354.2729699322954,None,,,,,1,2022_Apr_25_1604,Real-fake-judgement-flashing-group1,2021.1.2,59.867214260378105,
86,Trial # 84,Group1-stimuli/group1-block1/real-group1-b1/Group1_IMG_0357.jpg,1,Group1_IMG_0357.jpg,,,,,0.0,83.0,83.0,83.0,,,,,,,,,,,,,,,,,,,355.97422235133126,None,,,1,0.3067751717753708,358.4577810992487,None,358.4577810992487,None,,,357.2752226809971,None,,,,,1,2022_Apr_25_1604,Real-fake-judgement-flashing-group1,2021.1.2,59.867214260378105,
87,Trial # 85,Group1-stimuli/group1-block1/real-group1-b1/Group1_IMG_9772.jpg,1,Group1_IMG_9772.jpg,,,,,0.0,84.0,84.0,84.0,,,,,,,,,,,,,,,,,,,358.79136375524104,None,,,1,0.2412411798723042,361.2753270380199,None,361.2753270380199,None,,,360.10808415710926,None,,,,,1,2022_Apr_25_1604,Real-fake-judgement-flashing-group1,2021.1.2,59.867214260378105,
88,Trial # 86,Group1-stimuli/group1-block1/real-group1-b1/Group1_IMG_0482.jpg,1,Group1_IMG_0482.jpg,,,,,0.0,85.0,85.0,85.0,,,,,,,,,,,,,,,,,,,361.5436324710026,None,,,1,0.3865884598344564,364.0259731840342,None,364.0259731840342,None,,,362.8602531333454,None,,,,,1,2022_Apr_25_1604,Real-fake-judgement-flashing-group1,2021.1.2,59.867214260378105,
89,Trial # 87,Group1-stimuli/group1-block1/real-group1-b1/Group1_IMG_0299.jpg,1,Group1_IMG_0299.jpg,,,,,0.0,86.0,86.0,86.0,,,,,,,,,,,,,,,,,,,364.44370908429846,None,,,1,0.2220418592914939,366.91057313000783,None,366.91057313000783,None,,,365.7431161291897,None,,,,,1,2022_Apr_25_1604,Real-fake-judgement-flashing-group1,2021.1.2,59.867214260378105,
90,Trial # 88,Group1-stimuli/group1-block1/fake-group2-b1/encoded_Group2_IMG_0301.jpg,0,encoded_Group2_IMG_0301.jpg,,,,,0.0,87.0,87.0,87.0,,,,,,,,,,,,,,,,,,,367.1617677011527,None,,,0,0.1446380601264536,369.6279245400801,None,369.6279245400801,None,,,368.4618598921225,None,,,,,1,2022_Apr_25_1604,Real-fake-judgement-flashing-group1,2021.1.2,59.867214260378105,
91,Trial # 89,Group1-stimuli/group1-block1/fake-group2-b1/encoded_Group2_IMG_5136.jpg,0,encoded_Group2_IMG_5136.jpg,,,,,0.0,88.0,88.0,88.0,,,,,,,,,,,,,,,,,,,369.7944552642293,None,,,0,0.3341071843169629,372.2624519532546,None,372.2624519532546,None,,,371.0947812302038,None,,,,,1,2022_Apr_25_1604,Real-fake-judgement-flashing-group1,2021.1.2,59.867214260378105,
92,Trial # 90,Group1-stimuli/group1-block1/real-group1-b1/Group1_IMG_0460.jpg,1,Group1_IMG_0460.jpg,,,,,0.0,89.0,89.0,89.0,,,,,,,,,,,,,,,,,,,372.61360600823537,None,,,0,0.4845972810871899,375.095898902975,None,375.095898902975,None,,,373.9289622330107,None,,,,,1,2022_Apr_25_1604,Real-fake-judgement-flashing-group1,2021.1.2,59.867214260378105,
93,Trial # 91,Group1-stimuli/group1-block1/fake-group2-b1/encoded_Group2_IMG_0068.jpg,0,encoded_Group2_IMG_0068.jpg,,,,,0.0,90.0,90.0,90.0,,,,,,,,,,,,,,,,,,,375.61271914606914,None,,,1,0.5868103071115911,378.08175198733807,None,378.08175198733807,None,,,376.9144902792759,None,,,,,1,2022_Apr_25_1604,Real-fake-judgement-flashing-group1,2021.1.2,59.867214260378105,
94,Trial # 92,Group1-stimuli/group1-block1/real-group1-b1/Group1_IMG_0337.jpg,1,Group1_IMG_0337.jpg,,,,,0.0,91.0,91.0,91.0,,,,,,,,,,,,,,,,,,,378.697320682928,None,,,0,0.575763245113194,381.1647989400663,None,381.1647989400663,None,,,379.9974976070225,None,,,,,1,2022_Apr_25_1604,Real-fake-judgement-flashing-group1,2021.1.2,59.867214260378105,
95,Trial # 93,Group1-stimuli/group1-block1/fake-group2-b1/encoded_Group2_IMG_0346.jpg,0,encoded_Group2_IMG_0346.jpg,,,,,0.0,92.0,92.0,92.0,,,,,,,,,,,,,,,,,,,381.7659519901499,None,,,0,0.4761153170838952,384.2324617421255,None,384.2324617421255,None,,,383.0655447212048,None,,,,,1,2022_Apr_25_1604,Real-fake-judgement-flashing-group1,2021.1.2,59.867214260378105,
96,Trial # 94,Group1-stimuli/group1-block1/real-group1-b1/Group1_IMG_4253.jpg,1,Group1_IMG_4253.jpg,,,,,0.0,93.0,93.0,93.0,,,,,,,,,,,,,,,,,,,384.7325351559557,None,,,1,0.3314854106865823,387.20101612992585,None,387.20101612992585,None,,,386.0329361432232,None,,,,,1,2022_Apr_25_1604,Real-fake-judgement-flashing-group1,2021.1.2,59.867214260378105,
97,Trial # 95,Group1-stimuli/group1-block1/fake-group2-b1/encoded_Group2_IMG_9280.jpg,0,encoded_Group2_IMG_9280.jpg,,,,,0.0,94.0,94.0,94.0,,,,,,,,,,,,,,,,,,,387.5503236451186,None,,,0,0.3151220520958304,390.01744997221977,None,390.01744997221977,None,,,388.8503656783141,None,,,,,1,2022_Apr_25_1604,Real-fake-judgement-flashing-group1,2021.1.2,59.867214260378105,
98,Trial # 96,Group1-stimuli/group1-block1/real-group1-b1/Group1_IMG_0417.jpg,1,Group1_IMG_0417.jpg,,,,,0.0,95.0,95.0,95.0,,,,,,,,,,,,,,,,,,,390.3515305602923,None,,,1,0.2490043831057846,392.8194646700285,None,392.8194646700285,None,,,391.66880193213,None,,,,,1,2022_Apr_25_1604,Real-fake-judgement-flashing-group1,2021.1.2,59.867214260378105,
99,Trial # 97,Group1-stimuli/group1-block1/fake-group2-b1/encoded_Group2_IMG_9695.jpg,0,encoded_Group2_IMG_9695.jpg,,,,,0.0,96.0,96.0,96.0,,,,,,,,,,,,,,,,,,,393.0860094600357,None,,,0,0.2840502639301121,395.5524495970458,None,395.5524495970458,None,,,394.3855200060643,None,,,,,1,2022_Apr_25_1604,Real-fake-judgement-flashing-group1,2021.1.2,59.867214260378105,
100,Trial # 98,Group1-stimuli/group1-block1/real-group1-b1/Group1_IMG_1160.jpg,1,Group1_IMG_1160.jpg,,,,,0.0,97.0,97.0,97.0,,,,,,,,,,,,,,,,,,,395.8688183869235,None,,,1,0.2918265652842819,398.3367401710712,None,398.3367401710712,None,,,397.2040612860583,None,,,,,1,2022_Apr_25_1604,Real-fake-judgement-flashing-group1,2021.1.2,59.867214260378105,
101,Trial # 99,Group1-stimuli/group1-block1/real-group1-b1/Group1_IMG_0448.jpg,1,Group1_IMG_0448.jpg,,,,,0.0,98.0,98.0,98.0,,,,,,,,,,,,,,,,,,,398.6535525340587,None,,,1,0.4198530530557036,401.1207273970358,None,401.1207273970358,None,,,399.95391528494656,None,,,,,1,2022_Apr_25_1604,Real-fake-judgement-flashing-group1,2021.1.2,59.867214260378105,
102,Trial # 100,Group1-stimuli/group1-block1/fake-group2-b1/encoded_Group2_IMG_0393.jpg,0,encoded_Group2_IMG_0393.jpg,,,,,0.0,99.0,99.0,99.0,,,,,,,,,,,,,,,,,,,401.5716769960709,None,,,0,0.341537884902209,404.05503490334377,None,404.05503490334377,None,,,402.88907496631145,None,,,,,1,2022_Apr_25_1604,Real-fake-judgement-flashing-group1,2021.1.2,59.867214260378105,
103,Trial # 101,Group1-stimuli/group1-block1/real-group1-b1/Group1_IMG_0090.jpg,1,Group1_IMG_0090.jpg,,,,,0.0,100.0,100.0,100.0,,,,,,,,,,,,,,,,,,,404.4221117789857,None,,,0,0.770706030074507,406.8898570481688,None,406.8898570481688,None,,,405.7387963072397,None,,,,,1,2022_Apr_25_1604,Real-fake-judgement-flashing-group1,2021.1.2,59.867214260378105,
104,Trial # 102,Group1-stimuli/group1-block1/real-group1-b1/Group1_IMG_0310.jpg,1,Group1_IMG_0310.jpg,,,,,0.0,101.0,101.0,101.0,,,,,,,,,,,,,,,,,,,407.69013098813593,None,,,1,2.911071591079235,410.17349415505305,None,410.17349415505305,None,,,409.00650892732665,None,,,,,1,2022_Apr_25_1604,Real-fake-judgement-flashing-group1,2021.1.2,59.867214260378105,
105,Trial # 103,Group1-stimuli/group1-block1/fake-group2-b1/encoded_Group2_IMG_0528.jpg,0,encoded_Group2_IMG_0528.jpg,,,,,0.0,102.0,102.0,102.0,,,,,,,,,,,,,,,,,,,413.10958641115576,None,,,0,0.3644380280748009,415.592100657057,None,415.592100657057,None,,,414.4249705830589,None,,,,,1,2022_Apr_25_1604,Real-fake-judgement-flashing-group1,2021.1.2,59.867214260378105,
106,Trial # 104,Group1-stimuli/group1-block1/fake-group2-b1/encoded_Group2_IMG_1975.jpg,0,encoded_Group2_IMG_1975.jpg,,,,,0.0,103.0,103.0,103.0,,,,,,,,,,,,,,,,,,,415.9757201871834,None,,,0,0.3934793281368911,418.4430781942792,None,418.4430781942792,None,,,417.3268925859593,None,,,,,1,2022_Apr_25_1604,Real-fake-judgement-flashing-group1,2021.1.2,59.867214260378105,
107,Trial # 105,Group1-stimuli/group1-block1/fake-group2-b1/encoded_Group2_IMG_0052.jpg,0,encoded_Group2_IMG_0052.jpg,,,,,0.0,104.0,104.0,104.0,,,,,,,,,,,,,,,,,,,418.859789328184,None,,,0,0.5813648607581854,421.3272344372235,None,421.3272344372235,None,,,420.1604772931896,None,,,,,1,2022_Apr_25_1604,Real-fake-judgement-flashing-group1,2021.1.2,59.867214260378105,
108,Trial # 106,Group1-stimuli/group1-block1/fake-group2-b1/encoded_Group2_IMG_0225.jpg,0,encoded_Group2_IMG_0225.jpg,,,,,0.0,105.0,105.0,105.0,,,,,,,,,,,,,,,,,,,421.9285544231534,None,,,0,0.457736327778548,424.39483125833794,None,424.39483125833794,None,,,423.2280647000298,None,,,,,1,2022_Apr_25_1604,Real-fake-judgement-flashing-group1,2021.1.2,59.867214260378105,
109,Trial # 107,Group1-stimuli/group1-block1/real-group1-b1/Group1_IMG_2231.jpg,1,Group1_IMG_2231.jpg,,,,,0.0,106.0,106.0,106.0,,,,,,,,,,,,,,,,,,,424.878810828086,None,,,1,0.057592452969402,427.3469806010835,None,427.3469806010835,None,,,426.1948906169273,None,,,,,1,2022_Apr_25_1604,Real-fake-judgement-flashing-group1,2021.1.2,59.867214260378105,
110,Trial # 108,Group1-stimuli/group1-block1/real-group1-b1/Group1_IMG_0217.jpg,1,Group1_IMG_0217.jpg,,,,,0.0,107.0,107.0,107.0,,,,,,,,,,,,,,,,,,,427.43037698604167,None,,,0,0.1155441966839134,429.91304338909686,None,429.91304338909686,None,,,428.74727006210014,None,,,,,1,2022_Apr_25_1604,Real-fake-judgement-flashing-group1,2021.1.2,59.867214260378105,
111,Trial # 109,Group1-stimuli/group1-block1/real-group1-b1/Group1_IMG_0264.jpg,1,Group1_IMG_0264.jpg,,,,,0.0,108.0,108.0,108.0,,,,,,,,,,,,,,,,,,,430.04716752516106,None,,,1,0.3138141110539436,432.5147618181072,None,432.5147618181072,None,,,431.3463082979433,None,,,,,1,2022_Apr_25_1604,Real-fake-judgement-flashing-group1,2021.1.2,59.867214260378105,
112,Trial # 110,Group1-stimuli/group1-block1/fake-group2-b1/encoded_Group2_IMG_0254.jpg,0,encoded_Group2_IMG_0254.jpg,,,,,0.0,109.0,109.0,109.0,,,,,,,,,,,,,,,,,,,432.8486638511531,None,,,0,0.2891897987574339,435.3313726191409,None,435.3313726191409,None,,,434.1643048939295,None,,,,,1,2022_Apr_25_1604,Real-fake-judgement-flashing-group1,2021.1.2,59.867214260378105,
113,Trial # 111,Group1-stimuli/group1-block1/fake-group2-b1/encoded_Group2_IMG_5433.jpg,0,encoded_Group2_IMG_5433.jpg,,,,,0.0,110.0,110.0,110.0,,,,,,,,,,,,,,,,,,,435.6484671011567,None,,,0,0.3124220822937786,438.1001451089978,None,438.1001451089978,None,,,436.93311966909096,None,,,,,1,2022_Apr_25_1604,Real-fake-judgement-flashing-group1,2021.1.2,59.867214260378105,
114,Trial # 112,Group1-stimuli/group1-block1/real-group1-b1/Group1_IMG_0252.jpg,1,Group1_IMG_0252.jpg,,,,,0.0,111.0,111.0,111.0,,,,,,,,,,,,,,,,,,,438.4327907040715,None,,,0,0.2720060111023485,440.9165560062975,None,440.9165560062975,None,,,439.7493963353336,None,,,,,1,2022_Apr_25_1604,Real-fake-judgement-flashing-group1,2021.1.2,59.867214260378105,
115,Trial # 113,Group1-stimuli/group1-block1/real-group1-b1/Group1_IMG_9720.jpg,1,Group1_IMG_9720.jpg,,,,,0.0,112.0,112.0,112.0,,,,,,,,,,,,,,,,,,,441.21608429634944,None,,,1,0.2957805469632149,443.7007799269632,None,443.7007799269632,None,,,442.53484955010936,None,,,,,1,2022_Apr_25_1604,Real-fake-judgement-flashing-group1,2021.1.2,59.867214260378105,
116,Trial # 114,Group1-stimuli/group1-block1/fake-group2-b1/encoded_Group2_IMG_0550.jpg,0,encoded_Group2_IMG_0550.jpg,,,,,0.0,113.0,113.0,113.0,,,,,,,,,,,,,,,,,,,444.0177756729536,None,,,0,0.3502915212884545,446.4862066269852,None,446.4862066269852,None,,,445.3178290491924,None,,,,,1,2022_Apr_25_1604,Real-fake-judgement-flashing-group1,2021.1.2,59.867214260378105,
117,Trial # 115,Group1-stimuli/group1-block1/real-group1-b1/Group1_IMG_9915.jpg,1,Group1_IMG_9915.jpg,,,,,0.0,114.0,114.0,114.0,,,,,,,,,,,,,,,,,,,446.869620161131,None,,,1,0.4122824198566377,449.3522823359817,None,449.3522823359817,None,,,448.1855704030022,None,,,,,1,2022_Apr_25_1604,Real-fake-judgement-flashing-group1,2021.1.2,59.867214260378105,
118,Trial # 116,Group1-stimuli/group1-block1/real-group1-b1/Group1_IMG_9850.jpg,1,Group1_IMG_9850.jpg,,,,,0.0,115.0,115.0,115.0,,,,,,,,,,,,,,,,,,,449.7861852562055,None,,,1,0.3259182833135128,452.2546437871642,None,452.2546437871642,None,,,451.1195694273338,None,,,,,1,2022_Apr_25_1604,Real-fake-judgement-flashing-group1,2021.1.2,59.867214260378105,
119,Trial # 117,Group1-stimuli/group1-block1/real-group1-b1/Group1_IMG_3579.jpg,1,Group1_IMG_3579.jpg,,,,,0.0,116.0,116.0,116.0,,,,,,,,,,,,,,,,,,,452.60481025697663,None,,,1,0.2850713329389691,455.08749189507216,None,455.08749189507216,None,,,453.9205085500144,None,,,,,1,2022_Apr_25_1604,Real-fake-judgement-flashing-group1,2021.1.2,59.867214260378105,
120,Trial # 118,Group1-stimuli/group1-block1/fake-group2-b1/encoded_Group2_IMG_0377.jpg,0,encoded_Group2_IMG_0377.jpg,,,,,0.0,117.0,117.0,117.0,,,,,,,,,,,,,,,,,,,455.4048842629418,None,,,0,0.2755234478972852,457.8730452163145,None,457.8730452163145,None,,,456.7226863722317,None,,,,,1,2022_Apr_25_1604,Real-fake-judgement-flashing-group1,2021.1.2,59.867214260378105,
121,Trial # 119,Group1-stimuli/group1-block1/real-group1-b1/Group1_IMG_0469.jpg,1,Group1_IMG_0469.jpg,,,,,0.0,118.0,118.0,118.0,,,,,,,,,,,,,,,,,,,458.17285274202,None,,,1,0.2597928927280009,460.6567685622722,None,460.6567685622722,None,,,459.4895253619179,None,,,,,1,2022_Apr_25_1604,Real-fake-judgement-flashing-group1,2021.1.2,59.867214260378105,
122,Trial # 120,Group1-stimuli/group1-block1/fake-group2-b1/encoded_Group2_IMG_0100.jpg,0,encoded_Group2_IMG_0100.jpg,,,,,0.0,119.0,119.0,119.0,,,,,,,,,,,,,,,,,,,460.9390065739863,None,,,0,0.3417499922215938,463.4067781432532,None,463.4067781432532,None,,,462.24098589411005,None,,,,,1,2022_Apr_25_1604,Real-fake-judgement-flashing-group1,2021.1.2,59.867214260378105,
123,Trial # 121,Group1-stimuli/group1-block1/real-group1-b1/Group1_IMG_5359.jpg,1,Group1_IMG_5359.jpg,,,,,0.0,120.0,120.0,120.0,,,,,,,,,,,,,,,,,,,463.7743399711326,None,,,1,0.2354400111362338,466.24105882132426,None,466.24105882132426,None,,,465.0740001029335,None,,,,,1,2022_Apr_25_1604,Real-fake-judgement-flashing-group1,2021.1.2,59.867214260378105,
124,Trial # 122,Group1-stimuli/group1-block1/fake-group2-b1/encoded_Group2_IMG_0304.jpg,0,encoded_Group2_IMG_0304.jpg,,,,,0.0,121.0,121.0,121.0,,,,,,,,,,,,,,,,,,,466.5090568722226,None,,,0,0.308969063218683,468.9756033979356,None,468.9756033979356,None,,,467.7925523952581,None,,,,,1,2022_Apr_25_1604,Real-fake-judgement-flashing-group1,2021.1.2,59.867214260378105,
125,Trial # 123,Group1-stimuli/group1-block1/real-group1-b1/Group1_IMG_0306.jpg,1,Group1_IMG_0306.jpg,,,,,0.0,122.0,122.0,122.0,,,,,,,,,,,,,,,,,,,469.3083746009506,None,,,0,0.6511629037559032,471.77733216714114,None,471.77733216714114,None,,,470.625274206046,None,,,,,1,2022_Apr_25_1604,Real-fake-judgement-flashing-group1,2021.1.2,59.867214260378105,
126,Trial # 124,Group1-stimuli/group1-block1/real-group1-b1/Group1_IMG_0224.jpg,1,Group1_IMG_0224.jpg,,,,,0.0,123.0,123.0,123.0,,,,,,,,,,,,,,,,,,,472.4611767251045,None,,,0,0.2769473018124699,474.9436208591797,None,474.9436208591797,None,,,473.7768775881268,None,,,,,1,2022_Apr_25_1604,Real-fake-judgement-flashing-group1,2021.1.2,59.867214260378105,
127,Trial # 125,Group1-stimuli/group1-block1/real-group1-b1/Group1_IMG_9889.jpg,1,Group1_IMG_9889.jpg,,,,,0.0,124.0,124.0,124.0,,,,,,,,,,,,,,,,,,,475.2439600173384,None,,,1,0.3479659771546721,477.7125450829044,None,477.7125450829044,None,,,476.54537407308817,None,,,,,1,2022_Apr_25_1604,Real-fake-judgement-flashing-group1,2021.1.2,59.867214260378105,
128,Trial # 126,Group1-stimuli/group1-block1/real-group1-b1/Group1_IMG_0293.jpg,1,Group1_IMG_0293.jpg,,,,,0.0,125.0,125.0,125.0,,,,,,,,,,,,,,,,,,,478.0792836532928,None,,,0,0.2739648032002151,480.56246695527807,None,480.56246695527807,None,,,479.3961797351949,None,,,,,1,2022_Apr_25_1604,Real-fake-judgement-flashing-group1,2021.1.2,59.867214260378105,
129,Trial # 127,Group1-stimuli/group1-block1/fake-group2-b1/encoded_Group2_IMG_0321.jpg,0,encoded_Group2_IMG_0321.jpg,,,,,0.0,126.0,126.0,126.0,,,,,,,,,,,,,,,,,,,480.8625641693361,None,,,0,0.258189516607672,483.3463135953061,None,483.3463135953061,None,,,482.18044323707,None,,,,,1,2022_Apr_25_1604,Real-fake-judgement-flashing-group1,2021.1.2,59.867214260378105,
130,Trial # 128,Group1-stimuli/group1-block1/fake-group2-b1/encoded_Group2_IMG_0400.jpg,0,encoded_Group2_IMG_0400.jpg,,,,,0.0,127.0,127.0,127.0,,,,,,,,,,,,,,,,,,,483.62933212611824,None,,,0,0.2741903499700129,486.13037923397496,None,486.13037923397496,None,,,485.01332202507183,None,,,,,1,2022_Apr_25_1604,Real-fake-judgement-flashing-group1,2021.1.2,59.867214260378105,
131,Trial # 129,Group1-stimuli/group1-block1/fake-group2-b1/encoded_Group2_IMG_0443.jpg,0,encoded_Group2_IMG_0443.jpg,,,,,0.0,128.0,128.0,128.0,,,,,,,,,,,,,,,,,,,486.4304356263019,None,,,0,0.2499934048391878,488.9145754622296,None,488.9145754622296,None,,,487.7489553843625,None,,,,,1,2022_Apr_25_1604,Real-fake-judgement-flashing-group1,2021.1.2,59.867214260378105,
132,Trial # 130,Group1-stimuli/group1-block1/fake-group2-b1/encoded_Group2_IMG_0542.jpg,0,encoded_Group2_IMG_0542.jpg,,,,,0.0,129.0,129.0,129.0,,,,,,,,,,,,,,,,,,,489.1814842820168,None,,,0,0.2991924257948994,491.6493565333076,None,491.6493565333076,None,,,490.4817793061957,None,,,,,1,2022_Apr_25_1604,Real-fake-judgement-flashing-group1,2021.1.2,59.867214260378105,
133,Trial # 131,Group1-stimuli/group1-block1/real-group1-b1/Group1_IMG_0885.jpg,1,Group1_IMG_0885.jpg,,,,,0.0,130.0,130.0,130.0,,,,,,,,,,,,,,,,,,,491.9669430991635,None,,,1,0.2588512813672423,494.4497108613141,None,494.4497108613141,None,,,493.28272871207446,None,,,,,1,2022_Apr_25_1604,Real-fake-judgement-flashing-group1,2021.1.2,59.867214260378105,
134,Trial # 132,Group1-stimuli/group1-block1/real-group1-b1/Group1_IMG_0375.jpg,1,Group1_IMG_0375.jpg,,,,,0.0,131.0,131.0,131.0,,,,,,,,,,,,,,,,,,,494.7328956802376,None,,,1,0.0979475211352109,497.2185607049614,None,497.2185607049614,None,,,496.0503155742772,None,,,,,1,2022_Apr_25_1604,Real-fake-judgement-flashing-group1,2021.1.2,59.867214260378105,
135,Trial # 133,Group1-stimuli/group1-block1/fake-group2-b1/encoded_Group2_IMG_7351.jpg,0,encoded_Group2_IMG_7351.jpg,,,,,0.0,132.0,132.0,132.0,,,,,,,,,,,,,,,,,,,497.3344143102877,None,,,0,1.0223964801989496,499.7901704153046,None,499.7901704153046,None,,,498.6226166910492,None,,,,,1,2022_Apr_25_1604,Real-fake-judgement-flashing-group1,2021.1.2,59.867214260378105,
136,Trial # 134,Group1-stimuli/group1-block1/fake-group2-b1/encoded_Group2_IMG_0416.jpg,0,encoded_Group2_IMG_0416.jpg,,,,,0.0,133.0,133.0,133.0,,,,,,,,,,,,,,,,,,,500.8399924752303,None,,,0,0.2768476018682122,503.3037129831501,None,503.3037129831501,None,,,502.1365249883384,None,,,,,1,2022_Apr_25_1604,Real-fake-judgement-flashing-group1,2021.1.2,59.867214260378105,
137,Trial # 135,Group1-stimuli/group1-block1/fake-group2-b1/encoded_Group2_IMG_0139.jpg,0,encoded_Group2_IMG_0139.jpg,,,,,0.0,134.0,134.0,134.0,,,,,,,,,,,,,,,,,,,503.6035868432373,None,,,0,0.2622836600057781,506.0862778360024,None,506.0862778360024,None,,,504.9196362849325,None,,,,,1,2022_Apr_25_1604,Real-fake-judgement-flashing-group1,2021.1.2,59.867214260378105,
138,Trial # 136,Group1-stimuli/group1-block1/real-group1-b1/Group1_IMG_9677.jpg,1,Group1_IMG_9677.jpg,,,,,0.0,135.0,135.0,135.0,,,,,,,,,,,,,,,,,,,506.3697986733168,None,,,1,0.366388367023319,508.85416867909953,None,508.85416867909953,None,,,507.688301992137,None,,,,,1,2022_Apr_25_1604,Real-fake-judgement-flashing-group1,2021.1.2,59.867214260378105,
139,Trial # 137,Group1-stimuli/group1-block1/fake-group2-b1/encoded_Group2_IMG_5982.jpg,0,encoded_Group2_IMG_5982.jpg,,,,,0.0,136.0,136.0,136.0,,,,,,,,,,,,,,,,,,,509.2376750241965,None,,,0,0.2912479336373508,511.70530971931294,None,511.70530971931294,None,,,510.554535292089,None,,,,,1,2022_Apr_25_1604,Real-fake-judgement-flashing-group1,2021.1.2,59.867214260378105,
140,Trial # 138,Group1-stimuli/group1-block1/fake-group2-b1/encoded_Group2_IMG_1144.jpg,0,encoded_Group2_IMG_1144.jpg,,,,,0.0,137.0,137.0,137.0,,,,,,,,,,,,,,,,,,,512.022420855239,None,,,0,0.1866161148063838,514.5059257321991,None,514.5059257321991,None,,,513.4556287261657,None,,,,,1,2022_Apr_25_1604,Real-fake-judgement-flashing-group1,2021.1.2,59.867214260378105,
141,Trial # 139,Group1-stimuli/group1-block1/fake-group2-b1/encoded_Group2_IMG_0315.jpg,0,encoded_Group2_IMG_0315.jpg,,,,,0.0,138.0,138.0,138.0,,,,,,,,,,,,,,,,,,,514.72312253993,None,,,1,0.084497288800776,517.2079994902015,None,517.2079994902015,None,,,516.0229671183042,None,,,,,1,2022_Apr_25_1604,Real-fake-judgement-flashing-group1,2021.1.2,59.867214260378105,
142,Trial # 140,Group1-stimuli/group1-block1/real-group1-b1/Group1_IMG_130.jpg,1,Group1_IMG_130.jpg,,,,,0.0,139.0,139.0,139.0,,,,,,,,,,,,,,,,,,,517.3239343632013,None,,,1,0.2848361739888787,519.8076782459393,None,519.8076782459393,None,,,518.7071900302544,None,,,,,1,2022_Apr_25_1604,Real-fake-judgement-flashing-group1,2021.1.2,59.867214260378105,
143,Trial # 141,Group1-stimuli/group1-block1/real-group1-b1/Group1_IMG_0024.jpg,1,Group1_IMG_0024.jpg,,,,,0.0,140.0,140.0,140.0,,,,,,,,,,,,,,,,,,,520.1246052891947,None,,,0,0.7802448109723628,522.5922818430699,None,522.5922818430699,None,,,521.4414076581597,None,,,,,1,2022_Apr_25_1604,Real-fake-judgement-flashing-group1,2021.1.2,59.867214260378105,
144,Trial # 142,Group1-stimuli/group1-block1/fake-group2-b1/encoded_Group2_IMG_5012.jpg,0,encoded_Group2_IMG_5012.jpg,,,,,0.0,141.0,141.0,141.0,,,,,,,,,,,,,,,,,,,523.3920848350972,None,,,1,0.8330540307797492,525.8594191703014,None,525.8594191703014,None,,,524.6923286849633,None,,,,,1,2022_Apr_25_1604,Real-fake-judgement-flashing-group1,2021.1.2,59.867214260378105,
145,Trial # 143,Group1-stimuli/group1-block1/fake-group2-b1/encoded_Group2_IMG_0209.jpg,0,encoded_Group2_IMG_0209.jpg,,,,,0.0,142.0,142.0,142.0,,,,,,,,,,,,,,,,,,,526.7110908189788,None,,,0,0.3313589328899979,529.1772323660553,None,529.1772323660553,None,,,528.0112775382586,None,,,,,1,2022_Apr_25_1604,Real-fake-judgement-flashing-group1,2021.1.2,59.867214260378105,
146,Trial # 144,Group1-stimuli/group1-block1/real-group1-b1/Group1_IMG_0373.jpg,1,Group1_IMG_0373.jpg,,,,,0.0,143.0,143.0,143.0,,,,,,,,,,,,,,,,,,,529.5278109139763,None,,,1,0.2653936040587723,531.995089916978,None,531.995089916978,None,,,530.844266646076,None,,,,,1,2022_Apr_25_1604,Real-fake-judgement-flashing-group1,2021.1.2,59.867214260378105,
147,Trial # 145,Group1-stimuli/group1-block1/real-group1-b1/Group1_IMG_5899.jpg,1,Group1_IMG_5899.jpg,,,,,0.0,144.0,144.0,144.0,,,,,,,,,,,,,,,,,,,532.2793756411411,None,,,1,0.0750717227347195,534.7455002781935,None,534.7455002781935,None,,,533.5793641209602,None,,,,,1,2022_Apr_25_1604,Real-fake-judgement-flashing-group1,2021.1.2,59.867214260378105,
148,Trial # 146,Group1-stimuli/group1-block1/real-group1-b1/Group1_IMG_0162.jpg,1,Group1_IMG_0162.jpg,,,,,0.0,145.0,145.0,145.0,,,,,,,,,,,,,,,,,,,534.845408312045,None,,,1,0.2742667468264699,537.3142683529295,None,537.3142683529295,None,,,536.1625483613461,None,,,,,1,2022_Apr_25_1604,Real-fake-judgement-flashing-group1,2021.1.2,59.867214260378105,
149,Trial # 147,Group1-stimuli/group1-block1/real-group1-b1/Group1_IMG_0543.jpg,1,Group1_IMG_0543.jpg,,,,,0.0,146.0,146.0,146.0,,,,,,,,,,,,,,,,,,,537.6144328000955,None,,,0,0.3551832698285579,540.0973262870684,None,540.0973262870684,None,,,538.9301053411327,None,,,,,1,2022_Apr_25_1604,Real-fake-judgement-flashing-group1,2021.1.2,59.867214260378105,
150,Trial # 148,Group1-stimuli/group1-block1/fake-group2-b1/encoded_Group2_IMG_0355.jpg,0,encoded_Group2_IMG_0355.jpg,,,,,0.0,147.0,147.0,147.0,,,,,,,,,,,,,,,,,,,540.4805324100889,None,,,1,2.9837881242856383,542.9327086689882,None,542.9327086689882,None,,,541.765516964253,None,,,,,1,2022_Apr_25_1604,Real-fake-judgement-flashing-group1,2021.1.2,59.867214260378105,
151,Trial # 149,Group1-stimuli/group1-block1/real-group1-b1/Group1_IMG_9765.jpg,1,Group1_IMG_9765.jpg,,,,,0.0,148.0,148.0,148.0,,,,,,,,,,,,,,,,,,,545.9493713122793,None,,,1,0.3072114372625947,548.417339919135,None,548.417339919135,None,,,547.2662075520493,None,,,,,1,2022_Apr_25_1604,Real-fake-judgement-flashing-group1,2021.1.2,59.867214260378105,
152,Trial # 150,Group1-stimuli/group1-block1/fake-group2-b1/encoded_Group2_IMG_1378.jpg,0,encoded_Group2_IMG_1378.jpg,,,,,0.0,149.0,149.0,149.0,,,,,,,,,,,,,,,,,,,548.7508875750937,None,,,1,0.5312812919728458,551.2172775203362,None,551.2172775203362,None,,,550.0499976780266,None,,,,,1,2022_Apr_25_1604,Real-fake-judgement-flashing-group1,2021.1.2,59.867214260378105,
153,Trial # 1,Group1-stimuli/group1-block2/fake-group2-b2/encoded_Group2_IMG_0155.jpg,0,encoded_Group2_IMG_0155.jpg,,,,,,,,,0.0,0.0,0.0,0.0,,,,,,,,,,,,,,,568.3394391923212,None,,,0,0.8231391469016671,570.77342381794,None,570.77342381794,None,561.7042783410288,None,569.6228624670766,None,551.7685305052437,None,,,1,2022_Apr_25_1604,Real-fake-judgement-flashing-group1,2021.1.2,59.867214260378105,
154,Trial # 2,Group1-stimuli/group1-block2/real-group1-b2/Group1_IMG_0519.jpg,1,Group1_IMG_0519.jpg,,,,,,,,,0.0,1.0,1.0,1.0,,,,,,,,,,,,,,,571.6237775213085,None,,,0,0.5527916909195483,574.1078212400898,None,574.1078212400898,None,,,572.9417161853053,None,,,,,1,2022_Apr_25_1604,Real-fake-judgement-flashing-group1,2021.1.2,59.867214260378105,
155,Trial # 3,Group1-stimuli/group1-block2/fake-group2-b2/encoded_Group2_IMG_0135.jpg,0,encoded_Group2_IMG_0135.jpg,,,,,,,,,0.0,2.0,2.0,2.0,,,,,,,,,,,,,,,574.7251272862777,None,,,1,3.125459976028651,577.1590999960899,None,577.1590999960899,None,,,576.0077320230193,None,,,,,1,2022_Apr_25_1604,Real-fake-judgement-flashing-group1,2021.1.2,59.867214260378105,
156,Trial # 4,Group1-stimuli/group1-block2/real-group1-b2/Group1_IMG_5310.jpg,1,Group1_IMG_5310.jpg,,,,,,,,,0.0,3.0,3.0,3.0,,,,,,,,,,,,,,,580.3101940541528,None,,,1,0.4735339214093983,582.7950280779041,None,582.7950280779041,None,,,581.6278653559275,None,,,,,1,2022_Apr_25_1604,Real-fake-judgement-flashing-group1,2021.1.2,59.867214260378105,
157,Trial # 5,Group1-stimuli/group1-block2/real-group1-b2/Group1_IMG_0522.jpg,1,Group1_IMG_0522.jpg,,,,,,,,,0.0,4.0,4.0,4.0,,,,,,,,,,,,,,,583.2951934929006,None,,,0,0.3304612976498902,585.7780925999396,None,585.7780925999396,None,,,584.627940074075,None,,,,,1,2022_Apr_25_1604,Real-fake-judgement-flashing-group1,2021.1.2,59.867214260378105,
158,Trial # 6,Group1-stimuli/group1-block2/fake-group2-b2/encoded_Group2_IMG_0484.jpg,0,encoded_Group2_IMG_0484.jpg,,,,,,,,,0.0,5.0,5.0,5.0,,,,,,,,,,,,,,,586.12805618532,None,,,0,0.2650874629616737,588.5954878679477,None,588.5954878679477,None,,,587.4296226552688,None,,,,,1,2022_Apr_25_1604,Real-fake-judgement-flashing-group1,2021.1.2,59.867214260378105,
159,Trial # 7,Group1-stimuli/group1-block2/fake-group2-b2/encoded_Group2_IMG_5948.jpg,0,encoded_Group2_IMG_5948.jpg,,,,,,,,,0.0,6.0,6.0,6.0,,,,,,,,,,,,,,,588.8792220219038,None,,,1,0.3223191979341209,591.3462494770065,None,591.3462494770065,None,,,590.1793463900685,None,,,,,1,2022_Apr_25_1604,Real-fake-judgement-flashing-group1,2021.1.2,59.867214260378105,
160,Trial # 8,Group1-stimuli/group1-block2/fake-group2-b2/encoded_Group2_IMG_3591.jpg,0,encoded_Group2_IMG_3591.jpg,,,,,,,,,0.0,7.0,7.0,7.0,,,,,,,,,,,,,,,591.6981548722833,None,,,0,0.2485777428373694,594.163986527361,None,594.163986527361,None,,,592.9972493690439,None,,,,,1,2022_Apr_25_1604,Real-fake-judgement-flashing-group1,2021.1.2,59.867214260378105,
161,Trial # 9,Group1-stimuli/group1-block2/real-group1-b2/Group1_IMG_9835.jpg,1,Group1_IMG_9835.jpg,,,,,,,,,0.0,8.0,8.0,8.0,,,,,,,,,,,,,,,594.4318097662181,None,,,0,0.6260786508210003,596.898482020013,None,596.898482020013,None,,,595.7471940829419,None,,,,,1,2022_Apr_25_1604,Real-fake-judgement-flashing-group1,2021.1.2,59.867214260378105,
162,Trial # 10,Group1-stimuli/group1-block2/real-group1-b2/Group1_IMG_0556.jpg,1,Group1_IMG_0556.jpg,,,,,,,,,0.0,9.0,9.0,9.0,,,,,,,,,,,,,,,597.5494842892513,None,,,0,0.3476056200452149,600.0328499311581,None,600.0328499311581,None,,,598.8653730950318,None,,,,,1,2022_Apr_25_1604,Real-fake-judgement-flashing-group1,2021.1.2,59.867214260378105,
163,Trial # 11,Group1-stimuli/group1-block2/fake-group2-b2/encoded_Group2_IMG_9736.jpg,0,encoded_Group2_IMG_9736.jpg,,,,,,,,,0.0,10.0,10.0,10.0,,,,,,,,,,,,,,,600.3993364302441,None,,,0,0.473678317386657,602.866899725981,None,602.866899725981,None,,,601.7167998109944,None,,,,,1,2022_Apr_25_1604,Real-fake-judgement-flashing-group1,2021.1.2,59.867214260378105,
164,Trial # 12,Group1-stimuli/group1-block2/real-group1-b2/Group1_IMG_9867.jpg,1,Group1_IMG_9867.jpg,,,,,,,,,0.0,11.0,11.0,11.0,,,,,,,,,,,,,,,603.3679548809305,None,,,1,0.3055954510346055,605.8509973869659,None,605.8509973869659,None,,,604.7346461252309,None,,,,,1,2022_Apr_25_1604,Real-fake-judgement-flashing-group1,2021.1.2,59.867214260378105,
165,Trial # 13,Group1-stimuli/group1-block2/fake-group2-b2/encoded_Group2_IMG_9886.jpg,0,encoded_Group2_IMG_9886.jpg,,,,,,,,,0.0,12.0,12.0,12.0,,,,,,,,,,,,,,,606.1841267910786,None,,,1,0.8875555149279535,608.6530132461339,None,608.6530132461339,None,,,607.5024544210173,None,,,,,1,2022_Apr_25_1604,Real-fake-judgement-flashing-group1,2021.1.2,59.867214260378105,
166,Trial # 14,Group1-stimuli/group1-block2/fake-group2-b2/encoded_Group2_IMG_2245.jpg,0,encoded_Group2_IMG_2245.jpg,,,,,,,,,0.0,13.0,13.0,13.0,,,,,,,,,,,,,,,609.5688360789791,None,,,0,0.7039930117316544,612.0365690249018,None,612.0365690249018,None,,,610.8689659321681,None,,,,,1,2022_Apr_25_1604,Real-fake-judgement-flashing-group1,2021.1.2,59.867214260378105,
167,Trial # 15,Group1-stimuli/group1-block2/fake-group2-b2/encoded_Group2_IMG_0507.jpg,0,encoded_Group2_IMG_0507.jpg,,,,,,,,,0.0,14.0,14.0,14.0,,,,,,,,,,,,,,,612.7710731010884,None,,,0,0.294734759721905,615.2538456181064,None,615.2538456181064,None,,,614.0700058732182,None,,,,,1,2022_Apr_25_1604,Real-fake-judgement-flashing-group1,2021.1.2,59.867214260378105,
168,Trial # 16,Group1-stimuli/group1-block2/fake-group2-b2/encoded_Group2_IMG_0338.jpg,0,encoded_Group2_IMG_0338.jpg,,,,,,,,,0.0,15.0,15.0,15.0,,,,,,,,,,,,,,,615.5711714620702,None,,,1,0.3012883248738944,618.0392358889803,None,618.0392358889803,None,,,616.9215309219435,None,,,,,1,2022_Apr_25_1604,Real-fake-judgement-flashing-group1,2021.1.2,59.867214260378105,
169,Trial # 17,Group1-stimuli/group1-block2/real-group1-b2/Group1_IMG_0376.jpg,1,Group1_IMG_0376.jpg,,,,,,,,,0.0,16.0,16.0,16.0,,,,,,,,,,,,,,,618.3723419662565,None,,,1,0.292997564189136,620.8555634859949,None,620.8555634859949,None,,,619.6887983661145,None,,,,,1,2022_Apr_25_1604,Real-fake-judgement-flashing-group1,2021.1.2,59.867214260378105,
170,Trial # 18,Group1-stimuli/group1-block2/real-group1-b2/Group1_IMG_9821.jpg,1,Group1_IMG_9821.jpg,,,,,,,,,0.0,17.0,17.0,17.0,,,,,,,,,,,,,,,621.172817605082,None,,,1,0.251487772911787,623.6730495519005,None,623.6730495519005,None,,,622.4905015262775,None,,,,,1,2022_Apr_25_1604,Real-fake-judgement-flashing-group1,2021.1.2,59.867214260378105,
171,Trial # 19,Group1-stimuli/group1-block2/fake-group2-b2/encoded_Group2_IMG_0388.jpg,0,encoded_Group2_IMG_0388.jpg,,,,,,,,,0.0,18.0,18.0,18.0,,,,,,,,,,,,,,,623.9564857413061,None,,,1,0.332022167276591,626.4405482141301,None,626.4405482141301,None,,,625.2741022929549,None,,,,,1,2022_Apr_25_1604,Real-fake-judgement-flashing-group1,2021.1.2,59.867214260378105,
172,Trial # 20,Group1-stimuli/group1-block2/fake-group2-b2/encoded_Group2_IMG_0222.jpg,0,encoded_Group2_IMG_0222.jpg,,,,,,,,,0.0,19.0,19.0,19.0,,,,,,,,,,,,,,,626.7912235860713,None,,,0,0.2246863637119531,629.2758736209944,None,629.2758736209944,None,,,628.1089121792465,None,,,,,1,2022_Apr_25_1604,Real-fake-judgement-flashing-group1,2021.1.2,59.867214260378105,
173,Trial # 21,Group1-stimuli/group1-block2/fake-group2-b2/encoded_Group2_IMG_2215.jpg,0,encoded_Group2_IMG_2215.jpg,,,,,,,,,0.0,20.0,20.0,20.0,,,,,,,,,,,,,,,629.524609636981,None,,,1,0.2351419269107282,631.9933602451347,None,631.9933602451347,None,,,630.8250033431686,None,,,,,1,2022_Apr_25_1604,Real-fake-judgement-flashing-group1,2021.1.2,59.867214260378105,
174,Trial # 22,Group1-stimuli/group1-block2/real-group1-b2/Group1_IMG_9760.jpg,1,Group1_IMG_9760.jpg,,,,,,,,,0.0,21.0,21.0,21.0,,,,,,,,,,,,,,,632.2594052213244,None,,,1,0.1973157580941915,634.7432566061616,None,634.7432566061616,None,,,633.6594588872977,None,,,,,1,2022_Apr_25_1604,Real-fake-judgement-flashing-group1,2021.1.2,59.867214260378105,
175,Trial # 23,Group1-stimuli/group1-block2/real-group1-b2/Group1_IMG_9897.jpg,1,Group1_IMG_9897.jpg,,,,,,,,,0.0,22.0,22.0,22.0,,,,,,,,,,,,,,,634.9599688863382,None,,,1,0.2640410750173032,637.4285313142464,None,637.4285313142464,None,,,636.2767861299217,None,,,,,1,2022_Apr_25_1604,Real-fake-judgement-flashing-group1,2021.1.2,59.867214260378105,
176,Trial # 24,Group1-stimuli/group1-block2/real-group1-b2/Group1_IMG_4250.jpg,1,Group1_IMG_4250.jpg,,,,,,,,,0.0,23.0,23.0,23.0,,,,,,,,,,,,,,,637.7121177599765,None,,,1,0.337715033441782,640.194846665021,None,640.194846665021,None,,,639.0444315341301,None,,,,,1,2022_Apr_25_1604,Real-fake-judgement-flashing-group1,2021.1.2,59.867214260378105,
177,Trial # 25,Group1-stimuli/group1-block2/real-group1-b2/Group1_IMG_2244.jpg,1,Group1_IMG_2244.jpg,,,,,,,,,0.0,24.0,24.0,24.0,,,,,,,,,,,,,,,640.5615103011951,None,,,1,0.4866063459776342,643.0299607510678,None,643.0299607510678,None,,,641.8797565451823,None,,,,,1,2022_Apr_25_1604,Real-fake-judgement-flashing-group1,2021.1.2,59.867214260378105,
178,Trial # 26,Group1-stimuli/group1-block2/fake-group2-b2/encoded_Group2_IMG_0501.jpg,0,encoded_Group2_IMG_0501.jpg,,,,,,,,,0.0,25.0,25.0,25.0,,,,,,,,,,,,,,,643.5462435642257,None,,,0,0.2872873628512025,646.013275353238,None,646.013275353238,None,,,644.8462623720989,None,,,,,1,2022_Apr_25_1604,Real-fake-judgement-flashing-group1,2021.1.2,59.867214260378105,
179,Trial # 27,Group1-stimuli/group1-block2/real-group1-b2/Group1_IMG_9684.jpg,1,Group1_IMG_9684.jpg,,,,,,,,,0.0,26.0,26.0,26.0,,,,,,,,,,,,,,,646.3303344151936,None,,,1,0.1987226125784218,648.7978382622823,None,648.7978382622823,None,,,647.648246939294,None,,,,,1,2022_Apr_25_1604,Real-fake-judgement-flashing-group1,2021.1.2,59.867214260378105,
180,Trial # 28,Group1-stimuli/group1-block2/real-group1-b2/Group1_IMG_1039.jpg,1,Group1_IMG_1039.jpg,,,,,,,,,0.0,27.0,27.0,27.0,,,,,,,,,,,,,,,649.0155154033564,None,,,1,0.3383272141218185,651.4982346822508,None,651.4982346822508,None,,,650.3307604473084,None,,,,,1,2022_Apr_25_1604,Real-fake-judgement-flashing-group1,2021.1.2,59.867214260378105,
181,Trial # 29,Group1-stimuli/group1-block2/fake-group2-b2/encoded_Group2_IMG_0251.jpg,0,encoded_Group2_IMG_0251.jpg,,,,,,,,,0.0,28.0,28.0,28.0,,,,,,,,,,,,,,,651.8665237063542,None,,,1,0.1192683582194149,654.3492923090234,None,654.3492923090234,None,,,653.1833116500638,None,,,,,1,2022_Apr_25_1604,Real-fake-judgement-flashing-group1,2021.1.2,59.867214260378105,
182,Trial # 30,Group1-stimuli/group1-block2/real-group1-b2/Group1_IMG_9692.jpg,1,Group1_IMG_9692.jpg,,,,,,,,,0.0,29.0,29.0,29.0,,,,,,,,,,,,,,,654.4989238241687,None,,,1,0.2999526862986386,656.9846096360125,None,656.9846096360125,None,,,655.816744368989,None,,,,,1,2022_Apr_25_1604,Real-fake-judgement-flashing-group1,2021.1.2,59.867214260378105,
183,Trial # 31,Group1-stimuli/group1-block2/real-group1-b2/Group1_IMG_0512.jpg,1,Group1_IMG_0512.jpg,,,,,,,,,0.0,30.0,30.0,30.0,,,,,,,,,,,,,,,657.3016503211111,None,,,1,0.3082966287620365,659.78426648397,None,659.78426648397,None,,,658.6171187441796,None,,,,,1,2022_Apr_25_1604,Real-fake-judgement-flashing-group1,2021.1.2,59.867214260378105,
184,Trial # 32,Group1-stimuli/group1-block2/fake-group2-b2/encoded_Group2_IMG_9673.jpg,0,encoded_Group2_IMG_9673.jpg,,,,,,,,,0.0,31.0,31.0,31.0,,,,,,,,,,,,,,,660.1180142420344,None,,,0,0.2262049368582666,662.5863657621667,None,662.5863657621667,None,,,661.4339816430584,None,,,,,1,2022_Apr_25_1604,Real-fake-judgement-flashing-group1,2021.1.2,59.867214260378105,
185,Trial # 33,Group1-stimuli/group1-block2/fake-group2-b2/encoded_Group2_IMG_5135.jpg,0,encoded_Group2_IMG_5135.jpg,,,,,,,,,0.0,32.0,32.0,32.0,,,,,,,,,,,,,,,662.8363114441745,None,,,0,0.42134924326092,665.3192187412642,None,665.3192187412642,None,,,664.1522307652049,None,,,,,1,2022_Apr_25_1604,Real-fake-judgement-flashing-group1,2021.1.2,59.867214260378105,
186,Trial # 34,Group1-stimuli/group1-block2/real-group1-b2/Group1_IMG_0396.jpg,1,Group1_IMG_0396.jpg,,,,,,,,,0.0,33.0,33.0,33.0,,,,,,,,,,,,,,,665.7697070031427,None,,,1,0.4064502897672355,668.2381113092415,None,668.2381113092415,None,,,667.0872597582638,None,,,,,1,2022_Apr_25_1604,Real-fake-judgement-flashing-group1,2021.1.2,59.867214260378105,
187,Trial # 35,Group1-stimuli/group1-block2/real-group1-b2/Group1_IMG_4919.jpg,1,Group1_IMG_4919.jpg,,,,,,,,,0.0,34.0,34.0,34.0,,,,,,,,,,,,,,,668.6704481551424,None,,,1,0.3628805498592555,671.1375918681733,None,671.1375918681733,None,,,669.9703625631519,None,,,,,1,2022_Apr_25_1604,Real-fake-judgement-flashing-group1,2021.1.2,59.867214260378105,
188,Trial # 36,Group1-stimuli/group1-block2/real-group1-b2/Group1_IMG_0449.jpg,1,Group1_IMG_0449.jpg,,,,,,,,,0.0,35.0,35.0,35.0,,,,,,,,,,,,,,,671.5207670982927,None,,,1,0.5990210855379701,673.989572681021,None,673.989572681021,None,,,672.839559384156,None,,,,,1,2022_Apr_25_1604,Real-fake-judgement-flashing-group1,2021.1.2,59.867214260378105,
189,Trial # 37,Group1-stimuli/group1-block2/fake-group2-b2/encoded_Group2_IMG_0539.jpg,0,encoded_Group2_IMG_0539.jpg,,,,,,,,,0.0,36.0,36.0,36.0,,,,,,,,,,,,,,,674.6051811939105,None,,,0,0.2905802638269961,677.0739863230847,None,677.0739863230847,None,,,675.9225532459095,None,,,,,1,2022_Apr_25_1604,Real-fake-judgement-flashing-group1,2021.1.2,59.867214260378105,
190,Trial # 38,Group1-stimuli/group1-block2/real-group1-b2/Group1_IMG_0453.jpg,1,Group1_IMG_0453.jpg,,,,,,,,,0.0,37.0,37.0,37.0,,,,,,,,,,,,,,,677.390650883317,None,,,1,0.1468806727789342,679.8736861613579,None,679.8736861613579,None,,,678.7075474592857,None,,,,,1,2022_Apr_25_1604,Real-fake-judgement-flashing-group1,2021.1.2,59.867214260378105,
191,Trial # 39,Group1-stimuli/group1-block2/fake-group2-b2/encoded_Group2_IMG_0318.jpg,0,encoded_Group2_IMG_0318.jpg,,,,,,,,,0.0,38.0,38.0,38.0,,,,,,,,,,,,,,,680.0402695219964,None,,,1,1.6153409387916329,682.5092323240824,None,682.5092323240824,None,,,681.3569972333498,None,,,,,1,2022_Apr_25_1604,Real-fake-judgement-flashing-group1,2021.1.2,59.867214260378105,
192,Trial # 40,Group1-stimuli/group1-block2/real-group1-b2/Group1_IMG_1678.jpg,1,Group1_IMG_1678.jpg,,,,,,,,,0.0,39.0,39.0,39.0,,,,,,,,,,,,,,,684.1419884832576,None,,,0,0.5781606789678335,686.6263998341747,None,686.6263998341747,None,,,685.4588186121546,None,,,,,1,2022_Apr_25_1604,Real-fake-judgement-flashing-group1,2021.1.2,59.867214260378105,
193,Trial # 41,Group1-stimuli/group1-block2/fake-group2-b2/encoded_Group2_IMG_0325.jpg,0,encoded_Group2_IMG_0325.jpg,,,,,,,,,0.0,40.0,40.0,40.0,,,,,,,,,,,,,,,687.2273977510631,None,,,0,0.3677690848708153,689.6767407259904,None,689.6767407259904,None,,,688.5108635332435,None,,,,,1,2022_Apr_25_1604,Real-fake-judgement-flashing-group1,2021.1.2,59.867214260378105,
194,Trial # 42,Group1-stimuli/group1-block2/fake-group2-b2/encoded_Group2_IMG_9935.jpg,0,encoded_Group2_IMG_9935.jpg,,,,,,,,,0.0,41.0,41.0,41.0,,,,,,,,,,,,,,,690.0776017592289,None,,,1,0.2663443856872618,692.5622271792963,None,692.5622271792963,None,,,691.4107203111053,None,,,,,1,2022_Apr_25_1604,Real-fake-judgement-flashing-group1,2021.1.2,59.867214260378105,
195,Trial # 43,Group1-stimuli/group1-block2/fake-group2-b2/encoded_Group2_IMG_0308.jpg,0,encoded_Group2_IMG_0308.jpg,,,,,,,,,0.0,42.0,42.0,42.0,,,,,,,,,,,,,,,692.8447730569169,None,,,0,0.1800163360312581,695.328550637234,None,695.328550637234,None,,,694.1612961781211,None,,,,,1,2022_Apr_25_1604,Real-fake-judgement-flashing-group1,2021.1.2,59.867214260378105,
196,Trial # 44,Group1-stimuli/group1-block2/real-group1-b2/Group1_IMG_0467.jpg,1,Group1_IMG_0467.jpg,,,,,,,,,0.0,43.0,43.0,43.0,,,,,,,,,,,,,,,695.5282954461873,None,,,1,0.2880878131836653,697.9964602263644,None,697.9964602263644,None,,,696.9469946669415,None,,,,,1,2022_Apr_25_1604,Real-fake-judgement-flashing-group1,2021.1.2,59.867214260378105,
197,Trial # 45,Group1-stimuli/group1-block2/fake-group2-b2/encoded_Group2_IMG_9839.jpg,0,encoded_Group2_IMG_9839.jpg,,,,,,,,,0.0,44.0,44.0,44.0,,,,,,,,,,,,,,,698.3140939692967,None,,,0,0.7755258390679955,700.7970346692018,None,700.7970346692018,None,,,699.6298240670003,None,,,,,1,2022_Apr_25_1604,Real-fake-judgement-flashing-group1,2021.1.2,59.867214260378105,
198,Trial # 46,Group1-stimuli/group1-block2/fake-group2-b2/encoded_Group2_IMG_9681.jpg,0,encoded_Group2_IMG_9681.jpg,,,,,,,,,0.0,45.0,45.0,45.0,,,,,,,,,,,,,,,701.598198513966,None,,,0,0.2752384692430496,704.0813180343248,None,704.0813180343248,None,,,702.915367058944,None,,,,,1,2022_Apr_25_1604,Real-fake-judgement-flashing-group1,2021.1.2,59.867214260378105,
199,Trial # 47,Group1-stimuli/group1-block2/fake-group2-b2/encoded_Group2_IMG_0458.jpg,0,encoded_Group2_IMG_0458.jpg,,,,,,,,,0.0,46.0,46.0,46.0,,,,,,,,,,,,,,,704.3813794711605,None,,,0,0.6027657161466777,706.8497840710916,None,706.8497840710916,None,,,705.6984173511155,None,,,,,1,2022_Apr_25_1604,Real-fake-judgement-flashing-group1,2021.1.2,59.867214260378105,
200,Trial # 48,Group1-stimuli/group1-block2/real-group1-b2/Group1_IMG_1095.jpg,1,Group1_IMG_1095.jpg,,,,,,,,,0.0,47.0,47.0,47.0,,,,,,,,,,,,,,,707.4833835721947,None,,,0,0.2940984372980892,709.9664728692733,None,709.9664728692733,None,,,708.7993318461813,None,,,,,1,2022_Apr_25_1604,Real-fake-judgement-flashing-group1,2021.1.2,59.867214260378105,
201,Trial # 49,Group1-stimuli/group1-block2/fake-group2-b2/encoded_Group2_IMG_9710.jpg,0,encoded_Group2_IMG_9710.jpg,,,,,,,,,0.0,48.0,48.0,48.0,,,,,,,,,,,,,,,710.2832913300954,None,,,1,0.3576977513730526,712.7508629579097,None,712.7508629579097,None,,,711.6013598749414,None,,,,,1,2022_Apr_25_1604,Real-fake-judgement-flashing-group1,2021.1.2,59.867214260378105,
202,Trial # 50,Group1-stimuli/group1-block2/fake-group2-b2/encoded_Group2_IMG_9819.jpg,0,encoded_Group2_IMG_9819.jpg,,,,,,,,,0.0,49.0,49.0,49.0,,,,,,,,,,,,,,,713.1353782131337,None,,,0,0.3458027453161776,715.6187583552673,None,715.6187583552673,None,,,714.45109125413,None,,,,,1,2022_Apr_25_1604,Real-fake-judgement-flashing-group1,2021.1.2,59.867214260378105,
203,Trial # 51,Group1-stimuli/group1-block2/real-group1-b2/Group1_IMG_0064.jpg,1,Group1_IMG_0064.jpg,,,,,,,,,0.0,50.0,50.0,50.0,,,,,,,,,,,,,,,715.9846111033112,None,,,1,0.3193501308560371,718.4691589949653,None,718.4691589949653,None,,,717.3031842312776,None,,,,,1,2022_Apr_25_1604,Real-fake-judgement-flashing-group1,2021.1.2,59.867214260378105,
204,Trial # 52,Group1-stimuli/group1-block2/fake-group2-b2/encoded_Group2_IMG_9756.jpg,0,encoded_Group2_IMG_9756.jpg,,,,,,,,,0.0,51.0,51.0,51.0,,,,,,,,,,,,,,,718.8194723841734,None,,,1,1.2367690079845488,721.3037911681458,None,721.3037911681458,None,,,720.1361703551374,None,,,,,1,2022_Apr_25_1604,Real-fake-judgement-flashing-group1,2021.1.2,59.867214260378105,
205,Trial # 53,Group1-stimuli/group1-block2/fake-group2-b2/encoded_Group2_IMG_5888.jpg,0,encoded_Group2_IMG_5888.jpg,,,,,,,,,0.0,52.0,52.0,52.0,,,,,,,,,,,,,,,722.5705002900213,None,,,0,0.8069255659356713,725.0376372123137,None,725.0376372123137,None,,,723.87180239195,None,,,,,1,2022_Apr_25_1604,Real-fake-judgement-flashing-group1,2021.1.2,59.867214260378105,
206,Trial # 54,Group1-stimuli/group1-block2/real-group1-b2/Group1_IMG_1476.jpg,1,Group1_IMG_1476.jpg,,,,,,,,,0.0,53.0,53.0,53.0,,,,,,,,,,,,,,,725.871846799273,None,,,1,0.3931864793412387,728.3553743893281,None,728.3553743893281,None,,,727.1891717142425,None,,,,,1,2022_Apr_25_1604,Real-fake-judgement-flashing-group1,2021.1.2,59.867214260378105,
207,Trial # 55,Group1-stimuli/group1-block2/real-group1-b2/Group1_IMG_1917.jpg,1,Group1_IMG_1917.jpg,,,,,,,,,0.0,54.0,54.0,54.0,,,,,,,,,,,,,,,728.7722210260108,None,,,1,0.3013862050138414,731.2391734272242,None,731.2391734272242,None,,,730.0721633243375,None,,,,,1,2022_Apr_25_1604,Real-fake-judgement-flashing-group1,2021.1.2,59.867214260378105,
208,Trial # 56,Group1-stimuli/group1-block2/real-group1-b2/Group1_IMG_0413.jpg,1,Group1_IMG_0413.jpg,,,,,,,,,0.0,55.0,55.0,55.0,,,,,,,,,,,,,,,731.574310446158,None,,,1,0.4033811679109931,734.0571799213067,None,734.0571799213067,None,,,732.8911248552613,None,,,,,1,2022_Apr_25_1604,Real-fake-judgement-flashing-group1,2021.1.2,59.867214260378105,
209,Trial # 57,Group1-stimuli/group1-block2/real-group1-b2/Group1_IMG_1001.jpg,1,Group1_IMG_1001.jpg,,,,,,,,,0.0,56.0,56.0,56.0,,,,,,,,,,,,,,,734.4905820670538,None,,,1,0.3173591289669275,736.9591473261826,None,736.9591473261826,None,,,735.8074942701496,None,,,,,1,2022_Apr_25_1604,Real-fake-judgement-flashing-group1,2021.1.2,59.867214260378105,
210,Trial # 58,Group1-stimuli/group1-block2/fake-group2-b2/encoded_Group2_IMG_0441.jpg,0,encoded_Group2_IMG_0441.jpg,,,,,,,,,0.0,57.0,57.0,57.0,,,,,,,,,,,,,,,737.3093399261124,None,,,0,0.3088310747407377,739.775740955025,None,739.775740955025,None,,,738.6082796091214,None,,,,,1,2022_Apr_25_1604,Real-fake-judgement-flashing-group1,2021.1.2,59.867214260378105,
211,Trial # 59,Group1-stimuli/group1-block2/real-group1-b2/Group1_IMG_9774.jpg,1,Group1_IMG_9774.jpg,,,,,,,,,0.0,58.0,58.0,58.0,,,,,,,,,,,,,,,740.1089826859534,None,,,0,0.3238830030895769,742.5766797089018,None,742.5766797089018,None,,,741.4266153662466,None,,,,,1,2022_Apr_25_1604,Real-fake-judgement-flashing-group1,2021.1.2,59.867214260378105,
212,Trial # 60,Group1-stimuli/group1-block2/fake-group2-b2/encoded_Group2_IMG_2751.jpg,0,encoded_Group2_IMG_2751.jpg,,,,,,,,,0.0,59.0,59.0,59.0,,,,,,,,,,,,,,,742.9277828070335,None,,,1,0.2508572861552238,745.393638627138,None,745.393638627138,None,,,744.2266174620017,None,,,,,1,2022_Apr_25_1604,Real-fake-judgement-flashing-group1,2021.1.2,59.867214260378105,
213,Trial # 61,Group1-stimuli/group1-block2/fake-group2-b2/encoded_Group2_IMG_0409.jpg,0,encoded_Group2_IMG_0409.jpg,,,,,,,,,0.0,60.0,60.0,60.0,,,,,,,,,,,,,,,745.6773277241737,None,,,0,0.2187132560648024,748.1458498081192,None,748.1458498081192,None,,,746.9786874190904,None,,,,,1,2022_Apr_25_1604,Real-fake-judgement-flashing-group1,2021.1.2,59.867214260378105,
214,Trial # 62,Group1-stimuli/group1-block2/real-group1-b2/Group1_IMG_1346.jpg,1,Group1_IMG_1346.jpg,,,,,,,,,0.0,61.0,61.0,61.0,,,,,,,,,,,,,,,748.3951784120873,None,,,1,0.2542875246144831,750.8622750281356,None,750.8622750281356,None,,,749.7115984549746,None,,,,,1,2022_Apr_25_1604,Real-fake-judgement-flashing-group1,2021.1.2,59.867214260378105,
215,Trial # 63,Group1-stimuli/group1-block2/real-group1-b2/Group1_IMG_0481.jpg,1,Group1_IMG_0481.jpg,,,,,,,,,0.0,62.0,62.0,62.0,,,,,,,,,,,,,,,751.1459323461168,None,,,1,1.8303519650362432,753.6142396531068,None,753.6142396531068,None,,,752.4973441562615,None,,,,,1,2022_Apr_25_1604,Real-fake-judgement-flashing-group1,2021.1.2,59.867214260378105,
216,Trial # 64,Group1-stimuli/group1-block2/fake-group2-b2/encoded_Group2_IMG_4718.jpg,0,encoded_Group2_IMG_4718.jpg,,,,,,,,,0.0,63.0,63.0,63.0,,,,,,,,,,,,,,,755.4634591690265,None,,,1,0.3043356132693589,757.9322194582783,None,757.9322194582783,None,,,756.7485662093386,None,,,,,1,2022_Apr_25_1604,Real-fake-judgement-flashing-group1,2021.1.2,59.867214260378105,
217,Trial # 65,Group1-stimuli/group1-block2/real-group1-b2/Group1_IMG_0540.jpg,1,Group1_IMG_0540.jpg,,,,,,,,,0.0,64.0,64.0,64.0,,,,,,,,,,,,,,,758.265648862347,None,,,1,0.4150106091983616,760.7655565049499,None,760.7655565049499,None,,,759.5817924621515,None,,,,,1,2022_Apr_25_1604,Real-fake-judgement-flashing-group1,2021.1.2,59.867214260378105,
218,Trial # 66,Group1-stimuli/group1-block2/fake-group2-b2/encoded_Group2_IMG_0166.jpg,0,encoded_Group2_IMG_0166.jpg,,,,,,,,,0.0,65.0,65.0,65.0,,,,,,,,,,,,,,,761.1987447012216,None,,,1,0.322259234264493,763.6663033613004,None,763.6663033613004,None,,,762.5170949501917,None,,,,,1,2022_Apr_25_1604,Real-fake-judgement-flashing-group1,2021.1.2,59.867214260378105,
219,Trial # 67,Group1-stimuli/group1-block2/fake-group2-b2/encoded_Group2_IMG_0412.jpg,0,encoded_Group2_IMG_0412.jpg,,,,,,,,,0.0,66.0,66.0,66.0,,,,,,,,,,,,,,,764.0165113783441,None,,,0,0.3210692820139229,766.4834883962758,None,766.4834883962758,None,,,765.3171977149323,None,,,,,1,2022_Apr_25_1604,Real-fake-judgement-flashing-group1,2021.1.2,59.867214260378105,
220,Trial # 68,Group1-stimuli/group1-block2/real-group1-b2/Group1_IMG_0485.jpg,1,Group1_IMG_0485.jpg,,,,,,,,,0.0,67.0,67.0,67.0,,,,,,,,,,,,,,,766.835196454078,None,,,1,0.2704994408413768,769.3180484161712,None,769.3180484161712,None,,,768.1521417172626,None,,,,,1,2022_Apr_25_1604,Real-fake-judgement-flashing-group1,2021.1.2,59.867214260378105,
221,Trial # 69,Group1-stimuli/group1-block2/fake-group2-b2/encoded_Group2_IMG_1495.jpg,0,encoded_Group2_IMG_1495.jpg,,,,,,,,,0.0,68.0,68.0,68.0,,,,,,,,,,,,,,,769.6186679881066,None,,,1,0.3586852289736271,772.0858772280626,None,772.0858772280626,None,,,770.918511165306,None,,,,,1,2022_Apr_25_1604,Real-fake-judgement-flashing-group1,2021.1.2,59.867214260378105,
222,Trial # 70,Group1-stimuli/group1-block2/real-group1-b2/Group1_IMG_0426.jpg,1,Group1_IMG_0426.jpg,,,,,,,,,0.0,69.0,69.0,69.0,,,,,,,,,,,,,,,772.4690887029283,None,,,1,0.7228864538483322,774.9696123623289,None,774.9696123623289,None,,,773.7861049571075,None,,,,,1,2022_Apr_25_1604,Real-fake-judgement-flashing-group1,2021.1.2,59.867214260378105,
223,Trial # 71,Group1-stimuli/group1-block2/real-group1-b2/Group1_IMG_0349.jpg,1,Group1_IMG_0349.jpg,,,,,,,,,0.0,70.0,70.0,70.0,,,,,,,,,,,,,,,775.7199814063497,None,,,1,0.2242526919580996,778.1881800130941,None,778.1881800130941,None,,,777.0206589750014,None,,,,,1,2022_Apr_25_1604,Real-fake-judgement-flashing-group1,2021.1.2,59.867214260378105,
224,Trial # 72,Group1-stimuli/group1-block2/real-group1-b2/Group1_IMG_0414.jpg,1,Group1_IMG_0414.jpg,,,,,,,,,0.0,71.0,71.0,71.0,,,,,,,,,,,,,,,778.437656273134,None,,,1,0.6110526639968157,780.9214421771467,None,780.9214421771467,None,,,779.8544617872685,None,,,,,1,2022_Apr_25_1604,Real-fake-judgement-flashing-group1,2021.1.2,59.867214260378105,
225,Trial # 73,Group1-stimuli/group1-block2/fake-group2-b2/encoded_Group2_IMG_9856.jpg,0,encoded_Group2_IMG_9856.jpg,,,,,,,,,0.0,72.0,72.0,72.0,,,,,,,,,,,,,,,781.5550025729463,None,,,0,0.4137957766652107,784.022718898952,None,784.022718898952,None,,,782.9056751080789,None,,,,,1,2022_Apr_25_1604,Real-fake-judgement-flashing-group1,2021.1.2,59.867214260378105,
226,Trial # 74,Group1-stimuli/group1-block2/fake-group2-b2/encoded_Group2_IMG_5313.jpg,0,encoded_Group2_IMG_5313.jpg,,,,,,,,,0.0,73.0,73.0,73.0,,,,,,,,,,,,,,,784.4557255930267,None,,,0,0.3685379568487406,786.9240240990184,None,786.9240240990184,None,,,785.7728949841112,None,,,,,1,2022_Apr_25_1604,Real-fake-judgement-flashing-group1,2021.1.2,59.867214260378105,
227,Trial # 75,Group1-stimuli/group1-block2/fake-group2-b2/encoded_Group2_IMG_0421.jpg,0,encoded_Group2_IMG_0421.jpg,,,,,,,,,0.0,74.0,74.0,74.0,,,,,,,,,,,,,,,787.3249041382223,None,,,0,0.4287251951172948,789.8078367379494,None,789.8078367379494,None,,,788.641829828266,None,,,,,1,2022_Apr_25_1604,Real-fake-judgement-flashing-group1,2021.1.2,59.867214260378105,
228,Trial # 76,Group1-stimuli/group1-block2/fake-group2-b2/encoded_Group2_IMG_0446.jpg,0,encoded_Group2_IMG_0446.jpg,,,,,,,,,0.0,75.0,75.0,75.0,,,,,,,,,,,,,,,790.257914555259,None,,,0,0.4148032017983496,792.7257558219135,None,792.7257558219135,None,,,791.5744075682014,None,,,,,1,2022_Apr_25_1604,Real-fake-judgement-flashing-group1,2021.1.2,59.867214260378105,
229,Trial # 77,Group1-stimuli/group1-block2/real-group1-b2/Group1_IMG_5999.jpg,1,Group1_IMG_5999.jpg,,,,,,,,,0.0,76.0,76.0,76.0,,,,,,,,,,,,,,,793.1601768713444,None,,,1,0.705604184884578,795.6429579192773,None,795.6429579192773,None,,,794.4925068803132,None,,,,,1,2022_Apr_25_1604,Real-fake-judgement-flashing-group1,2021.1.2,59.867214260378105,
230,Trial # 78,Group1-stimuli/group1-block2/real-group1-b2/Group1_IMG_0107.jpg,1,Group1_IMG_0107.jpg,,,,,,,,,0.0,77.0,77.0,77.0,,,,,,,,,,,,,,,796.376850716304,None,,,1,0.5366297401487827,798.8439318481833,None,798.8439318481833,None,,,797.6946440301836,None,,,,,1,2022_Apr_25_1604,Real-fake-judgement-flashing-group1,2021.1.2,59.867214260378105,
231,Trial # 79,Group1-stimuli/group1-block2/fake-group2-b2/encoded_Group2_IMG_0322.jpg,0,encoded_Group2_IMG_0322.jpg,,,,,,,,,0.0,78.0,78.0,78.0,,,,,,,,,,,,,,,799.4106916040182,None,,,0,0.981811529956758,801.8786306893453,None,801.8786306893453,None,,,800.7276244503446,None,,,,,1,2022_Apr_25_1604,Real-fake-judgement-flashing-group1,2021.1.2,59.867214260378105,
232,Trial # 80,Group1-stimuli/group1-block2/fake-group2-b2/encoded_Group2_IMG_4255.jpg,0,encoded_Group2_IMG_4255.jpg,,,,,,,,,0.0,79.0,79.0,79.0,,,,,,,,,,,,,,,802.8797359862365,None,,,0,0.2972546461969614,805.3793032839894,None,805.3793032839894,None,,,804.1955158193596,None,,,,,1,2022_Apr_25_1604,Real-fake-judgement-flashing-group1,2021.1.2,59.867214260378105,
233,Trial # 81,Group1-stimuli/group1-block2/fake-group2-b2/encoded_Group2_IMG_0219.jpg,0,encoded_Group2_IMG_0219.jpg,,,,,,,,,0.0,80.0,80.0,80.0,,,,,,,,,,,,,,,805.6961500709876,None,,,0,0.3519177087582648,808.1646447810344,None,808.1646447810344,None,,,807.0310193821788,None,,,,,1,2022_Apr_25_1604,Real-fake-judgement-flashing-group1,2021.1.2,59.867214260378105,
234,Trial # 82,Group1-stimuli/group1-block2/real-group1-b2/Group1_IMG_0548.jpg,1,Group1_IMG_0548.jpg,,,,,,,,,0.0,81.0,81.0,81.0,,,,,,,,,,,,,,,808.5470092832111,None,,,1,0.2455199807882309,811.0310497479513,None,811.0310497479513,None,,,809.8639355921187,None,,,,,1,2022_Apr_25_1604,Real-fake-judgement-flashing-group1,2021.1.2,59.867214260378105,
235,Trial # 83,Group1-stimuli/group1-block2/real-group1-b2/Group1_IMG_0229.jpg,1,Group1_IMG_0229.jpg,,,,,,,,,0.0,82.0,82.0,82.0,,,,,,,,,,,,,,,811.2982895392925,None,,,0,0.2553587020374834,813.7652036291547,None,813.7652036291547,None,,,812.6160171651281,None,,,,,1,2022_Apr_25_1604,Real-fake-judgement-flashing-group1,2021.1.2,59.867214260378105,
236,Trial # 84,Group1-stimuli/group1-block2/fake-group2-b2/encoded_Group2_IMG_0365.jpg,0,encoded_Group2_IMG_0365.jpg,,,,,,,,,0.0,83.0,83.0,83.0,,,,,,,,,,,,,,,814.0485981223173,None,,,0,0.4394083502702415,816.5491279051639,None,816.5491279051639,None,,,815.3653849060647,None,,,,,1,2022_Apr_25_1604,Real-fake-judgement-flashing-group1,2021.1.2,59.867214260378105,
237,Trial # 85,Group1-stimuli/group1-block2/real-group1-b2/Group1_IMG_9822.jpg,1,Group1_IMG_9822.jpg,,,,,,,,,0.0,84.0,84.0,84.0,,,,,,,,,,,,,,,817.0172633123584,None,,,1,1.2237316388636827,819.5006971643306,None,819.5006971643306,None,,,818.3336705579422,None,,,,,1,2022_Apr_25_1604,Real-fake-judgement-flashing-group1,2021.1.2,59.867214260378105,
238,Trial # 86,Group1-stimuli/group1-block2/fake-group2-b2/encoded_Group2_IMG_0195.jpg,0,encoded_Group2_IMG_0195.jpg,,,,,,,,,0.0,85.0,85.0,85.0,,,,,,,,,,,,,,,820.7503511910327,None,,,1,1.7843756056390705,823.2361835739575,None,823.2361835739575,None,,,822.0685825012624,None,,,,,1,2022_Apr_25_1604,Real-fake-judgement-flashing-group1,2021.1.2,59.867214260378105,
239,Trial # 87,Group1-stimuli/group1-block2/fake-group2-b2/encoded_Group2_IMG_0494.jpg,0,encoded_Group2_IMG_0494.jpg,,,,,,,,,0.0,86.0,86.0,86.0,,,,,,,,,,,,,,,825.0516425762326,None,,,1,1.65964462980628,827.5369283203036,None,827.5369283203036,None,,,826.369014272932,None,,,,,1,2022_Apr_25_1604,Real-fake-judgement-flashing-group1,2021.1.2,59.867214260378105,
240,Trial # 88,Group1-stimuli/group1-block2/real-group1-b2/Group1_IMG_0509.jpg,1,Group1_IMG_0509.jpg,,,,,,,,,0.0,87.0,87.0,87.0,,,,,,,,,,,,,,,829.2203852972016,None,,,1,0.4282853840850293,831.7042760653421,None,831.7042760653421,None,,,830.5369722913019,None,,,,,1,2022_Apr_25_1604,Real-fake-judgement-flashing-group1,2021.1.2,59.867214260378105,
241,Trial # 89,Group1-stimuli/group1-block2/fake-group2-b2/encoded_Group2_IMG_8924.jpg,0,encoded_Group2_IMG_8924.jpg,,,,,,,,,0.0,88.0,88.0,88.0,,,,,,,,,,,,,,,832.1554296719842,None,,,1,2.02231534710154,834.6382541339844,None,834.6382541339844,None,,,833.4712654710747,None,,,,,1,2022_Apr_25_1604,Real-fake-judgement-flashing-group1,2021.1.2,59.867214260378105,
242,Trial # 90,Group1-stimuli/group1-block2/real-group1-b2/Group1_IMG_0360.jpg,1,Group1_IMG_0360.jpg,,,,,,,,,0.0,89.0,89.0,89.0,,,,,,,,,,,,,,,836.6892629559152,None,,,1,1.0001039798371494,839.156411012169,None,839.156411012169,None,,,837.9904807433486,None,,,,,1,2022_Apr_25_1604,Real-fake-judgement-flashing-group1,2021.1.2,59.867214260378105,
243,Trial # 91,Group1-stimuli/group1-block2/fake-group2-b2/encoded_Group2_IMG_0523.jpg,0,encoded_Group2_IMG_0523.jpg,,,,,,,,,0.0,90.0,90.0,90.0,,,,,,,,,,,,,,,840.1740210689604,None,,,1,4.859369065146893,842.6412002239376,None,842.6412002239376,None,,,841.4737136452459,None,,,,,1,2022_Apr_25_1604,Real-fake-judgement-flashing-group1,2021.1.2,59.867214260378105,
244,Trial # 92,Group1-stimuli/group1-block2/real-group1-b2/Group1_IMG_0518.jpg,1,Group1_IMG_0518.jpg,,,,,,,,,0.0,91.0,91.0,91.0,,,,,,,,,,,,,,,847.5269065070897,None,,,1,0.41095786774531,850.0096328943036,None,850.0096328943036,None,,,848.8424776419997,None,,,,,1,2022_Apr_25_1604,Real-fake-judgement-flashing-group1,2021.1.2,59.867214260378105,
245,Trial # 93,Group1-stimuli/group1-block2/fake-group2-b2/encoded_Group2_IMG_0372.jpg,0,encoded_Group2_IMG_0372.jpg,,,,,,,,,0.0,92.0,92.0,92.0,,,,,,,,,,,,,,,850.4439561171457,None,,,0,0.5008527133613825,852.9117092569359,None,852.9117092569359,None,,,851.7446818011813,None,,,,,1,2022_Apr_25_1604,Real-fake-judgement-flashing-group1,2021.1.2,59.867214260378105,
246,Trial # 94,Group1-stimuli/group1-block2/fake-group2-b2/encoded_Group2_IMG_9761.jpg,0,encoded_Group2_IMG_9761.jpg,,,,,,,,,0.0,93.0,93.0,93.0,,,,,,,,,,,,,,,853.4445524732582,None,,,1,13.397082711104304,855.9114893320948,None,855.9114893320948,None,,,854.7443954539485,None,,,,,1,2022_Apr_25_1604,Real-fake-judgement-flashing-group1,2021.1.2,59.867214260378105,
247,Trial # 95,Group1-stimuli/group1-block2/real-group1-b2/Group1_IMG_2690.jpg,1,Group1_IMG_2690.jpg,,,,,,,,,0.0,94.0,94.0,94.0,,,,,,,,,,,,,,,869.3322739810683,None,,,0,2.300277987960726,871.8002306101844,None,871.8002306101844,None,,,870.6656798883341,None,,,,,1,2022_Apr_25_1604,Real-fake-judgement-flashing-group1,2021.1.2,59.867214260378105,
248,Trial # 96,Group1-stimuli/group1-block2/real-group1-b2/Group1_IMG_9855.jpg,1,Group1_IMG_9855.jpg,,,,,,,,,0.0,95.0,95.0,95.0,,,,,,,,,,,,,,,874.1182780973613,None,,,1,0.3719448568299413,876.5846505910158,None,876.5846505910158,None,,,875.4174528522417,None,,,,,1,2022_Apr_25_1604,Real-fake-judgement-flashing-group1,2021.1.2,59.867214260378105,
249,Trial # 97,Group1-stimuli/group1-block2/fake-group2-b2/encoded_Group2_IMG_0470.jpg,0,encoded_Group2_IMG_0470.jpg,,,,,,,,,0.0,96.0,96.0,96.0,,,,,,,,,,,,,,,876.9850104292855,None,,,0,0.3589447010308504,879.469618037343,None,879.469618037343,None,,,878.3021276830696,None,,,,,1,2022_Apr_25_1604,Real-fake-judgement-flashing-group1,2021.1.2,59.867214260378105,
250,Trial # 98,Group1-stimuli/group1-block2/fake-group2-b2/encoded_Group2_IMG_1191.jpg,0,encoded_Group2_IMG_1191.jpg,,,,,,,,,0.0,97.0,97.0,97.0,,,,,,,,,,,,,,,879.8522829520516,None,,,0,0.0515964739024639,882.3209605799057,None,882.3209605799057,None,,,881.2024255050346,None,,,,,1,2022_Apr_25_1604,Real-fake-judgement-flashing-group1,2021.1.2,59.867214260378105,
251,Trial # 99,Group1-stimuli/group1-block2/real-group1-b2/Group1_IMG_9937.jpg,1,Group1_IMG_9937.jpg,,,,,,,,,0.0,98.0,98.0,98.0,,,,,,,,,,,,,,,882.403539469,None,,,1,0.5414673136547208,884.8871319573373,None,884.8871319573373,None,,,883.703745982144,None,,,,,1,2022_Apr_25_1604,Real-fake-judgement-flashing-group1,2021.1.2,59.867214260378105,
252,Trial # 100,Group1-stimuli/group1-block2/fake-group2-b2/encoded_Group2_IMG_0106.jpg,0,encoded_Group2_IMG_0106.jpg,,,,,,,,,0.0,99.0,99.0,99.0,,,,,,,,,,,,,,,885.4535011989065,None,,,1,0.26687913807109,887.9216921902262,None,887.9216921902262,None,,,886.7547641429119,None,,,,,1,2022_Apr_25_1604,Real-fake-judgement-flashing-group1,2021.1.2,59.867214260378105,
253,Trial # 101,Group1-stimuli/group1-block2/real-group1-b2/Group1_IMG_2790.jpg,1,Group1_IMG_2790.jpg,,,,,,,,,0.0,100.0,100.0,100.0,,,,,,,,,,,,,,,888.205119043123,None,,,0,0.2603034167550504,890.672257357277,None,890.672257357277,None,,,889.5051074819639,None,,,,,1,2022_Apr_25_1604,Real-fake-judgement-flashing-group1,2021.1.2,59.867214260378105,
254,Trial # 102,Group1-stimuli/group1-block2/real-group1-b2/Group1_IMG_9792.jpg,1,Group1_IMG_9792.jpg,,,,,,,,,0.0,101.0,101.0,101.0,,,,,,,,,,,,,,,890.9552296069451,None,,,1,0.0762196946889162,893.4243410131894,None,893.4243410131894,None,,,892.2737860730849,None,,,,,1,2022_Apr_25_1604,Real-fake-judgement-flashing-group1,2021.1.2,59.867214260378105,
255,Trial # 103,Group1-stimuli/group1-block2/real-group1-b2/Group1_IMG_1640.jpg,1,Group1_IMG_1640.jpg,,,,,,,,,0.0,102.0,102.0,102.0,,,,,,,,,,,,,,,893.5236595850438,None,,,1,0.2533742520026862,896.0072445999831,None,896.0072445999831,None,,,894.8401258732192,None,,,,,1,2022_Apr_25_1604,Real-fake-judgement-flashing-group1,2021.1.2,59.867214260378105,
256,Trial # 104,Group1-stimuli/group1-block2/real-group1-b2/Group1_IMG_0033.jpg,1,Group1_IMG_0033.jpg,,,,,,,,,0.0,103.0,103.0,103.0,,,,,,,,,,,,,,,896.290807235986,None,,,0,0.7017519441433251,898.7747505563311,None,898.7747505563311,None,,,897.6088319383562,None,,,,,1,2022_Apr_25_1604,Real-fake-judgement-flashing-group1,2021.1.2,59.867214260378105,
257,Trial # 105,Group1-stimuli/group1-block2/real-group1-b2/Group1_IMG_0079.jpg,1,Group1_IMG_0079.jpg,,,,,,,,,0.0,104.0,104.0,104.0,,,,,,,,,,,,,,,899.508295675274,None,,,1,25.859592286869884,901.9769692732953,None,901.9769692732953,None,,,900.8254048163072,None,,,,,1,2022_Apr_25_1604,Real-fake-judgement-flashing-group1,2021.1.2,59.867214260378105,
258,Trial # 106,Group1-stimuli/group1-block2/fake-group2-b2/encoded_Group2_IMG_9909.jpg,0,encoded_Group2_IMG_9909.jpg,,,,,,,,,0.0,105.0,105.0,105.0,,,,,,,,,,,,,,,927.868344509974,None,,,1,0.2859472366981208,930.3345728111452,None,930.3345728111452,None,,,929.167376560159,None,,,,,1,2022_Apr_25_1604,Real-fake-judgement-flashing-group1,2021.1.2,59.867214260378105,
259,Trial # 107,Group1-stimuli/group1-block2/fake-group2-b2/encoded_Group2_IMG_0398.jpg,0,encoded_Group2_IMG_0398.jpg,,,,,,,,,0.0,106.0,106.0,106.0,,,,,,,,,,,,,,,930.6512130573392,None,,,0,3.6214102837257087,933.103152178228,None,933.103152178228,None,,,931.9360149721616,None,,,,,1,2022_Apr_25_1604,Real-fake-judgement-flashing-group1,2021.1.2,59.867214260378105,
260,Trial # 108,Group1-stimuli/group1-block2/real-group1-b2/Group1_IMG_4268.jpg,1,Group1_IMG_4268.jpg,,,,,,,,,0.0,107.0,107.0,107.0,,,,,,,,,,,,,,,936.753611496184,None,,,1,0.3919887039810419,939.2205799510702,None,939.2205799510702,None,,,938.0546624269336,None,,,,,1,2022_Apr_25_1604,Real-fake-judgement-flashing-group1,2021.1.2,59.867214260378105,
261,Trial # 109,Group1-stimuli/group1-block2/fake-group2-b2/encoded_Group2_IMG_9321.jpg,0,encoded_Group2_IMG_9321.jpg,,,,,,,,,0.0,108.0,108.0,108.0,,,,,,,,,,,,,,,939.6372924670576,None,,,1,0.4113496029749512,942.1052103880792,None,942.1052103880792,None,,,940.9547941209748,None,,,,,1,2022_Apr_25_1604,Real-fake-judgement-flashing-group1,2021.1.2,59.867214260378105,
262,Trial # 110,Group1-stimuli/group1-block2/fake-group2-b2/encoded_Group2_IMG_9964.jpg,0,encoded_Group2_IMG_9964.jpg,,,,,,,,,0.0,109.0,109.0,109.0,,,,,,,,,,,,,,,942.5391018209048,None,,,1,3.350859511177987,945.0056505892426,None,945.0056505892426,None,,,943.8385102483444,None,,,,,1,2022_Apr_25_1604,Real-fake-judgement-flashing-group1,2021.1.2,59.867214260378105,
263,Trial # 111,Group1-stimuli/group1-block2/real-group1-b2/Group1_IMG_0329.jpg,1,Group1_IMG_0329.jpg,,,,,,,,,0.0,110.0,110.0,110.0,,,,,,,,,,,,,,,948.3732247492298,None,,,0,0.2590361712500453,950.8575250501744,None,950.8575250501744,None,,,949.6904249079524,None,,,,,1,2022_Apr_25_1604,Real-fake-judgement-flashing-group1,2021.1.2,59.867214260378105,
264,Trial # 112,Group1-stimuli/group1-block2/fake-group2-b2/encoded_Group2_IMG_0534.jpg,0,encoded_Group2_IMG_0534.jpg,,,,,,,,,0.0,111.0,111.0,111.0,,,,,,,,,,,,,,,951.1411416209304,None,,,1,0.3805356370285153,953.6080260081216,None,953.6080260081216,None,,,952.4590983050877,None,,,,,1,2022_Apr_25_1604,Real-fake-judgement-flashing-group1,2021.1.2,59.867214260378105,
265,Trial # 113,Group1-stimuli/group1-block2/fake-group2-b2/encoded_Group2_IMG_0054.jpg,0,encoded_Group2_IMG_0054.jpg,,,,,,,,,0.0,112.0,112.0,112.0,,,,,,,,,,,,,,,954.0083117871544,None,,,0,0.271962177939713,956.4926025993192,None,956.4926025993192,None,,,955.3249022280796,None,,,,,1,2022_Apr_25_1604,Real-fake-judgement-flashing-group1,2021.1.2,59.867214260378105,
266,Trial # 114,Group1-stimuli/group1-block2/real-group1-b2/Group1_IMG_9979.jpg,1,Group1_IMG_9979.jpg,,,,,,,,,0.0,113.0,113.0,113.0,,,,,,,,,,,,,,,956.793729887344,None,,,1,0.2399968709796667,959.2766020651908,None,959.2766020651908,None,,,958.094288035296,None,,,,,1,2022_Apr_25_1604,Real-fake-judgement-flashing-group1,2021.1.2,59.867214260378105,
267,Trial # 115,Group1-stimuli/group1-block2/real-group1-b2/Group1_IMG_0170.jpg,1,Group1_IMG_0170.jpg,,,,,,,,,0.0,114.0,114.0,114.0,,,,,,,,,,,,,,,959.5433653849176,None,,,1,0.2968716560862958,962.0116920140572,None,962.0116920140572,None,,,960.860798541922,None,,,,,1,2022_Apr_25_1604,Real-fake-judgement-flashing-group1,2021.1.2,59.867214260378105,
268,Trial # 116,Group1-stimuli/group1-block2/fake-group2-b2/encoded_Group2_IMG_0007.jpg,0,encoded_Group2_IMG_0007.jpg,,,,,,,,,0.0,115.0,115.0,115.0,,,,,,,,,,,,,,,962.3290402023122,None,,,1,0.7534750937484205,964.795109837316,None,964.795109837316,None,,,963.628024738282,None,,,,,1,2022_Apr_25_1604,Real-fake-judgement-flashing-group1,2021.1.2,59.867214260378105,
269,Trial # 117,Group1-stimuli/group1-block2/real-group1-b2/Group1_IMG_0192.jpg,1,Group1_IMG_0192.jpg,,,,,,,,,0.0,116.0,116.0,116.0,,,,,,,,,,,,,,,965.5788862081243,None,,,1,0.6927765342406929,968.0638030073604,None,968.0638030073604,None,,,966.8969370699488,None,,,,,1,2022_Apr_25_1604,Real-fake-judgement-flashing-group1,2021.1.2,59.867214260378105,
270,Trial # 118,Group1-stimuli/group1-block2/real-group1-b2/Group1_IMG_9786.jpg,1,Group1_IMG_9786.jpg,,,,,,,,,0.0,117.0,117.0,117.0,,,,,,,,,,,,,,,968.7809315319172,None,,,1,13.981481737922875,971.2470150752924,None,971.2470150752924,None,,,970.0967010692692,None,,,,,1,2022_Apr_25_1604,Real-fake-judgement-flashing-group1,2021.1.2,59.867214260378105,
271,Trial # 119,Group1-stimuli/group1-block2/real-group1-b2/Group1_IMG_0187.jpg,1,Group1_IMG_0187.jpg,,,,,,,,,0.0,118.0,118.0,118.0,,,,,,,,,,,,,,,985.2514964593574,None,,,1,0.2531792242079973,987.7193962652236,None,987.7193962652236,None,,,986.5684803072364,None,,,,,1,2022_Apr_25_1604,Real-fake-judgement-flashing-group1,2021.1.2,59.867214260378105,
272,Trial # 120,Group1-stimuli/group1-block2/fake-group2-b2/encoded_Group2_IMG_0249.jpg,0,encoded_Group2_IMG_0249.jpg,,,,,,,,,0.0,119.0,119.0,119.0,,,,,,,,,,,,,,,988.0037240642124,None,,,1,0.5346317952498794,990.4698116043584,None,990.4698116043584,None,,,989.3025793703272,None,,,,,1,2022_Apr_25_1604,Real-fake-judgement-flashing-group1,2021.1.2,59.867214260378105,
273,Trial # 121,Group1-stimuli/group1-block2/fake-group2-b2/encoded_Group2_IMG_0074.jpg,0,encoded_Group2_IMG_0074.jpg,,,,,,,,,0.0,120.0,120.0,120.0,,,,,,,,,,,,,,,991.0367612331174,None,,,1,0.4125118060037493,993.5040666479616,None,993.5040666479616,None,,,992.3714649691246,None,,,,,1,2022_Apr_25_1604,Real-fake-judgement-flashing-group1,2021.1.2,59.867214260378105,
274,Trial # 122,Group1-stimuli/group1-block2/real-group1-b2/Group1_IMG_0243.jpg,1,Group1_IMG_0243.jpg,,,,,,,,,0.0,121.0,121.0,121.0,,,,,,,,,,,,,,,993.938484033104,None,,,0,0.3032431988976896,996.4213174930774,None,996.4213174930774,None,,,995.2544552213512,None,,,,,1,2022_Apr_25_1604,Real-fake-judgement-flashing-group1,2021.1.2,59.867214260378105,
275,Trial # 123,Group1-stimuli/group1-block2/real-group1-b2/Group1_IMG_0130.jpg,1,Group1_IMG_0130.jpg,,,,,,,,,0.0,122.0,122.0,122.0,,,,,,,,,,,,,,,996.756116000004,None,,,1,0.3413381851278245,999.2392238969916,None,999.2392238969916,None,,,998.0724419252948,None,,,,,1,2022_Apr_25_1604,Real-fake-judgement-flashing-group1,2021.1.2,59.867214260378105,
276,Trial # 124,Group1-stimuli/group1-block2/real-group1-b2/Group1_IMG_0298.jpg,1,Group1_IMG_0298.jpg,,,,,,,,,0.0,123.0,123.0,123.0,,,,,,,,,,,,,,,999.6060012909584,None,,,1,3.426685756072402,1002.073875037022,None,1002.073875037022,None,,,1000.922341844067,None,,,,,1,2022_Apr_25_1604,Real-fake-judgement-flashing-group1,2021.1.2,59.867214260378105,
277,Trial # 125,Group1-stimuli/group1-block2/real-group1-b2/Group1_IMG_5871.jpg,1,Group1_IMG_5871.jpg,,,,,,,,,0.0,124.0,124.0,124.0,,,,,,,,,,,,,,,1005.5245311809704,None,,,0,0.2676702067255974,1007.9928257009014,None,1007.9928257009014,None,,,1006.8259261501952,None,,,,,1,2022_Apr_25_1604,Real-fake-judgement-flashing-group1,2021.1.2,59.867214260378105,
278,Trial # 126,Group1-stimuli/group1-block2/fake-group2-b2/encoded_Group2_IMG_0479.jpg,0,encoded_Group2_IMG_0479.jpg,,,,,,,,,0.0,125.0,125.0,125.0,,,,,,,,,,,,,,,1008.293161042966,None,,,0,0.3005757261998951,1010.7759201382288,None,1010.7759201382288,None,,,1009.6251274109818,None,,,,,1,2022_Apr_25_1604,Real-fake-judgement-flashing-group1,2021.1.2,59.867214260378105,
