,Trial_num,image_path,ground_truth,image_name,demos.thisRepN,demos.thisTrialN,demos.thisN,demos.thisIndex,block1.thisRepN,block1.thisTrialN,block1.thisN,block1.thisIndex,block2.thisRepN,block2.thisTrialN,block2.thisN,block2.thisIndex,block1_rep2.thisRepN,block1_rep2.thisTrialN,block1_rep2.thisN,block1_rep2.thisIndex,block2_rep.thisRepN,block2_rep.thisTrialN,block2_rep.thisN,block2_rep.thisIndex,text_3.started,text_3.stopped,text_4.started,text_4.stopped,text.started,text.stopped,trail_num.started,trail_num.stopped,image_6.started,image_6.stopped,Judgement.keys,Judgement.rt,Judgement.started,Judgement.stopped,text_19.started,text_19.stopped,text_12.started,text_12.stopped,image.started,image.stopped,text_2.started,text_2.stopped,text_13.started,text_13.stopped,session,date,expName,psychopyVersion,frameRate,Unnamed: 54
0,Demo 1,demo/Demo_IMG_0974.jpg,demo,Demo_IMG_0974.jpg,0.0,0.0,0.0,0.0,,,,,,,,,,,,,,,,,20.67570414498914,None,38.31601627392229,None,43.48409484291915,None,44.71652760892175,None,46.08328826201614,None,1,3.094756320002489,47.13438373000827,None,47.13438373000827,None,,,,,,,,,1,2022_Mar_31_1004,Real-fake-judgement-flashing-group1,2021.1.2,59.98727982043373,
1,Demo 2,demo/Demo_IMG_1024.jpg,demo,Demo_IMG_1024.jpg,0.0,1.0,1.0,1.0,,,,,,,,,,,,,,,,,,,,,,,50.25196270097513,None,51.61920214199927,None,1,1.18101493595168,52.735997101990506,None,52.735997101990506,None,,,,,,,,,1,2022_Mar_31_1004,Real-fake-judgement-flashing-group1,2021.1.2,59.98727982043373,
2,Demo 3,demo/Demo_seed_80003.png,demo,Demo_seed_80003.png,0.0,2.0,2.0,2.0,,,,,,,,,,,,,,,,,,,,,,,53.9403201029636,None,55.35359550896101,None,0,1.792652351083234,56.42040286399424,None,56.42040286399424,None,,,,,,,,,1,2022_Mar_31_1004,Real-fake-judgement-flashing-group1,2021.1.2,59.98727982043373,
3,Trial # 1,Group1-stimuli/group1-block1/real-group1-b1/Group1_IMG_0022.jpg,1,Group1_IMG_0022.jpg,,,,,0.0,0.0,0.0,0.0,,,,,,,,,,,,,,,,,,,62.17318972595967,None,,,1,0.9091834749560804,64.62395874399226,None,64.62395874399226,None,58.72089840495028,None,63.48998412594665,None,,,,,1,2022_Mar_31_1004,Real-fake-judgement-flashing-group1,2021.1.2,59.98727982043373,
4,Trial # 2,Group1-stimuli/group1-block1/fake-group2-b1/encoded_Group2_IMG_0386.jpg,0,encoded_Group2_IMG_0386.jpg,,,,,0.0,1.0,1.0,1.0,,,,,,,,,,,,,,,,,,,65.56105673592538,None,,,1,0.5558760659769177,68.02527375391219,None,68.02527375391219,None,,,66.90821291902103,None,,,,,1,2022_Mar_31_1004,Real-fake-judgement-flashing-group1,2021.1.2,59.98727982043373,
5,Trial # 3,Group1-stimuli/group1-block1/real-group1-b1/Group1_IMG_9704.jpg,1,Group1_IMG_9704.jpg,,,,,0.0,2.0,2.0,2.0,,,,,,,,,,,,,,,,,,,68.60895911394618,None,,,0,1.3135764679173008,71.09161303692963,None,71.09161303692963,None,,,69.94119785400108,None,,,,,1,2022_Mar_31_1004,Real-fake-judgement-flashing-group1,2021.1.2,59.98727982043373,
6,Trial # 4,Group1-stimuli/group1-block1/real-group1-b1/Group1_IMG_0406.jpg,1,Group1_IMG_0406.jpg,,,,,0.0,3.0,3.0,3.0,,,,,,,,,,,,,,,,,,,72.4260663689347,None,,,0,1.6633680019294843,74.90964775590692,None,74.90964775590692,None,,,73.74233970290516,None,,,,,1,2022_Mar_31_1004,Real-fake-judgement-flashing-group1,2021.1.2,59.98727982043373,
7,Trial # 5,Group1-stimuli/group1-block1/fake-group2-b1/encoded_Group2_IMG_0364.jpg,0,encoded_Group2_IMG_0364.jpg,,,,,0.0,4.0,4.0,4.0,,,,,,,,,,,,,,,,,,,76.59264035499655,None,,,0,0.6319773059803993,79.04506112297531,None,79.04506112297531,None,,,77.87751322798431,None,,,,,1,2022_Mar_31_1004,Real-fake-judgement-flashing-group1,2021.1.2,59.98727982043373,
8,Trial # 6,Group1-stimuli/group1-block1/fake-group2-b1/encoded_Group2_IMG_0407.jpg,0,encoded_Group2_IMG_0407.jpg,,,,,0.0,5.0,5.0,5.0,,,,,,,,,,,,,,,,,,,79.69445911294315,None,,,1,1.7783565960125998,82.16278447594959,None,82.16278447594959,None,,,81.01119377301075,None,,,,,1,2022_Mar_31_1004,Real-fake-judgement-flashing-group1,2021.1.2,59.98727982043373,
9,Trial # 7,Group1-stimuli/group1-block1/real-group1-b1/Group1_IMG_0428.jpg,1,Group1_IMG_0428.jpg,,,,,0.0,6.0,6.0,6.0,,,,,,,,,,,,,,,,,,,83.96224047790747,None,,,0,1.398473895038478,86.4466338789789,None,86.4466338789789,None,,,85.26233713992406,None,,,,,1,2022_Mar_31_1004,Real-fake-judgement-flashing-group1,2021.1.2,59.98727982043373,
10,Trial # 8,Group1-stimuli/group1-block1/fake-group2-b1/encoded_Group2_IMG_0474.jpg,0,encoded_Group2_IMG_0474.jpg,,,,,0.0,7.0,7.0,7.0,,,,,,,,,,,,,,,,,,,87.86447657493409,None,,,0,0.4406688370509073,90.34847039100714,None,90.34847039100714,None,,,89.18048162292689,None,,,,,1,2022_Mar_31_1004,Real-fake-judgement-flashing-group1,2021.1.2,59.98727982043373,
11,Trial # 9,Group1-stimuli/group1-block1/fake-group2-b1/encoded_Group2_IMG_1506.jpg,0,encoded_Group2_IMG_1506.jpg,,,,,0.0,8.0,8.0,8.0,,,,,,,,,,,,,,,,,,,90.81443827901968,None,,,0,0.8981505240080878,93.28298489493318,None,93.28298489493318,None,,,92.13234623800963,None,,,,,1,2022_Mar_31_1004,Real-fake-judgement-flashing-group1,2021.1.2,59.98727982043373,
12,Trial # 10,Group1-stimuli/group1-block1/real-group1-b1/Group1_IMG_9789.jpg,1,Group1_IMG_9789.jpg,,,,,0.0,9.0,9.0,9.0,,,,,,,,,,,,,,,,,,,94.19920328597073,None,,,1,0.5704501540167257,96.6826943939086,None,96.6826943939086,None,,,95.51568353094626,None,,,,,1,2022_Mar_31_1004,Real-fake-judgement-flashing-group1,2021.1.2,59.98727982043373,
13,Trial # 11,Group1-stimuli/group1-block1/real-group1-b1/Group1_IMG_9778.jpg,1,Group1_IMG_9778.jpg,,,,,0.0,10.0,10.0,10.0,,,,,,,,,,,,,,,,,,,97.28358806995676,None,,,1,0.6539358430309221,99.76720604998992,None,99.76720604998992,None,,,98.59996570495423,None,,,,,1,2022_Mar_31_1004,Real-fake-judgement-flashing-group1,2021.1.2,59.98727982043373,
14,Trial # 12,Group1-stimuli/group1-block1/real-group1-b1/Group1_IMG_9813.jpg,1,Group1_IMG_9813.jpg,,,,,0.0,11.0,11.0,11.0,,,,,,,,,,,,,,,,,,,100.45079382800031,None,,,1,1.2537235210184008,102.91941919794772,None,102.91941919794772,None,,,101.75120410195086,None,,,,,1,2022_Mar_31_1004,Real-fake-judgement-flashing-group1,2021.1.2,59.98727982043373,
15,Trial # 13,Group1-stimuli/group1-block1/real-group1-b1/Group1_IMG_0516.jpg,1,Group1_IMG_0516.jpg,,,,,0.0,12.0,12.0,12.0,,,,,,,,,,,,,,,,,,,104.2019863469759,None,,,0,0.6159373290138319,106.66915158892516,None,106.66915158892516,None,,,105.50215724494774,None,,,,,1,2022_Mar_31_1004,Real-fake-judgement-flashing-group1,2021.1.2,59.98727982043373,
16,Trial # 14,Group1-stimuli/group1-block1/fake-group2-b1/encoded_Group2_IMG_0038.jpg,0,encoded_Group2_IMG_0038.jpg,,,,,0.0,13.0,13.0,13.0,,,,,,,,,,,,,,,,,,,107.30346475401892,None,,,0,1.1310855790507048,109.77002743096092,None,109.77002743096092,None,,,108.62085057899822,None,,,,,1,2022_Mar_31_1004,Real-fake-judgement-flashing-group1,2021.1.2,59.98727982043373,
17,Trial # 15,Group1-stimuli/group1-block1/real-group1-b1/Group1_IMG_5984.jpg,1,Group1_IMG_5984.jpg,,,,,0.0,14.0,14.0,14.0,,,,,,,,,,,,,,,,,,,110.9207770349458,None,,,1,1.3190725869499147,113.40599149197806,None,113.40599149197806,None,,,112.23807651293464,None,,,,,1,2022_Mar_31_1004,Real-fake-judgement-flashing-group1,2021.1.2,59.98727982043373,
18,Trial # 16,Group1-stimuli/group1-block1/real-group1-b1/Group1_IMG_0383.jpg,1,Group1_IMG_0383.jpg,,,,,0.0,15.0,15.0,15.0,,,,,,,,,,,,,,,,,,,114.75628942996264,None,,,1,0.8685644119977951,117.24047991796397,None,117.24047991796397,None,,,116.07202686497476,None,,,,,1,2022_Mar_31_1004,Real-fake-judgement-flashing-group1,2021.1.2,59.98727982043373,
19,Trial # 17,Group1-stimuli/group1-block1/fake-group2-b1/encoded_Group2_IMG_0456.jpg,0,encoded_Group2_IMG_0456.jpg,,,,,0.0,16.0,16.0,16.0,,,,,,,,,,,,,,,,,,,118.1397493169643,None,,,0,1.1654108609072864,120.62373823893722,None,120.62373823893722,None,,,119.45643724501133,None,,,,,1,2022_Mar_31_1004,Real-fake-judgement-flashing-group1,2021.1.2,59.98727982043373,
20,Trial # 18,Group1-stimuli/group1-block1/fake-group2-b1/encoded_Group2_IMG_8390.jpg,0,encoded_Group2_IMG_8390.jpg,,,,,0.0,17.0,17.0,17.0,,,,,,,,,,,,,,,,,,,121.806572131929,None,,,0,0.5059660479892045,124.2751766279107,None,124.2751766279107,None,,,123.10875459795352,None,,,,,1,2022_Mar_31_1004,Real-fake-judgement-flashing-group1,2021.1.2,59.98727982043373,
21,Trial # 19,Group1-stimuli/group1-block1/real-group1-b1/Group1_IMG_0011.jpg,1,Group1_IMG_0011.jpg,,,,,0.0,18.0,18.0,18.0,,,,,,,,,,,,,,,,,,,124.8080385569483,None,,,0,3.1675225789658725,127.29355585901068,None,127.29355585901068,None,,,126.12550378893502,None,,,,,1,2022_Mar_31_1004,Real-fake-judgement-flashing-group1,2021.1.2,59.98727982043373,
22,Trial # 20,Group1-stimuli/group1-block1/fake-group2-b1/encoded_Group2_IMG_0328.jpg,0,encoded_Group2_IMG_0328.jpg,,,,,0.0,19.0,19.0,19.0,,,,,,,,,,,,,,,,,,,130.4933496459853,None,,,1,1.9310507979243996,132.96210823697038,None,132.96210823697038,None,,,131.79332804493606,None,,,,,1,2022_Mar_31_1004,Real-fake-judgement-flashing-group1,2021.1.2,59.98727982043373,
23,Trial # 21,Group1-stimuli/group1-block1/fake-group2-b1/encoded_Group2_IMG_0163.jpg,0,encoded_Group2_IMG_0163.jpg,,,,,0.0,20.0,20.0,20.0,,,,,,,,,,,,,,,,,,,134.9111448629992,None,,,0,0.4649176941020414,137.3802286189748,None,137.3802286189748,None,,,136.21166598098353,None,,,,,1,2022_Mar_31_1004,Real-fake-judgement-flashing-group1,2021.1.2,59.98727982043373,
24,Trial # 22,Group1-stimuli/group1-block1/real-group1-b1/Group1_IMG_9862.jpg,1,Group1_IMG_9862.jpg,,,,,0.0,21.0,21.0,21.0,,,,,,,,,,,,,,,,,,,137.86265252297744,None,,,1,1.0986681330250576,140.34650572191458,None,140.34650572191458,None,,,139.16235209198203,None,,,,,1,2022_Mar_31_1004,Real-fake-judgement-flashing-group1,2021.1.2,59.98727982043373,
25,Trial # 23,Group1-stimuli/group1-block1/fake-group2-b1/encoded_Group2_IMG_0296.jpg,0,encoded_Group2_IMG_0296.jpg,,,,,0.0,22.0,22.0,22.0,,,,,,,,,,,,,,,,,,,141.46345007396303,None,,,0,0.7782930809771642,143.9308962529758,None,143.9308962529758,None,,,142.7648304529721,None,,,,,1,2022_Mar_31_1004,Real-fake-judgement-flashing-group1,2021.1.2,59.98727982043373,
26,Trial # 24,Group1-stimuli/group1-block1/fake-group2-b1/encoded_Group2_IMG_0503.jpg,0,encoded_Group2_IMG_0503.jpg,,,,,0.0,23.0,23.0,23.0,,,,,,,,,,,,,,,,,,,144.73110854590777,None,,,0,0.4222239429363981,147.19891830498818,None,147.19891830498818,None,,,146.03180786396842,None,,,,,1,2022_Mar_31_1004,Real-fake-judgement-flashing-group1,2021.1.2,59.98727982043373,
27,Trial # 25,Group1-stimuli/group1-block1/fake-group2-b1/encoded_Group2_IMG_9804.jpg,0,encoded_Group2_IMG_9804.jpg,,,,,0.0,24.0,24.0,24.0,,,,,,,,,,,,,,,,,,,147.64985194592737,None,,,1,0.4890445889905095,150.11611827497836,None,150.11611827497836,None,,,148.94899976497982,None,,,,,1,2022_Mar_31_1004,Real-fake-judgement-flashing-group1,2021.1.2,59.98727982043373,
28,Trial # 26,Group1-stimuli/group1-block1/real-group1-b1/Group1_IMG_0391.jpg,1,Group1_IMG_0391.jpg,,,,,0.0,25.0,25.0,25.0,,,,,,,,,,,,,,,,,,,150.63270134699997,None,,,0,0.9596895460272208,153.1174576189369,None,153.1174576189369,None,,,151.93384680896997,None,,,,,1,2022_Mar_31_1004,Real-fake-judgement-flashing-group1,2021.1.2,59.98727982043373,
29,Trial # 27,Group1-stimuli/group1-block1/fake-group2-b1/encoded_Group2_IMG_3584.jpg,0,encoded_Group2_IMG_3584.jpg,,,,,0.0,26.0,26.0,26.0,,,,,,,,,,,,,,,,,,,154.10158272401895,None,,,0,0.4283171721035614,156.58482597093098,None,156.58482597093098,None,,,155.4178251309786,None,,,,,1,2022_Mar_31_1004,Real-fake-judgement-flashing-group1,2021.1.2,59.98727982043373,
30,Trial # 28,Group1-stimuli/group1-block1/fake-group2-b1/encoded_Group2_IMG_0434.jpg,0,encoded_Group2_IMG_0434.jpg,,,,,0.0,27.0,27.0,27.0,,,,,,,,,,,,,,,,,,,157.03518114890903,None,,,0,0.3509239399572834,159.50215338892303,None,159.50215338892303,None,,,158.33622712397482,None,,,,,1,2022_Mar_31_1004,Real-fake-judgement-flashing-group1,2021.1.2,59.98727982043373,
31,Trial # 29,Group1-stimuli/group1-block1/fake-group2-b1/encoded_Group2_IMG_9575.jpg,0,encoded_Group2_IMG_9575.jpg,,,,,0.0,28.0,28.0,28.0,,,,,,,,,,,,,,,,,,,159.88575177895837,None,,,0,0.2587891549337655,162.37034963199403,None,162.37034963199403,None,,,161.2025143969804,None,,,,,1,2022_Mar_31_1004,Real-fake-judgement-flashing-group1,2021.1.2,59.98727982043373,
32,Trial # 30,Group1-stimuli/group1-block1/fake-group2-b1/encoded_Group2_IMG_1025.jpg,0,encoded_Group2_IMG_1025.jpg,,,,,0.0,29.0,29.0,29.0,,,,,,,,,,,,,,,,,,,162.6544602359645,None,,,0,0.2684023650363087,165.12078665092122,None,165.12078665092122,None,,,163.95347937301267,None,,,,,1,2022_Mar_31_1004,Real-fake-judgement-flashing-group1,2021.1.2,59.98727982043373,
33,Trial # 31,Group1-stimuli/group1-block1/real-group1-b1/Group1_IMG_0502.jpg,1,Group1_IMG_0502.jpg,,,,,0.0,30.0,30.0,30.0,,,,,,,,,,,,,,,,,,,165.42144477297552,None,,,1,2.2604369870387018,167.88870355300605,None,167.88870355300605,None,,,166.73704601801,None,,,,,1,2022_Mar_31_1004,Real-fake-judgement-flashing-group1,2021.1.2,59.98727982043373,
34,Trial # 32,Group1-stimuli/group1-block1/real-group1-b1/Group1_IMG_0182.jpg,1,Group1_IMG_0182.jpg,,,,,0.0,31.0,31.0,31.0,,,,,,,,,,,,,,,,,,,170.1724506249884,None,,,0,1.028187280986458,172.64096322096884,None,172.64096322096884,None,,,171.48891373793595,None,,,,,1,2022_Mar_31_1004,Real-fake-judgement-flashing-group1,2021.1.2,59.98727982043373,
35,Trial # 33,Group1-stimuli/group1-block1/fake-group2-b1/encoded_Group2_IMG_2728.jpg,0,encoded_Group2_IMG_2728.jpg,,,,,0.0,32.0,32.0,32.0,,,,,,,,,,,,,,,,,,,173.68993457499892,None,,,1,0.5037207420682535,176.15741181990597,None,176.15741181990597,None,,,174.99047563993372,None,,,,,1,2022_Mar_31_1004,Real-fake-judgement-flashing-group1,2021.1.2,59.98727982043373,
36,Trial # 34,Group1-stimuli/group1-block1/fake-group2-b1/encoded_Group2_IMG_4867.jpg,0,encoded_Group2_IMG_4867.jpg,,,,,0.0,33.0,33.0,33.0,,,,,,,,,,,,,,,,,,,176.69051869295072,None,,,0,0.9980143280699848,179.17505920596886,None,179.17505920596886,None,,,177.9925519740209,None,,,,,1,2022_Mar_31_1004,Real-fake-judgement-flashing-group1,2021.1.2,59.98727982043373,
37,Trial # 35,Group1-stimuli/group1-block1/real-group1-b1/Group1_IMG_9894.jpg,1,Group1_IMG_9894.jpg,,,,,0.0,34.0,34.0,34.0,,,,,,,,,,,,,,,,,,,180.19152284995653,None,,,0,1.0244544260203838,182.6606867489172,None,182.6606867489172,None,,,181.4919408269925,None,,,,,1,2022_Mar_31_1004,Real-fake-judgement-flashing-group1,2021.1.2,59.98727982043373,
38,Trial # 36,Group1-stimuli/group1-block1/fake-group2-b1/encoded_Group2_IMG_0444.jpg,0,encoded_Group2_IMG_0444.jpg,,,,,0.0,35.0,35.0,35.0,,,,,,,,,,,,,,,,,,,183.7109217980178,None,,,1,1.6841973810223865,186.1769070000155,None,186.1769070000155,None,,,185.0107218939811,None,,,,,1,2022_Mar_31_1004,Real-fake-judgement-flashing-group1,2021.1.2,59.98727982043373,
39,Trial # 37,Group1-stimuli/group1-block1/real-group1-b1/Group1_IMG_2656.jpg,1,Group1_IMG_2656.jpg,,,,,0.0,36.0,36.0,36.0,,,,,,,,,,,,,,,,,,,187.8779128639726,None,,,0,3.5552016989095137,190.3619455579901,None,190.3619455579901,None,,,189.19488704192918,None,,,,,1,2022_Mar_31_1004,Real-fake-judgement-flashing-group1,2021.1.2,59.98727982043373,
40,Trial # 38,Group1-stimuli/group1-block1/real-group1-b1/Group1_IMG_0207.jpg,1,Group1_IMG_0207.jpg,,,,,0.0,37.0,37.0,37.0,,,,,,,,,,,,,,,,,,,193.94605519401372,None,,,1,4.599939584964886,196.41311093291733,None,196.41311093291733,None,,,195.3130658309674,None,,,,,1,2022_Mar_31_1004,Real-fake-judgement-flashing-group1,2021.1.2,59.98727982043373,
41,Trial # 39,Group1-stimuli/group1-block1/real-group1-b1/Group1_IMG_9638.jpg,1,Group1_IMG_9638.jpg,,,,,0.0,38.0,38.0,38.0,,,,,,,,,,,,,,,,,,,201.03137052501552,None,,,1,2.209200714016333,203.49994145694652,None,203.49994145694652,None,,,202.33247719693463,None,,,,,1,2022_Mar_31_1004,Real-fake-judgement-flashing-group1,2021.1.2,59.98727982043373,
42,Trial # 40,Group1-stimuli/group1-block1/real-group1-b1/Group1_IMG_0148.jpg,1,Group1_IMG_0148.jpg,,,,,0.0,39.0,39.0,39.0,,,,,,,,,,,,,,,,,,,205.73272176098544,None,,,0,7.987838155939244,208.20131145894996,None,208.20131145894996,None,,,207.03482305200305,None,,,,,1,2022_Mar_31_1004,Real-fake-judgement-flashing-group1,2021.1.2,59.98727982043373,
43,Trial # 41,Group1-stimuli/group1-block1/real-group1-b1/Group1_IMG_2891.jpg,1,Group1_IMG_2891.jpg,,,,,0.0,40.0,40.0,40.0,,,,,,,,,,,,,,,,,,,216.2197767579928,None,,,1,1.3011991620296612,218.703877086984,None,218.703877086984,None,,,217.57137983397115,None,,,,,1,2022_Mar_31_1004,Real-fake-judgement-flashing-group1,2021.1.2,59.98727982043373,
44,Trial # 42,Group1-stimuli/group1-block1/real-group1-b1/Group1_IMG_0157.jpg,1,Group1_IMG_0157.jpg,,,,,0.0,41.0,41.0,41.0,,,,,,,,,,,,,,,,,,,220.03749875701035,None,,,0,2.483426572056487,222.50571856601164,None,222.50571856601164,None,,,221.35476863093209,None,,,,,1,2022_Mar_31_1004,Real-fake-judgement-flashing-group1,2021.1.2,59.98727982043373,
45,Trial # 43,Group1-stimuli/group1-block1/real-group1-b1/Group1_IMG_9833.jpg,1,Group1_IMG_9833.jpg,,,,,0.0,42.0,42.0,42.0,,,,,,,,,,,,,,,,,,,225.00581517396492,None,,,0,0.7228229159954935,227.4743868499063,None,227.4743868499063,None,,,226.32223884493578,None,,,,,1,2022_Mar_31_1004,Real-fake-judgement-flashing-group1,2021.1.2,59.98727982043373,
46,Trial # 44,Group1-stimuli/group1-block1/fake-group2-b1/encoded_Group2_IMG_2230.jpg,0,encoded_Group2_IMG_2230.jpg,,,,,0.0,43.0,43.0,43.0,,,,,,,,,,,,,,,,,,,228.22466803598215,None,,,0,2.2809613230638206,230.7241879599169,None,230.7241879599169,None,,,229.54064246895723,None,,,,,1,2022_Mar_31_1004,Real-fake-judgement-flashing-group1,2021.1.2,59.98727982043373,
47,Trial # 45,Group1-stimuli/group1-block1/real-group1-b1/Group1_IMG_9966.jpg,1,Group1_IMG_9966.jpg,,,,,0.0,44.0,44.0,44.0,,,,,,,,,,,,,,,,,,,233.02654183993585,None,,,0,0.5119110639207065,235.50928006193132,None,235.50928006193132,None,,,234.34186687890906,None,,,,,1,2022_Mar_31_1004,Real-fake-judgement-flashing-group1,2021.1.2,59.98727982043373,
48,Trial # 46,Group1-stimuli/group1-block1/real-group1-b1/Group1_IMG_0239.jpg,1,Group1_IMG_0239.jpg,,,,,0.0,45.0,45.0,45.0,,,,,,,,,,,,,,,,,,,236.04327794990968,None,,,0,0.3263128149555996,238.52683607395736,None,238.52683607395736,None,,,237.3438364439644,None,,,,,1,2022_Mar_31_1004,Real-fake-judgement-flashing-group1,2021.1.2,59.98727982043373,
49,Trial # 47,Group1-stimuli/group1-block1/fake-group2-b1/encoded_Group2_IMG_0536.jpg,0,encoded_Group2_IMG_0536.jpg,,,,,0.0,46.0,46.0,46.0,,,,,,,,,,,,,,,,,,,238.87666125991385,None,,,0,0.4839967639418319,241.3610853459686,None,241.3610853459686,None,,,240.19361684296746,None,,,,,1,2022_Mar_31_1004,Real-fake-judgement-flashing-group1,2021.1.2,59.98727982043373,
50,Trial # 48,Group1-stimuli/group1-block1/fake-group2-b1/encoded_Group2_IMG_0521.jpg,0,encoded_Group2_IMG_0521.jpg,,,,,0.0,47.0,47.0,47.0,,,,,,,,,,,,,,,,,,,241.87903916591316,None,,,0,0.4510599370114505,244.36202001594935,None,244.36202001594935,None,,,243.19585223391186,None,,,,,1,2022_Mar_31_1004,Real-fake-judgement-flashing-group1,2021.1.2,59.98727982043373,
51,Trial # 49,Group1-stimuli/group1-block1/fake-group2-b1/encoded_Group2_IMG_9924.jpg,0,encoded_Group2_IMG_9924.jpg,,,,,0.0,48.0,48.0,48.0,,,,,,,,,,,,,,,,,,,244.8464222669136,None,,,0,0.523442619945854,247.32969762093853,None,247.32969762093853,None,,,246.14546921197325,None,,,,,1,2022_Mar_31_1004,Real-fake-judgement-flashing-group1,2021.1.2,59.98727982043373,
52,Trial # 50,Group1-stimuli/group1-block1/real-group1-b1/Group1_IMG_9730.jpg,1,Group1_IMG_9730.jpg,,,,,0.0,49.0,49.0,49.0,,,,,,,,,,,,,,,,,,,247.88053173897788,None,,,0,1.505474639008753,250.36367456894368,None,250.36367456894368,None,,,249.26318423100747,None,,,,,1,2022_Mar_31_1004,Real-fake-judgement-flashing-group1,2021.1.2,59.98727982043373,
53,Trial # 51,Group1-stimuli/group1-block1/real-group1-b1/Group1_IMG_0053.jpg,1,Group1_IMG_0053.jpg,,,,,0.0,50.0,50.0,50.0,,,,,,,,,,,,,,,,,,,251.8987868919503,None,,,1,6.16756630805321,254.38159627991263,None,254.38159627991263,None,,,253.2157077199081,None,,,,,1,2022_Mar_31_1004,Real-fake-judgement-flashing-group1,2021.1.2,59.98727982043373,
54,Trial # 52,Group1-stimuli/group1-block1/real-group1-b1/Group1_IMG_9698.jpg,1,Group1_IMG_9698.jpg,,,,,0.0,51.0,51.0,51.0,,,,,,,,,,,,,,,,,,,260.5668785870075,None,,,0,1.673792972927913,263.05135950795375,None,263.05135950795375,None,,,261.8851265149424,None,,,,,1,2022_Mar_31_1004,Real-fake-judgement-flashing-group1,2021.1.2,59.98727982043373,
55,Trial # 53,Group1-stimuli/group1-block1/fake-group2-b1/encoded_Group2_IMG_0553.jpg,0,encoded_Group2_IMG_0553.jpg,,,,,0.0,52.0,52.0,52.0,,,,,,,,,,,,,,,,,,,264.7514376549516,None,,,0,12.777900453074835,267.2192501949612,None,267.2192501949612,None,,,266.0684705929598,None,,,,,1,2022_Mar_31_1004,Real-fake-judgement-flashing-group1,2021.1.2,59.98727982043373,
56,Trial # 54,Group1-stimuli/group1-block1/fake-group2-b1/encoded_Group2_IMG_9758.jpg,0,encoded_Group2_IMG_9758.jpg,,,,,0.0,53.0,53.0,53.0,,,,,,,,,,,,,,,,,,,280.02252748201136,None,,,0,1.0100367770064622,282.491117636906,None,282.491117636906,None,,,281.33983698498923,None,,,,,1,2022_Mar_31_1004,Real-fake-judgement-flashing-group1,2021.1.2,59.98727982043373,
57,Trial # 55,Group1-stimuli/group1-block1/fake-group2-b1/encoded_Group2_IMG_0339.jpg,0,encoded_Group2_IMG_0339.jpg,,,,,0.0,54.0,54.0,54.0,,,,,,,,,,,,,,,,,,,283.52427383500617,None,,,0,0.4051896440796554,286.00795259699225,None,286.00795259699225,None,,,284.8410557350144,None,,,,,1,2022_Mar_31_1004,Real-fake-judgement-flashing-group1,2021.1.2,59.98727982043373,
58,Trial # 56,Group1-stimuli/group1-block1/real-group1-b1/Group1_IMG_0314.jpg,1,Group1_IMG_0314.jpg,,,,,0.0,55.0,55.0,55.0,,,,,,,,,,,,,,,,,,,286.4412811360089,None,,,1,0.48809669399634,288.90905172994826,None,288.90905172994826,None,,,287.759818441933,None,,,,,1,2022_Mar_31_1004,Real-fake-judgement-flashing-group1,2021.1.2,59.98727982043373,
59,Trial # 57,Group1-stimuli/group1-block1/fake-group2-b1/encoded_Group2_IMG_0532.jpg,0,encoded_Group2_IMG_0532.jpg,,,,,0.0,56.0,56.0,56.0,,,,,,,,,,,,,,,,,,,289.4262814059621,None,,,0,0.3027016130508855,291.91042803192977,None,291.91042803192977,None,,,290.7427107099211,None,,,,,1,2022_Mar_31_1004,Real-fake-judgement-flashing-group1,2021.1.2,59.98727982043373,
60,Trial # 58,Group1-stimuli/group1-block1/fake-group2-b1/encoded_Group2_IMG_0462.jpg,0,encoded_Group2_IMG_0462.jpg,,,,,0.0,57.0,57.0,57.0,,,,,,,,,,,,,,,,,,,292.2440601439448,None,,,0,587.0128768000286,294.7282695299946,None,294.7282695299946,None,,,293.59472367190756,None,,,,,1,2022_Mar_31_1004,Real-fake-judgement-flashing-group1,2021.1.2,59.98727982043373,
61,Trial # 59,Group1-stimuli/group1-block1/real-group1-b1/Group1_IMG_0172.jpg,1,Group1_IMG_0172.jpg,,,,,0.0,58.0,58.0,58.0,,,,,,,,,,,,,,,,,,,881.7586552029243,None,,,0,4.090253617032431,884.226913150982,None,884.226913150982,None,,,883.1106285969727,None,,,,,1,2022_Mar_31_1004,Real-fake-judgement-flashing-group1,2021.1.2,59.98727982043373,
62,Trial # 60,Group1-stimuli/group1-block1/real-group1-b1/Group1_IMG_4841.jpg,1,Group1_IMG_4841.jpg,,,,,0.0,59.0,59.0,59.0,,,,,,,,,,,,,,,,,,,888.3457565449644,None,,,0,1.7605514619499445,890.8285888719838,None,890.8285888719838,None,,,889.6614736759802,None,,,,,1,2022_Mar_31_1004,Real-fake-judgement-flashing-group1,2021.1.2,59.98727982043373,
63,Trial # 61,Group1-stimuli/group1-block1/fake-group2-b1/encoded_Group2_IMG_0352.jpg,0,encoded_Group2_IMG_0352.jpg,,,,,0.0,60.0,60.0,60.0,,,,,,,,,,,,,,,,,,,892.6120130169438,None,,,1,0.8046174379996955,895.0965332440101,None,895.0965332440101,None,,,893.9305914950091,None,,,,,1,2022_Mar_31_1004,Real-fake-judgement-flashing-group1,2021.1.2,59.98727982043373,
64,Trial # 62,Group1-stimuli/group1-block1/fake-group2-b1/encoded_Group2_IMG_9726.jpg,0,encoded_Group2_IMG_9726.jpg,,,,,0.0,61.0,61.0,61.0,,,,,,,,,,,,,,,,,,,895.9297475349158,None,,,0,4.317529672058299,898.4155707670143,None,898.4155707670143,None,,,897.2470364719629,None,,,,,1,2022_Mar_31_1004,Real-fake-judgement-flashing-group1,2021.1.2,59.98727982043373,
65,Trial # 63,Group1-stimuli/group1-block1/fake-group2-b1/encoded_Group2_IMG_9785.jpg,0,encoded_Group2_IMG_9785.jpg,,,,,0.0,62.0,62.0,62.0,,,,,,,,,,,,,,,,,,,902.765568029019,None,,,1,0.5168302329257131,905.2162398949732,None,905.2162398949732,None,,,904.05034474493,None,,,,,1,2022_Mar_31_1004,Real-fake-judgement-flashing-group1,2021.1.2,59.98727982043373,
66,Trial # 64,Group1-stimuli/group1-block1/fake-group2-b1/encoded_Group2_IMG_0440.jpg,0,encoded_Group2_IMG_0440.jpg,,,,,0.0,63.0,63.0,63.0,,,,,,,,,,,,,,,,,,,905.7670163899892,None,,,0,0.3779980329563841,908.235174353933,None,908.235174353933,None,,,907.0667998539284,None,,,,,1,2022_Mar_31_1004,Real-fake-judgement-flashing-group1,2021.1.2,59.98727982043373,
67,Trial # 65,Group1-stimuli/group1-block1/fake-group2-b1/encoded_Group2_IMG_1695.jpg,0,encoded_Group2_IMG_1695.jpg,,,,,0.0,64.0,64.0,64.0,,,,,,,,,,,,,,,,,,,908.6354537809966,None,,,0,0.3116839079884812,911.101472617942,None,911.101472617942,None,,,909.934357917984,None,,,,,1,2022_Mar_31_1004,Real-fake-judgement-flashing-group1,2021.1.2,59.98727982043373,
68,Trial # 66,Group1-stimuli/group1-block1/real-group1-b1/Group1_IMG_0552.jpg,1,Group1_IMG_0552.jpg,,,,,0.0,65.0,65.0,65.0,,,,,,,,,,,,,,,,,,,911.4349350569536,None,,,0,19.357771891052835,913.9033703609604,None,913.9033703609604,None,,,912.7518399459077,None,,,,,1,2022_Mar_31_1004,Real-fake-judgement-flashing-group1,2021.1.2,59.98727982043373,
69,Trial # 67,Group1-stimuli/group1-block1/real-group1-b1/Group1_IMG_1029.jpg,1,Group1_IMG_1029.jpg,,,,,0.0,66.0,66.0,66.0,,,,,,,,,,,,,,,,,,,933.2926456249552,None,,,0,0.532956363982521,935.7601378689288,None,935.7601378689288,None,,,934.5929598619696,None,,,,,1,2022_Mar_31_1004,Real-fake-judgement-flashing-group1,2021.1.2,59.98727982043373,
70,Trial # 68,Group1-stimuli/group1-block1/fake-group2-b1/encoded_Group2_IMG_6517.jpg,0,encoded_Group2_IMG_6517.jpg,,,,,0.0,67.0,67.0,67.0,,,,,,,,,,,,,,,,,,,936.3256813299377,None,,,0,0.9698249680222945,938.8113024589838,None,938.8113024589838,None,,,937.6426058659563,None,,,,,1,2022_Mar_31_1004,Real-fake-judgement-flashing-group1,2021.1.2,59.98727982043373,
71,Trial # 69,Group1-stimuli/group1-block1/fake-group2-b1/encoded_Group2_IMG_0002.jpg,0,encoded_Group2_IMG_0002.jpg,,,,,0.0,68.0,68.0,68.0,,,,,,,,,,,,,,,,,,,939.8112104230096,None,,,0,0.2077244259417057,942.2774456780172,None,942.2774456780172,None,,,941.1111190950032,None,,,,,1,2022_Mar_31_1004,Real-fake-judgement-flashing-group1,2021.1.2,59.98727982043373,
72,Trial # 70,Group1-stimuli/group1-block1/real-group1-b1/Group1_IMG_0495.jpg,1,Group1_IMG_0495.jpg,,,,,0.0,69.0,69.0,69.0,,,,,,,,,,,,,,,,,,,942.5110377959209,None,,,0,2.057845144998282,944.9953088089824,None,944.9953088089824,None,,,943.829261737992,None,,,,,1,2022_Mar_31_1004,Real-fake-judgement-flashing-group1,2021.1.2,59.98727982043373,
73,Trial # 71,Group1-stimuli/group1-block1/real-group1-b1/Group1_IMG_1391.jpg,1,Group1_IMG_1391.jpg,,,,,0.0,70.0,70.0,70.0,,,,,,,,,,,,,,,,,,,947.07959793997,None,,,0,3.554419618914835,949.5467176089296,None,949.5467176089296,None,,,948.3969495079946,None,,,,,1,2022_Mar_31_1004,Real-fake-judgement-flashing-group1,2021.1.2,59.98727982043373,
74,Trial # 72,Group1-stimuli/group1-block1/real-group1-b1/Group1_IMG_0343.jpg,1,Group1_IMG_0343.jpg,,,,,0.0,71.0,71.0,71.0,,,,,,,,,,,,,,,,,,,953.1323668989352,None,,,1,0.7340246359817684,955.6150524319382,None,955.6150524319382,None,,,954.4492448389065,None,,,,,1,2022_Mar_31_1004,Real-fake-judgement-flashing-group1,2021.1.2,59.98727982043373,
75,Trial # 73,Group1-stimuli/group1-block1/fake-group2-b1/encoded_Group2_IMG_9810.jpg,0,encoded_Group2_IMG_9810.jpg,,,,,0.0,72.0,72.0,72.0,,,,,,,,,,,,,,,,,,,956.3819534369976,None,,,0,1.1790738640120253,958.850092253997,None,958.850092253997,None,,,957.6824055740144,None,,,,,1,2022_Mar_31_1004,Real-fake-judgement-flashing-group1,2021.1.2,59.98727982043373,
76,Trial # 74,Group1-stimuli/group1-block1/fake-group2-b1/encoded_Group2_IMG_5900.jpg,0,encoded_Group2_IMG_5900.jpg,,,,,0.0,73.0,73.0,73.0,,,,,,,,,,,,,,,,,,,960.049940700992,None,,,0,0.5918485600268468,962.5173685819608,None,962.5173685819608,None,,,961.350026117987,None,,,,,1,2022_Mar_31_1004,Real-fake-judgement-flashing-group1,2021.1.2,59.98727982043373,
77,Trial # 75,Group1-stimuli/group1-block1/real-group1-b1/Group1_IMG_9679.jpg,1,Group1_IMG_9679.jpg,,,,,0.0,74.0,74.0,74.0,,,,,,,,,,,,,,,,,,,963.1355680009584,None,,,0,0.2830501169664785,965.6180858829756,None,965.6180858829756,None,,,964.46917127294,None,,,,,1,2022_Mar_31_1004,Real-fake-judgement-flashing-group1,2021.1.2,59.98727982043373,
78,Trial # 76,Group1-stimuli/group1-block1/fake-group2-b1/encoded_Group2_IMG_4249.jpg,0,encoded_Group2_IMG_4249.jpg,,,,,0.0,75.0,75.0,75.0,,,,,,,,,,,,,,,,,,,965.9184913960052,None,,,0,0.2500549539690837,968.3870230249596,None,968.3870230249596,None,,,967.2187326939311,None,,,,,1,2022_Mar_31_1004,Real-fake-judgement-flashing-group1,2021.1.2,59.98727982043373,
79,Trial # 77,Group1-stimuli/group1-block1/fake-group2-b1/encoded_Group2_IMG_0174.jpg,0,encoded_Group2_IMG_0174.jpg,,,,,0.0,76.0,76.0,76.0,,,,,,,,,,,,,,,,,,,968.6702429800062,None,,,1,0.3323379149660468,971.1368110079784,None,971.1368110079784,None,,,969.9695048149442,None,,,,,1,2022_Mar_31_1004,Real-fake-judgement-flashing-group1,2021.1.2,59.98727982043373,
80,Trial # 78,Group1-stimuli/group1-block1/fake-group2-b1/encoded_Group2_IMG_0475.jpg,0,encoded_Group2_IMG_0475.jpg,,,,,0.0,77.0,77.0,77.0,,,,,,,,,,,,,,,,,,,971.4874916649424,None,,,0,0.8905862780520692,973.9385552569292,None,973.9385552569292,None,,,972.7701852109749,None,,,,,1,2022_Mar_31_1004,Real-fake-judgement-flashing-group1,2021.1.2,59.98727982043373,
81,Trial # 79,Group1-stimuli/group1-block1/fake-group2-b1/encoded_Group2_IMG_9751.jpg,0,encoded_Group2_IMG_9751.jpg,,,,,0.0,78.0,78.0,78.0,,,,,,,,,,,,,,,,,,,974.8548232349568,None,,,0,0.4911042270250618,977.3220368860055,None,977.3220368860055,None,,,976.1548369369702,None,,,,,1,2022_Mar_31_1004,Real-fake-judgement-flashing-group1,2021.1.2,59.98727982043373,
82,Trial # 80,Group1-stimuli/group1-block1/fake-group2-b1/encoded_Group2_IMG_0492.jpg,0,encoded_Group2_IMG_0492.jpg,,,,,0.0,79.0,79.0,79.0,,,,,,,,,,,,,,,,,,,977.8388087300118,None,,,0,0.610645800945349,980.306494048913,None,980.306494048913,None,,,979.1398926399415,None,,,,,1,2022_Mar_31_1004,Real-fake-judgement-flashing-group1,2021.1.2,59.98727982043373,
83,Trial # 81,Group1-stimuli/group1-block1/real-group1-b1/Group1_IMG_0535.jpg,1,Group1_IMG_0535.jpg,,,,,0.0,80.0,80.0,80.0,,,,,,,,,,,,,,,,,,,980.9406841859454,None,,,0,0.8049103199737146,983.4082191759952,None,983.4082191759952,None,,,982.2565763359889,None,,,,,1,2022_Mar_31_1004,Real-fake-judgement-flashing-group1,2021.1.2,59.98727982043373,
84,Trial # 82,Group1-stimuli/group1-block1/real-group1-b1/Group1_IMG_0077.jpg,1,Group1_IMG_0077.jpg,,,,,0.0,81.0,81.0,81.0,,,,,,,,,,,,,,,,,,,984.2419885370182,None,,,0,0.3605030990438536,986.7246366249165,None,986.7246366249165,None,,,985.5741378979292,None,,,,,1,2022_Mar_31_1004,Real-fake-judgement-flashing-group1,2021.1.2,59.98727982043373,
85,Trial # 83,Group1-stimuli/group1-block1/fake-group2-b1/encoded_Group2_IMG_9702.jpg,0,encoded_Group2_IMG_9702.jpg,,,,,0.0,82.0,82.0,82.0,,,,,,,,,,,,,,,,,,,987.10880564095,None,,,0,0.3318932839902118,989.5932482049102,None,989.5932482049102,None,,,988.4264136439888,None,,,,,1,2022_Mar_31_1004,Real-fake-judgement-flashing-group1,2021.1.2,59.98727982043373,
86,Trial # 84,Group1-stimuli/group1-block1/real-group1-b1/Group1_IMG_0357.jpg,1,Group1_IMG_0357.jpg,,,,,0.0,83.0,83.0,83.0,,,,,,,,,,,,,,,,,,,989.9426573339152,None,,,0,0.4673438119934872,992.4098080099792,None,992.4098080099792,None,,,991.2593607859453,None,,,,,1,2022_Mar_31_1004,Real-fake-judgement-flashing-group1,2021.1.2,59.98727982043373,
87,Trial # 85,Group1-stimuli/group1-block1/real-group1-b1/Group1_IMG_9772.jpg,1,Group1_IMG_9772.jpg,,,,,0.0,84.0,84.0,84.0,,,,,,,,,,,,,,,,,,,992.8937333819922,None,,,1,0.9874248380074278,995.3777169350068,None,995.3777169350068,None,,,994.2115772359539,None,,,,,1,2022_Mar_31_1004,Real-fake-judgement-flashing-group1,2021.1.2,59.98727982043373,
88,Trial # 86,Group1-stimuli/group1-block1/real-group1-b1/Group1_IMG_0482.jpg,1,Group1_IMG_0482.jpg,,,,,0.0,85.0,85.0,85.0,,,,,,,,,,,,,,,,,,,996.3942154159304,None,,,1,0.6628943970426917,998.8622854360146,None,998.8622854360146,None,,,997.7109080179362,None,,,,,1,2022_Mar_31_1004,Real-fake-judgement-flashing-group1,2021.1.2,59.98727982043373,
89,Trial # 87,Group1-stimuli/group1-block1/real-group1-b1/Group1_IMG_0299.jpg,1,Group1_IMG_0299.jpg,,,,,0.0,86.0,86.0,86.0,,,,,,,,,,,,,,,,,,,999.5465919059934,None,,,0,0.4562537859892472,1002.0128726760158,None,1002.0128726760158,None,,,1000.8455593159888,None,,,,,1,2022_Mar_31_1004,Real-fake-judgement-flashing-group1,2021.1.2,59.98727982043373,
90,Trial # 88,Group1-stimuli/group1-block1/fake-group2-b1/encoded_Group2_IMG_0301.jpg,0,encoded_Group2_IMG_0301.jpg,,,,,0.0,87.0,87.0,87.0,,,,,,,,,,,,,,,,,,,1002.4957995519508,None,,,0,0.3372449519811198,1004.9639146259289,None,1004.9639146259289,None,,,1003.7970205129823,None,,,,,1,2022_Mar_31_1004,Real-fake-judgement-flashing-group1,2021.1.2,59.98727982043373,
91,Trial # 89,Group1-stimuli/group1-block1/fake-group2-b1/encoded_Group2_IMG_5136.jpg,0,encoded_Group2_IMG_5136.jpg,,,,,0.0,88.0,88.0,88.0,,,,,,,,,,,,,,,,,,,1005.330475669005,None,,,0,1.263237213017419,1007.7979156270158,None,1007.7979156270158,None,,,1006.6310830339789,None,,,,,1,2022_Mar_31_1004,Real-fake-judgement-flashing-group1,2021.1.2,59.98727982043373,
92,Trial # 90,Group1-stimuli/group1-block1/real-group1-b1/Group1_IMG_0460.jpg,1,Group1_IMG_0460.jpg,,,,,0.0,89.0,89.0,89.0,,,,,,,,,,,,,,,,,,,1009.0825768749928,None,,,0,0.151835662079975,1011.565234400914,None,1011.565234400914,None,,,1010.398607015959,None,,,,,1,2022_Mar_31_1004,Real-fake-judgement-flashing-group1,2021.1.2,59.98727982043373,
93,Trial # 91,Group1-stimuli/group1-block1/fake-group2-b1/encoded_Group2_IMG_0068.jpg,0,encoded_Group2_IMG_0068.jpg,,,,,0.0,90.0,90.0,90.0,,,,,,,,,,,,,,,,,,,1011.7492665209576,None,,,0,0.778662440017797,1014.2344967499376,None,1014.2344967499376,None,,,1013.050643792958,None,,,,,1,2022_Mar_31_1004,Real-fake-judgement-flashing-group1,2021.1.2,59.98727982043373,
94,Trial # 92,Group1-stimuli/group1-block1/real-group1-b1/Group1_IMG_0337.jpg,1,Group1_IMG_0337.jpg,,,,,0.0,91.0,91.0,91.0,,,,,,,,,,,,,,,,,,,1015.0337378529366,None,,,1,0.488344999961555,1017.5007975859336,None,1017.5007975859336,None,,,1016.3337187949801,None,,,,,1,2022_Mar_31_1004,Real-fake-judgement-flashing-group1,2021.1.2,59.98727982043373,
95,Trial # 93,Group1-stimuli/group1-block1/fake-group2-b1/encoded_Group2_IMG_0346.jpg,0,encoded_Group2_IMG_0346.jpg,,,,,0.0,92.0,92.0,92.0,,,,,,,,,,,,,,,,,,,1018.0188521610108,None,,,1,0.4707152100745588,1020.4864139580168,None,1020.4864139580168,None,,,1019.3182636220008,None,,,,,1,2022_Mar_31_1004,Real-fake-judgement-flashing-group1,2021.1.2,59.98727982043373,
96,Trial # 94,Group1-stimuli/group1-block1/real-group1-b1/Group1_IMG_4253.jpg,1,Group1_IMG_4253.jpg,,,,,0.0,93.0,93.0,93.0,,,,,,,,,,,,,,,,,,,1020.9850922609912,None,,,0,0.2713347560493275,1023.4538240379188,None,1023.4538240379188,None,,,1022.3023561579175,None,,,,,1,2022_Mar_31_1004,Real-fake-judgement-flashing-group1,2021.1.2,59.98727982043373,
97,Trial # 95,Group1-stimuli/group1-block1/fake-group2-b1/encoded_Group2_IMG_9280.jpg,0,encoded_Group2_IMG_9280.jpg,,,,,0.0,94.0,94.0,94.0,,,,,,,,,,,,,,,,,,,1023.7544186729938,None,,,0,0.4643081609392538,1026.2208786539268,None,1026.2208786539268,None,,,1025.053079699981,None,,,,,1,2022_Mar_31_1004,Real-fake-judgement-flashing-group1,2021.1.2,59.98727982043373,
98,Trial # 96,Group1-stimuli/group1-block1/real-group1-b1/Group1_IMG_0417.jpg,1,Group1_IMG_0417.jpg,,,,,0.0,95.0,95.0,95.0,,,,,,,,,,,,,,,,,,,1026.7040791199545,None,,,0,0.2562282599974423,1029.1889127809554,None,1029.1889127809554,None,,,1028.0221480689943,None,,,,,1,2022_Mar_31_1004,Real-fake-judgement-flashing-group1,2021.1.2,59.98727982043373,
99,Trial # 97,Group1-stimuli/group1-block1/fake-group2-b1/encoded_Group2_IMG_9695.jpg,0,encoded_Group2_IMG_9695.jpg,,,,,0.0,96.0,96.0,96.0,,,,,,,,,,,,,,,,,,,1029.4724701020168,None,,,1,1.2103064929833636,1031.938835246954,None,1031.938835246954,None,,,1030.771729554981,None,,,,,1,2022_Mar_31_1004,Real-fake-judgement-flashing-group1,2021.1.2,59.98727982043373,
100,Trial # 98,Group1-stimuli/group1-block1/real-group1-b1/Group1_IMG_1160.jpg,1,Group1_IMG_1160.jpg,,,,,0.0,97.0,97.0,97.0,,,,,,,,,,,,,,,,,,,1033.1726892769802,None,,,0,0.1085985789541155,1035.6565615059808,None,1035.6565615059808,None,,,1034.490358026931,None,,,,,1,2022_Mar_31_1004,Real-fake-judgement-flashing-group1,2021.1.2,59.98727982043373,
101,Trial # 99,Group1-stimuli/group1-block1/real-group1-b1/Group1_IMG_0448.jpg,1,Group1_IMG_0448.jpg,,,,,0.0,98.0,98.0,98.0,,,,,,,,,,,,,,,,,,,1035.789625386009,None,,,1,1.2754571539117023,1038.2576830040198,None,1038.2576830040198,None,,,1037.0904664950212,None,,,,,1,2022_Mar_31_1004,Real-fake-judgement-flashing-group1,2021.1.2,59.98727982043373,
102,Trial # 100,Group1-stimuli/group1-block1/fake-group2-b1/encoded_Group2_IMG_0393.jpg,0,encoded_Group2_IMG_0393.jpg,,,,,0.0,99.0,99.0,99.0,,,,,,,,,,,,,,,,,,,1039.5591267789714,None,,,0,0.4352609809720889,1042.041880929959,None,1042.041880929959,None,,,1040.874584381003,None,,,,,1,2022_Mar_31_1004,Real-fake-judgement-flashing-group1,2021.1.2,59.98727982043373,
103,Trial # 101,Group1-stimuli/group1-block1/real-group1-b1/Group1_IMG_0090.jpg,1,Group1_IMG_0090.jpg,,,,,0.0,100.0,100.0,100.0,,,,,,,,,,,,,,,,,,,1042.5084770969115,None,,,1,0.2853592489846051,1044.975705749006,None,1044.975705749006,None,,,1043.8096324329963,None,,,,,1,2022_Mar_31_1004,Real-fake-judgement-flashing-group1,2021.1.2,59.98727982043373,
104,Trial # 102,Group1-stimuli/group1-block1/real-group1-b1/Group1_IMG_0310.jpg,1,Group1_IMG_0310.jpg,,,,,0.0,101.0,101.0,101.0,,,,,,,,,,,,,,,,,,,1045.2927720189327,None,,,1,2.1964665320701897,1047.7766864069272,None,1047.7766864069272,None,,,1046.6096808989532,None,,,,,1,2022_Mar_31_1004,Real-fake-judgement-flashing-group1,2021.1.2,59.98727982043373,
105,Trial # 103,Group1-stimuli/group1-block1/fake-group2-b1/encoded_Group2_IMG_0528.jpg,0,encoded_Group2_IMG_0528.jpg,,,,,0.0,102.0,102.0,102.0,,,,,,,,,,,,,,,,,,,1049.9947149249492,None,,,1,5.143390061100945,1052.4617507410003,None,1052.4617507410003,None,,,1051.2946646889905,None,,,,,1,2022_Mar_31_1004,Real-fake-judgement-flashing-group1,2021.1.2,59.98727982043373,
106,Trial # 104,Group1-stimuli/group1-block1/fake-group2-b1/encoded_Group2_IMG_1975.jpg,0,encoded_Group2_IMG_1975.jpg,,,,,0.0,103.0,103.0,103.0,,,,,,,,,,,,,,,,,,,1057.6299187910045,None,,,1,1.091583085944876,1060.0975571509916,None,1060.0975571509916,None,,,1058.9141425730195,None,,,,,1,2022_Mar_31_1004,Real-fake-judgement-flashing-group1,2021.1.2,59.98727982043373,
107,Trial # 105,Group1-stimuli/group1-block1/fake-group2-b1/encoded_Group2_IMG_0052.jpg,0,encoded_Group2_IMG_0052.jpg,,,,,0.0,104.0,104.0,104.0,,,,,,,,,,,,,,,,,,,1061.214629761991,None,,,0,1.3787147419061512,1063.682435013936,None,1063.682435013936,None,,,1062.5150310659083,None,,,,,1,2022_Mar_31_1004,Real-fake-judgement-flashing-group1,2021.1.2,59.98727982043373,
108,Trial # 106,Group1-stimuli/group1-block1/fake-group2-b1/encoded_Group2_IMG_0225.jpg,0,encoded_Group2_IMG_0225.jpg,,,,,0.0,105.0,105.0,105.0,,,,,,,,,,,,,,,,,,,1065.0820379359648,None,,,0,0.2633776100119576,1067.549762777984,None,1067.549762777984,None,,,1066.3826595299179,None,,,,,1,2022_Mar_31_1004,Real-fake-judgement-flashing-group1,2021.1.2,59.98727982043373,
109,Trial # 107,Group1-stimuli/group1-block1/real-group1-b1/Group1_IMG_2231.jpg,1,Group1_IMG_2231.jpg,,,,,0.0,106.0,106.0,106.0,,,,,,,,,,,,,,,,,,,1067.8338546549203,None,,,1,0.6084674819139764,1070.3006695659133,None,1070.3006695659133,None,,,1069.15141188493,None,,,,,1,2022_Mar_31_1004,Real-fake-judgement-flashing-group1,2021.1.2,59.98727982043373,
110,Trial # 108,Group1-stimuli/group1-block1/real-group1-b1/Group1_IMG_0217.jpg,1,Group1_IMG_0217.jpg,,,,,0.0,107.0,107.0,107.0,,,,,,,,,,,,,,,,,,,1070.93419910199,None,,,0,0.3472649659961462,1073.4018789209658,None,1073.4018789209658,None,,,1072.23392469401,None,,,,,1,2022_Mar_31_1004,Real-fake-judgement-flashing-group1,2021.1.2,59.98727982043373,
111,Trial # 109,Group1-stimuli/group1-block1/real-group1-b1/Group1_IMG_0264.jpg,1,Group1_IMG_0264.jpg,,,,,0.0,108.0,108.0,108.0,,,,,,,,,,,,,,,,,,,1073.7695467189187,None,,,0,0.3525567029137164,1076.252521332004,None,1076.252521332004,None,,,1075.0853824729566,None,,,,,1,2022_Mar_31_1004,Real-fake-judgement-flashing-group1,2021.1.2,59.98727982043373,
112,Trial # 110,Group1-stimuli/group1-block1/fake-group2-b1/encoded_Group2_IMG_0254.jpg,0,encoded_Group2_IMG_0254.jpg,,,,,0.0,109.0,109.0,109.0,,,,,,,,,,,,,,,,,,,1076.6354205529206,None,,,1,0.2854074260685593,1079.0877339739818,None,1079.0877339739818,None,,,1077.9204175379127,None,,,,,1,2022_Mar_31_1004,Real-fake-judgement-flashing-group1,2021.1.2,59.98727982043373,
113,Trial # 111,Group1-stimuli/group1-block1/fake-group2-b1/encoded_Group2_IMG_5433.jpg,0,encoded_Group2_IMG_5433.jpg,,,,,0.0,110.0,110.0,110.0,,,,,,,,,,,,,,,,,,,1079.404269807972,None,,,0,0.5104058920405805,1081.8707342799753,None,1081.8707342799753,None,,,1080.7043192099081,None,,,,,1,2022_Mar_31_1004,Real-fake-judgement-flashing-group1,2021.1.2,59.98727982043373,
114,Trial # 112,Group1-stimuli/group1-block1/real-group1-b1/Group1_IMG_0252.jpg,1,Group1_IMG_0252.jpg,,,,,0.0,111.0,111.0,111.0,,,,,,,,,,,,,,,,,,,1082.4045339149889,None,,,1,1.7843823760049418,1084.8766963919625,None,1084.8766963919625,None,,,1083.7227253979072,None,,,,,1,2022_Mar_31_1004,Real-fake-judgement-flashing-group1,2021.1.2,59.98727982043373,
115,Trial # 113,Group1-stimuli/group1-block1/real-group1-b1/Group1_IMG_9720.jpg,1,Group1_IMG_9720.jpg,,,,,0.0,112.0,112.0,112.0,,,,,,,,,,,,,,,,,,,1086.6936012299266,None,,,0,0.4472034530481323,1089.1739533169894,None,1089.1739533169894,None,,,1088.0069092919584,None,,,,,1,2022_Mar_31_1004,Real-fake-judgement-flashing-group1,2021.1.2,59.98727982043373,
116,Trial # 114,Group1-stimuli/group1-block1/fake-group2-b1/encoded_Group2_IMG_0550.jpg,0,encoded_Group2_IMG_0550.jpg,,,,,0.0,113.0,113.0,113.0,,,,,,,,,,,,,,,,,,,1089.6410100969952,None,,,0,0.5138791769277304,1092.1072616999736,None,1092.1072616999736,None,,,1090.9408446759917,None,,,,,1,2022_Mar_31_1004,Real-fake-judgement-flashing-group1,2021.1.2,59.98727982043373,
117,Trial # 115,Group1-stimuli/group1-block1/real-group1-b1/Group1_IMG_9915.jpg,1,Group1_IMG_9915.jpg,,,,,0.0,114.0,114.0,114.0,,,,,,,,,,,,,,,,,,,1092.64038259699,None,,,1,0.3368004380026832,1095.1083421749065,None,1095.1083421749065,None,,,1093.9590748109622,None,,,,,1,2022_Mar_31_1004,Real-fake-judgement-flashing-group1,2021.1.2,59.98727982043373,
118,Trial # 116,Group1-stimuli/group1-block1/real-group1-b1/Group1_IMG_9850.jpg,1,Group1_IMG_9850.jpg,,,,,0.0,115.0,115.0,115.0,,,,,,,,,,,,,,,,,,,1095.47519160097,None,,,0,0.3825897719943896,1097.9425463839434,None,1097.9425463839434,None,,,1096.7751955710119,None,,,,,1,2022_Mar_31_1004,Real-fake-judgement-flashing-group1,2021.1.2,59.98727982043373,
119,Trial # 117,Group1-stimuli/group1-block1/real-group1-b1/Group1_IMG_3579.jpg,1,Group1_IMG_3579.jpg,,,,,0.0,116.0,116.0,116.0,,,,,,,,,,,,,,,,,,,1098.3441271759802,None,,,0,0.3144801669986918,1100.8266715559876,None,1100.8266715559876,None,,,1099.644245709991,None,,,,,1,2022_Mar_31_1004,Real-fake-judgement-flashing-group1,2021.1.2,59.98727982043373,
120,Trial # 118,Group1-stimuli/group1-block1/fake-group2-b1/encoded_Group2_IMG_0377.jpg,0,encoded_Group2_IMG_0377.jpg,,,,,0.0,117.0,117.0,117.0,,,,,,,,,,,,,,,,,,,1101.1599994120188,None,,,0,0.4085632320493459,1103.6445783199742,None,1103.6445783199742,None,,,1102.476682787994,None,,,,,1,2022_Mar_31_1004,Real-fake-judgement-flashing-group1,2021.1.2,59.98727982043373,
121,Trial # 119,Group1-stimuli/group1-block1/real-group1-b1/Group1_IMG_0469.jpg,1,Group1_IMG_0469.jpg,,,,,0.0,118.0,118.0,118.0,,,,,,,,,,,,,,,,,,,1104.079205721966,None,,,1,1.2258328970056027,1106.5793038859265,None,1106.5793038859265,None,,,1105.395632677013,None,,,,,1,2022_Mar_31_1004,Real-fake-judgement-flashing-group1,2021.1.2,59.98727982043373,
122,Trial # 120,Group1-stimuli/group1-block1/fake-group2-b1/encoded_Group2_IMG_0100.jpg,0,encoded_Group2_IMG_0100.jpg,,,,,0.0,119.0,119.0,119.0,,,,,,,,,,,,,,,,,,,1107.8289148039185,None,,,0,0.5087428770493716,1110.2963976910105,None,1110.2963976910105,None,,,1109.1294592709746,None,,,,,1,2022_Mar_31_1004,Real-fake-judgement-flashing-group1,2021.1.2,59.98727982043373,
123,Trial # 121,Group1-stimuli/group1-block1/real-group1-b1/Group1_IMG_5359.jpg,1,Group1_IMG_5359.jpg,,,,,0.0,120.0,120.0,120.0,,,,,,,,,,,,,,,,,,,1110.829620144912,None,,,1,0.4352894410258159,1113.2977632399416,None,1113.2977632399416,None,,,1112.1302051529055,None,,,,,1,2022_Mar_31_1004,Real-fake-judgement-flashing-group1,2021.1.2,59.98727982043373,
124,Trial # 122,Group1-stimuli/group1-block1/fake-group2-b1/encoded_Group2_IMG_0304.jpg,0,encoded_Group2_IMG_0304.jpg,,,,,0.0,121.0,121.0,121.0,,,,,,,,,,,,,,,,,,,1113.7644151769346,None,,,0,0.4374984350288287,1116.231567472918,None,1116.231567472918,None,,,1115.064399113995,None,,,,,1,2022_Mar_31_1004,Real-fake-judgement-flashing-group1,2021.1.2,59.98727982043373,
125,Trial # 123,Group1-stimuli/group1-block1/real-group1-b1/Group1_IMG_0306.jpg,1,Group1_IMG_0306.jpg,,,,,0.0,122.0,122.0,122.0,,,,,,,,,,,,,,,,,,,1116.6985214489978,None,,,1,0.9025511330692098,1119.1665922709508,None,1119.1665922709508,None,,,1118.0165767759318,None,,,,,1,2022_Mar_31_1004,Real-fake-judgement-flashing-group1,2021.1.2,59.98727982043373,
126,Trial # 124,Group1-stimuli/group1-block1/real-group1-b1/Group1_IMG_0224.jpg,1,Group1_IMG_0224.jpg,,,,,0.0,123.0,123.0,123.0,,,,,,,,,,,,,,,,,,,1120.09917735192,None,,,0,0.4062407099409029,1122.5669020939386,None,1122.5669020939386,None,,,1121.4005378260044,None,,,,,1,2022_Mar_31_1004,Real-fake-judgement-flashing-group1,2021.1.2,59.98727982043373,
127,Trial # 125,Group1-stimuli/group1-block1/real-group1-b1/Group1_IMG_9889.jpg,1,Group1_IMG_9889.jpg,,,,,0.0,124.0,124.0,124.0,,,,,,,,,,,,,,,,,,,1123.0015619039768,None,,,0,0.8976143290055916,1125.4675262320088,None,1125.4675262320088,None,,,1124.3017483960139,None,,,,,1,2022_Mar_31_1004,Real-fake-judgement-flashing-group1,2021.1.2,59.98727982043373,
128,Trial # 126,Group1-stimuli/group1-block1/real-group1-b1/Group1_IMG_0293.jpg,1,Group1_IMG_0293.jpg,,,,,0.0,125.0,125.0,125.0,,,,,,,,,,,,,,,,,,,1126.384740585927,None,,,1,0.5038210490019992,1128.8533223789418,None,1128.8533223789418,None,,,1127.6846040009987,None,,,,,1,2022_Mar_31_1004,Real-fake-judgement-flashing-group1,2021.1.2,59.98727982043373,
129,Trial # 127,Group1-stimuli/group1-block1/fake-group2-b1/encoded_Group2_IMG_0321.jpg,0,encoded_Group2_IMG_0321.jpg,,,,,0.0,126.0,126.0,126.0,,,,,,,,,,,,,,,,,,,1129.3868952220073,None,,,1,0.3044859980000183,1131.8525834189495,None,1131.8525834189495,None,,,1130.6863887599902,None,,,,,1,2022_Mar_31_1004,Real-fake-judgement-flashing-group1,2021.1.2,59.98727982043373,
130,Trial # 128,Group1-stimuli/group1-block1/fake-group2-b1/encoded_Group2_IMG_0400.jpg,0,encoded_Group2_IMG_0400.jpg,,,,,0.0,127.0,127.0,127.0,,,,,,,,,,,,,,,,,,,1132.1860905489884,None,,,0,0.2779030560050159,1134.671175807016,None,1134.671175807016,None,,,1133.4875664740102,None,,,,,1,2022_Mar_31_1004,Real-fake-judgement-flashing-group1,2021.1.2,59.98727982043373,
131,Trial # 129,Group1-stimuli/group1-block1/fake-group2-b1/encoded_Group2_IMG_0443.jpg,0,encoded_Group2_IMG_0443.jpg,,,,,0.0,128.0,128.0,128.0,,,,,,,,,,,,,,,,,,,1134.975046849926,None,,,0,0.0382806010311469,1137.4548648379275,None,1137.4548648379275,None,,,1136.287094876985,None,,,,,1,2022_Mar_31_1004,Real-fake-judgement-flashing-group1,2021.1.2,59.98727982043373,
132,Trial # 130,Group1-stimuli/group1-block1/fake-group2-b1/encoded_Group2_IMG_0542.jpg,0,encoded_Group2_IMG_0542.jpg,,,,,0.0,129.0,129.0,129.0,,,,,,,,,,,,,,,,,,,1137.5205867619952,None,,,1,0.303419524920173,1139.989689926966,None,1139.989689926966,None,,,1138.822775819921,None,,,,,1,2022_Mar_31_1004,Real-fake-judgement-flashing-group1,2021.1.2,59.98727982043373,
133,Trial # 131,Group1-stimuli/group1-block1/real-group1-b1/Group1_IMG_0885.jpg,1,Group1_IMG_0885.jpg,,,,,0.0,130.0,130.0,130.0,,,,,,,,,,,,,,,,,,,1140.3220879109576,None,,,1,0.1115839140256866,1142.789483550936,None,1142.789483550936,None,,,1141.6230942360125,None,,,,,1,2022_Mar_31_1004,Real-fake-judgement-flashing-group1,2021.1.2,59.98727982043373,
134,Trial # 132,Group1-stimuli/group1-block1/real-group1-b1/Group1_IMG_0375.jpg,1,Group1_IMG_0375.jpg,,,,,0.0,131.0,131.0,131.0,,,,,,,,,,,,,,,,,,,1142.9238434879808,None,,,0,0.3900971539551392,1145.4069711019984,None,1145.4069711019984,None,,,1144.2234750729986,None,,,,,1,2022_Mar_31_1004,Real-fake-judgement-flashing-group1,2021.1.2,59.98727982043373,
135,Trial # 133,Group1-stimuli/group1-block1/fake-group2-b1/encoded_Group2_IMG_7351.jpg,0,encoded_Group2_IMG_7351.jpg,,,,,0.0,132.0,132.0,132.0,,,,,,,,,,,,,,,,,,,1145.824284193921,None,,,1,2.353680334985256,1148.2913928299677,None,1148.2913928299677,None,,,1147.1239561559632,None,,,,,1,2022_Mar_31_1004,Real-fake-judgement-flashing-group1,2021.1.2,59.98727982043373,
136,Trial # 134,Group1-stimuli/group1-block1/fake-group2-b1/encoded_Group2_IMG_0416.jpg,0,encoded_Group2_IMG_0416.jpg,,,,,0.0,133.0,133.0,133.0,,,,,,,,,,,,,,,,,,,1150.6761759829242,None,,,0,0.3499570080311969,1153.1431514750002,None,1153.1431514750002,None,,,1151.975610225927,None,,,,,1,2022_Mar_31_1004,Real-fake-judgement-flashing-group1,2021.1.2,59.98727982043373,
137,Trial # 135,Group1-stimuli/group1-block1/fake-group2-b1/encoded_Group2_IMG_0139.jpg,0,encoded_Group2_IMG_0139.jpg,,,,,0.0,134.0,134.0,134.0,,,,,,,,,,,,,,,,,,,1153.5108335609548,None,,,0,0.4044767949962988,1155.976660338929,None,1155.976660338929,None,,,1154.8097568720113,None,,,,,1,2022_Mar_31_1004,Real-fake-judgement-flashing-group1,2021.1.2,59.98727982043373,
138,Trial # 136,Group1-stimuli/group1-block1/real-group1-b1/Group1_IMG_9677.jpg,1,Group1_IMG_9677.jpg,,,,,0.0,135.0,135.0,135.0,,,,,,,,,,,,,,,,,,,1156.410178807913,None,,,0,2.382675532018766,1158.8784010859672,None,1158.8784010859672,None,,,1157.7270203669323,None,,,,,1,2022_Mar_31_1004,Real-fake-judgement-flashing-group1,2021.1.2,59.98727982043373,
139,Trial # 137,Group1-stimuli/group1-block1/fake-group2-b1/encoded_Group2_IMG_5982.jpg,0,encoded_Group2_IMG_5982.jpg,,,,,0.0,136.0,136.0,136.0,,,,,,,,,,,,,,,,,,,1161.278664369951,None,,,0,0.3381108290050179,1163.7469632299617,None,1163.7469632299617,None,,,1162.5786595399259,None,,,,,1,2022_Mar_31_1004,Real-fake-judgement-flashing-group1,2021.1.2,59.98727982043373,
140,Trial # 138,Group1-stimuli/group1-block1/fake-group2-b1/encoded_Group2_IMG_1144.jpg,0,encoded_Group2_IMG_1144.jpg,,,,,0.0,137.0,137.0,137.0,,,,,,,,,,,,,,,,,,,1164.1138795219597,None,,,0,0.1765440260060131,1166.5805139850129,None,1166.5805139850129,None,,,1165.4129725159146,None,,,,,1,2022_Mar_31_1004,Real-fake-judgement-flashing-group1,2021.1.2,59.98727982043373,
141,Trial # 139,Group1-stimuli/group1-block1/fake-group2-b1/encoded_Group2_IMG_0315.jpg,0,encoded_Group2_IMG_0315.jpg,,,,,0.0,138.0,138.0,138.0,,,,,,,,,,,,,,,,,,,1166.7810329860076,None,,,1,0.7403055450413376,1169.2487630170071,None,1169.2487630170071,None,,,1168.0818491369719,None,,,,,1,2022_Mar_31_1004,Real-fake-judgement-flashing-group1,2021.1.2,59.98727982043373,
142,Trial # 140,Group1-stimuli/group1-block1/real-group1-b1/Group1_IMG_130.jpg,1,Group1_IMG_130.jpg,,,,,0.0,139.0,139.0,139.0,,,,,,,,,,,,,,,,,,,1170.0156711649615,None,,,1,0.5381594049977139,1172.4989136760123,None,1172.4989136760123,None,,,1171.3313236669637,None,,,,,1,2022_Mar_31_1004,Real-fake-judgement-flashing-group1,2021.1.2,59.98727982043373,
143,Trial # 141,Group1-stimuli/group1-block1/real-group1-b1/Group1_IMG_0024.jpg,1,Group1_IMG_0024.jpg,,,,,0.0,140.0,140.0,140.0,,,,,,,,,,,,,,,,,,,1173.0669422479114,None,,,0,0.2880705330753699,1175.533005253994,None,1175.533005253994,None,,,1174.3666475489736,None,,,,,1,2022_Mar_31_1004,Real-fake-judgement-flashing-group1,2021.1.2,59.98727982043373,
144,Trial # 142,Group1-stimuli/group1-block1/fake-group2-b1/encoded_Group2_IMG_5012.jpg,0,encoded_Group2_IMG_5012.jpg,,,,,0.0,141.0,141.0,141.0,,,,,,,,,,,,,,,,,,,1175.8493039779132,None,,,0,0.3258850200800225,1178.3351887699682,None,1178.3351887699682,None,,,1177.1500340839848,None,,,,,1,2022_Mar_31_1004,Real-fake-judgement-flashing-group1,2021.1.2,59.98727982043373,
145,Trial # 143,Group1-stimuli/group1-block1/fake-group2-b1/encoded_Group2_IMG_0209.jpg,0,encoded_Group2_IMG_0209.jpg,,,,,0.0,142.0,142.0,142.0,,,,,,,,,,,,,,,,,,,1178.6847420429112,None,,,0,0.3167211631080135,1181.1684045839356,None,1181.1684045839356,None,,,1179.9856372429058,None,,,,,1,2022_Mar_31_1004,Real-fake-judgement-flashing-group1,2021.1.2,59.98727982043373,
146,Trial # 144,Group1-stimuli/group1-block1/real-group1-b1/Group1_IMG_0373.jpg,1,Group1_IMG_0373.jpg,,,,,0.0,143.0,143.0,143.0,,,,,,,,,,,,,,,,,,,1181.5177045819582,None,,,1,0.2987003530142829,1183.9863734389655,None,1183.9863734389655,None,,,1182.834573355969,None,,,,,1,2022_Mar_31_1004,Real-fake-judgement-flashing-group1,2021.1.2,59.98727982043373,
147,Trial # 145,Group1-stimuli/group1-block1/real-group1-b1/Group1_IMG_5899.jpg,1,Group1_IMG_5899.jpg,,,,,0.0,144.0,144.0,144.0,,,,,,,,,,,,,,,,,,,1184.302978119929,None,,,1,0.5227253349730745,1186.7863268560031,None,1186.7863268560031,None,,,1185.6027252009371,None,,,,,1,2022_Mar_31_1004,Real-fake-judgement-flashing-group1,2021.1.2,59.98727982043373,
148,Trial # 146,Group1-stimuli/group1-block1/real-group1-b1/Group1_IMG_0162.jpg,1,Group1_IMG_0162.jpg,,,,,0.0,145.0,145.0,145.0,,,,,,,,,,,,,,,,,,,1187.3364680149823,None,,,0,175.3113889360102,1192.2217558330158,None,1192.2217558330158,None,,,None,None,,,,,1,2022_Mar_31_1004,Real-fake-judgement-flashing-group1,2021.1.2,59.98727982043373,
149,Trial # 147,Group1-stimuli/group1-block1/real-group1-b1/Group1_IMG_0543.jpg,1,Group1_IMG_0543.jpg,,,,,0.0,146.0,146.0,146.0,,,,,,,,,,,,,,,,,,,1367.5632580749225,None,,,0,0.8168883569305763,1370.0441899909638,None,1370.0441899909638,None,,,1368.9103320100112,None,,,,,1,2022_Mar_31_1004,Real-fake-judgement-flashing-group1,2021.1.2,59.98727982043373,
150,Trial # 148,Group1-stimuli/group1-block1/fake-group2-b1/encoded_Group2_IMG_0355.jpg,0,encoded_Group2_IMG_0355.jpg,,,,,0.0,147.0,147.0,147.0,,,,,,,,,,,,,,,,,,,1370.8933669319376,None,,,1,2.011698854039423,1373.3614527250174,None,1373.3614527250174,None,,,1372.1937490109121,None,,,,,1,2022_Mar_31_1004,Real-fake-judgement-flashing-group1,2021.1.2,59.98727982043373,
151,Trial # 149,Group1-stimuli/group1-block1/real-group1-b1/Group1_IMG_9765.jpg,1,Group1_IMG_9765.jpg,,,,,0.0,148.0,148.0,148.0,,,,,,,,,,,,,,,,,,,1375.3947997270152,None,,,0,1.0629554300103337,1377.8621949839871,None,1377.8621949839871,None,,,1376.6948238209588,None,,,,,1,2022_Mar_31_1004,Real-fake-judgement-flashing-group1,2021.1.2,59.98727982043373,
152,Trial # 150,Group1-stimuli/group1-block1/fake-group2-b1/encoded_Group2_IMG_1378.jpg,0,encoded_Group2_IMG_1378.jpg,,,,,0.0,149.0,149.0,149.0,,,,,,,,,,,,,,,,,,,1378.9463639869357,None,,,0,0.9434208419406788,1381.4297197399428,None,1381.4297197399428,None,,,1380.2629675900098,None,,,,,1,2022_Mar_31_1004,Real-fake-judgement-flashing-group1,2021.1.2,59.98727982043373,
153,Trial # 1,Group1-stimuli/group1-block2/fake-group2-b2/encoded_Group2_IMG_0155.jpg,0,encoded_Group2_IMG_0155.jpg,,,,,,,,,0.0,0.0,0.0,0.0,,,,,,,,,,,,,,,1391.04988464294,None,,,0,1.0728380259824917,1393.4843347229762,None,1393.4843347229762,None,1386.9481934530197,None,1392.3329771389253,None,1382.3969436269251,None,,,1,2022_Mar_31_1004,Real-fake-judgement-flashing-group1,2021.1.2,59.98727982043373,
154,Trial # 2,Group1-stimuli/group1-block2/real-group1-b2/Group1_IMG_0519.jpg,1,Group1_IMG_0519.jpg,,,,,,,,,0.0,1.0,1.0,1.0,,,,,,,,,,,,,,,1394.585682488978,None,,,0,0.1288592839846387,1397.0682799429633,None,1397.0682799429633,None,,,1395.9177381399786,None,,,,,1,2022_Mar_31_1004,Real-fake-judgement-flashing-group1,2021.1.2,59.98727982043373,
155,Trial # 3,Group1-stimuli/group1-block2/fake-group2-b2/encoded_Group2_IMG_0135.jpg,0,encoded_Group2_IMG_0135.jpg,,,,,,,,,0.0,2.0,2.0,2.0,,,,,,,,,,,,,,,1397.2515414200025,None,,,0,0.3825334049761295,1399.6865417349618,None,1399.6865417349618,None,,,1398.5364320119843,None,,,,,1,2022_Mar_31_1004,Real-fake-judgement-flashing-group1,2021.1.2,59.98727982043373,
156,Trial # 4,Group1-stimuli/group1-block2/real-group1-b2/Group1_IMG_5310.jpg,1,Group1_IMG_5310.jpg,,,,,,,,,0.0,3.0,3.0,3.0,,,,,,,,,,,,,,,1400.1024628279265,None,,,1,2.85889006301295,1402.586251460947,None,1402.586251460947,None,,,1401.419730677968,None,,,,,1,2022_Mar_31_1004,Real-fake-judgement-flashing-group1,2021.1.2,59.98727982043373,
157,Trial # 5,Group1-stimuli/group1-block2/real-group1-b2/Group1_IMG_0522.jpg,1,Group1_IMG_0522.jpg,,,,,,,,,0.0,4.0,4.0,4.0,,,,,,,,,,,,,,,1405.471623060992,None,,,0,1.666203298023902,1407.954967930913,None,1407.954967930913,None,,,1406.787766859983,None,,,,,1,2022_Mar_31_1004,Real-fake-judgement-flashing-group1,2021.1.2,59.98727982043373,
158,Trial # 6,Group1-stimuli/group1-block2/fake-group2-b2/encoded_Group2_IMG_0484.jpg,0,encoded_Group2_IMG_0484.jpg,,,,,,,,,0.0,5.0,5.0,5.0,,,,,,,,,,,,,,,1409.640099523007,None,,,1,0.298342686961405,1412.1227201930014,None,1412.1227201930014,None,,,1410.9723943439312,None,,,,,1,2022_Mar_31_1004,Real-fake-judgement-flashing-group1,2021.1.2,59.98727982043373,
159,Trial # 7,Group1-stimuli/group1-block2/fake-group2-b2/encoded_Group2_IMG_5948.jpg,0,encoded_Group2_IMG_5948.jpg,,,,,,,,,0.0,6.0,6.0,6.0,,,,,,,,,,,,,,,1412.4398264569463,None,,,1,0.3613066410180181,1414.9238332789391,None,1414.9238332789391,None,,,1413.75787940796,None,,,,,1,2022_Mar_31_1004,Real-fake-judgement-flashing-group1,2021.1.2,59.98727982043373,
160,Trial # 8,Group1-stimuli/group1-block2/fake-group2-b2/encoded_Group2_IMG_3591.jpg,0,encoded_Group2_IMG_3591.jpg,,,,,,,,,0.0,7.0,7.0,7.0,,,,,,,,,,,,,,,1415.3072536860127,None,,,0,0.0544135080417618,1417.7907683759695,None,1417.7907683759695,None,,,1416.624144728994,None,,,,,1,2022_Mar_31_1004,Real-fake-judgement-flashing-group1,2021.1.2,59.98727982043373,
161,Trial # 9,Group1-stimuli/group1-block2/real-group1-b2/Group1_IMG_9835.jpg,1,Group1_IMG_9835.jpg,,,,,,,,,0.0,8.0,8.0,8.0,,,,,,,,,,,,,,,1417.8741160950158,None,,,0,1.8542734950315207,1420.358879109961,None,1420.358879109961,None,,,1419.1924710769672,None,,,,,1,2022_Mar_31_1004,Real-fake-judgement-flashing-group1,2021.1.2,59.98727982043373,
162,Trial # 10,Group1-stimuli/group1-block2/real-group1-b2/Group1_IMG_0556.jpg,1,Group1_IMG_0556.jpg,,,,,,,,,0.0,9.0,9.0,9.0,,,,,,,,,,,,,,,1422.24322154501,None,,,0,0.549085728940554,1424.7280216820072,None,1424.7280216820072,None,,,1423.5608607819304,None,,,,,1,2022_Mar_31_1004,Real-fake-judgement-flashing-group1,2021.1.2,59.98727982043373,
163,Trial # 11,Group1-stimuli/group1-block2/fake-group2-b2/encoded_Group2_IMG_9736.jpg,0,encoded_Group2_IMG_9736.jpg,,,,,,,,,0.0,10.0,10.0,10.0,,,,,,,,,,,,,,,1425.310044443002,None,,,1,3.003072603023611,1427.7940688069211,None,1427.7940688069211,None,,,1426.6273268749937,None,,,,,1,2022_Mar_31_1004,Real-fake-judgement-flashing-group1,2021.1.2,59.98727982043373,
164,Trial # 12,Group1-stimuli/group1-block2/real-group1-b2/Group1_IMG_9867.jpg,1,Group1_IMG_9867.jpg,,,,,,,,,0.0,11.0,11.0,11.0,,,,,,,,,,,,,,,1430.8298403039807,None,,,0,1.2111681239912286,1433.3298758430174,None,1433.3298758430174,None,,,1432.162796532968,None,,,,,1,2022_Mar_31_1004,Real-fake-judgement-flashing-group1,2021.1.2,59.98727982043373,
165,Trial # 13,Group1-stimuli/group1-block2/fake-group2-b2/encoded_Group2_IMG_9886.jpg,0,encoded_Group2_IMG_9886.jpg,,,,,,,,,0.0,12.0,12.0,12.0,,,,,,,,,,,,,,,1434.5634663719684,None,,,0,2.1574024100555107,1437.0477517939871,None,1437.0477517939871,None,,,1435.8800292769447,None,,,,,1,2022_Mar_31_1004,Real-fake-judgement-flashing-group1,2021.1.2,59.98727982043373,
166,Trial # 14,Group1-stimuli/group1-block2/fake-group2-b2/encoded_Group2_IMG_2245.jpg,0,encoded_Group2_IMG_2245.jpg,,,,,,,,,0.0,13.0,13.0,13.0,,,,,,,,,,,,,,,1439.23232732201,None,,,0,0.434296978986822,1441.6987802740186,None,1441.6987802740186,None,,,1440.531251923996,None,,,,,1,2022_Mar_31_1004,Real-fake-judgement-flashing-group1,2021.1.2,59.98727982043373,
167,Trial # 15,Group1-stimuli/group1-block2/fake-group2-b2/encoded_Group2_IMG_0507.jpg,0,encoded_Group2_IMG_0507.jpg,,,,,,,,,0.0,14.0,14.0,14.0,,,,,,,,,,,,,,,1442.1656399950152,None,,,0,0.5066470869351178,1444.650491689914,None,1444.650491689914,None,,,1443.466639420949,None,,,,,1,2022_Mar_31_1004,Real-fake-judgement-flashing-group1,2021.1.2,59.98727982043373,
168,Trial # 16,Group1-stimuli/group1-block2/fake-group2-b2/encoded_Group2_IMG_0338.jpg,0,encoded_Group2_IMG_0338.jpg,,,,,,,,,0.0,15.0,15.0,15.0,,,,,,,,,,,,,,,1445.1830244989833,None,,,1,0.3134735820349306,1447.667570946971,None,1447.667570946971,None,,,1446.5001331029925,None,,,,,1,2022_Mar_31_1004,Real-fake-judgement-flashing-group1,2021.1.2,59.98727982043373,
169,Trial # 17,Group1-stimuli/group1-block2/real-group1-b2/Group1_IMG_0376.jpg,1,Group1_IMG_0376.jpg,,,,,,,,,0.0,16.0,16.0,16.0,,,,,,,,,,,,,,,1448.0003851749934,None,,,1,0.2651992230676114,1450.4679189230085,None,1450.4679189230085,None,,,1449.318613876938,None,,,,,1,2022_Mar_31_1004,Real-fake-judgement-flashing-group1,2021.1.2,59.98727982043373,
170,Trial # 18,Group1-stimuli/group1-block2/real-group1-b2/Group1_IMG_9821.jpg,1,Group1_IMG_9821.jpg,,,,,,,,,0.0,17.0,17.0,17.0,,,,,,,,,,,,,,,1450.7512343080016,None,,,1,0.8410268110455945,1453.2201177609386,None,1453.2201177609386,None,,,1452.0520899989642,None,,,,,1,2022_Mar_31_1004,Real-fake-judgement-flashing-group1,2021.1.2,59.98727982043373,
171,Trial # 19,Group1-stimuli/group1-block2/fake-group2-b2/encoded_Group2_IMG_0388.jpg,0,encoded_Group2_IMG_0388.jpg,,,,,,,,,0.0,18.0,18.0,18.0,,,,,,,,,,,,,,,1454.086563350982,None,,,0,0.0356241880217567,1456.5534326849738,None,1456.5534326849738,None,,,1455.3864262819989,None,,,,,1,2022_Mar_31_1004,Real-fake-judgement-flashing-group1,2021.1.2,59.98727982043373,
172,Trial # 20,Group1-stimuli/group1-block2/fake-group2-b2/encoded_Group2_IMG_0222.jpg,0,encoded_Group2_IMG_0222.jpg,,,,,,,,,0.0,19.0,19.0,19.0,,,,,,,,,,,,,,,1456.619598667021,None,,,0,1.2684788269689309,1459.104660143959,None,1459.104660143959,None,,,1457.9369050950045,None,,,,,1,2022_Mar_31_1004,Real-fake-judgement-flashing-group1,2021.1.2,59.98727982043373,
173,Trial # 21,Group1-stimuli/group1-block2/fake-group2-b2/encoded_Group2_IMG_2215.jpg,0,encoded_Group2_IMG_2215.jpg,,,,,,,,,0.0,20.0,20.0,20.0,,,,,,,,,,,,,,,1460.404552266933,None,,,0,0.2625066650798544,1462.8546327049844,None,1462.8546327049844,None,,,1461.6881967709633,None,,,,,1,2022_Mar_31_1004,Real-fake-judgement-flashing-group1,2021.1.2,59.98727982043373,
174,Trial # 22,Group1-stimuli/group1-block2/real-group1-b2/Group1_IMG_9760.jpg,1,Group1_IMG_9760.jpg,,,,,,,,,0.0,21.0,21.0,21.0,,,,,,,,,,,,,,,1463.1400274879998,None,,,1,0.1183558290358632,1465.622786627966,None,1465.622786627966,None,,,1464.4570352520095,None,,,,,1,2022_Mar_31_1004,Real-fake-judgement-flashing-group1,2021.1.2,59.98727982043373,
175,Trial # 23,Group1-stimuli/group1-block2/real-group1-b2/Group1_IMG_9897.jpg,1,Group1_IMG_9897.jpg,,,,,,,,,0.0,22.0,22.0,22.0,,,,,,,,,,,,,,,1465.772798356018,None,,,1,2.2683810129528865,1468.240754968021,None,1468.240754968021,None,,,1467.139880932984,None,,,,,1,2022_Mar_31_1004,Real-fake-judgement-flashing-group1,2021.1.2,59.98727982043373,
176,Trial # 24,Group1-stimuli/group1-block2/real-group1-b2/Group1_IMG_4250.jpg,1,Group1_IMG_4250.jpg,,,,,,,,,0.0,23.0,23.0,23.0,,,,,,,,,,,,,,,1470.541272790986,None,,,0,0.410605716984719,1473.0425873720087,None,1473.0425873720087,None,,,1471.8578625220107,None,,,,,1,2022_Mar_31_1004,Real-fake-judgement-flashing-group1,2021.1.2,59.98727982043373,
177,Trial # 25,Group1-stimuli/group1-block2/real-group1-b2/Group1_IMG_2244.jpg,1,Group1_IMG_2244.jpg,,,,,,,,,0.0,24.0,24.0,24.0,,,,,,,,,,,,,,,1473.4760679639876,None,,,0,0.7099004520568997,1475.9592467700131,None,1475.9592467700131,None,,,1474.7923550289124,None,,,,,1,2022_Mar_31_1004,Real-fake-judgement-flashing-group1,2021.1.2,59.98727982043373,
178,Trial # 26,Group1-stimuli/group1-block2/fake-group2-b2/encoded_Group2_IMG_0501.jpg,0,encoded_Group2_IMG_0501.jpg,,,,,,,,,0.0,25.0,25.0,25.0,,,,,,,,,,,,,,,1476.693377146963,None,,,0,2.9003229869995266,1479.1607948329763,None,1479.1607948329763,None,,,1477.992636771989,None,,,,,1,2022_Mar_31_1004,Real-fake-judgement-flashing-group1,2021.1.2,59.98727982043373,
179,Trial # 27,Group1-stimuli/group1-block2/real-group1-b2/Group1_IMG_9684.jpg,1,Group1_IMG_9684.jpg,,,,,,,,,0.0,26.0,26.0,26.0,,,,,,,,,,,,,,,1482.0780185309704,None,,,0,0.4746144469827413,1484.546524586971,None,1484.546524586971,None,,,1483.396037312923,None,,,,,1,2022_Mar_31_1004,Real-fake-judgement-flashing-group1,2021.1.2,59.98727982043373,
180,Trial # 28,Group1-stimuli/group1-block2/real-group1-b2/Group1_IMG_1039.jpg,1,Group1_IMG_1039.jpg,,,,,,,,,0.0,27.0,27.0,27.0,,,,,,,,,,,,,,,1485.0457818779396,None,,,0,0.1075350139290094,1487.5296301309718,None,1487.5296301309718,None,,,1486.362297831918,None,,,,,1,2022_Mar_31_1004,Real-fake-judgement-flashing-group1,2021.1.2,59.98727982043373,
181,Trial # 29,Group1-stimuli/group1-block2/fake-group2-b2/encoded_Group2_IMG_0251.jpg,0,encoded_Group2_IMG_0251.jpg,,,,,,,,,0.0,28.0,28.0,28.0,,,,,,,,,,,,,,,1487.662675592932,None,,,0,0.8508224369725212,1490.13036929199,None,1490.13036929199,None,,,1488.9810339179821,None,,,,,1,2022_Mar_31_1004,Real-fake-judgement-flashing-group1,2021.1.2,59.98727982043373,
182,Trial # 30,Group1-stimuli/group1-block2/real-group1-b2/Group1_IMG_9692.jpg,1,Group1_IMG_9692.jpg,,,,,,,,,0.0,29.0,29.0,29.0,,,,,,,,,,,,,,,1490.996938394965,None,,,1,0.1790511549916118,1493.466089137015,None,1493.466089137015,None,,,1492.3141725889873,None,,,,,1,2022_Mar_31_1004,Real-fake-judgement-flashing-group1,2021.1.2,59.98727982043373,
183,Trial # 31,Group1-stimuli/group1-block2/real-group1-b2/Group1_IMG_0512.jpg,1,Group1_IMG_0512.jpg,,,,,,,,,0.0,30.0,30.0,30.0,,,,,,,,,,,,,,,1493.665227800957,None,,,0,0.2321467360015958,1496.1488729770062,None,1496.1488729770062,None,,,1494.9816776579246,None,,,,,1,2022_Mar_31_1004,Real-fake-judgement-flashing-group1,2021.1.2,59.98727982043373,
184,Trial # 32,Group1-stimuli/group1-block2/fake-group2-b2/encoded_Group2_IMG_9673.jpg,0,encoded_Group2_IMG_9673.jpg,,,,,,,,,0.0,31.0,31.0,31.0,,,,,,,,,,,,,,,1496.398777061957,None,,,1,2.009531883057207,1498.867607539985,None,1498.867607539985,None,,,1497.8992373140063,None,,,,,1,2022_Mar_31_1004,Real-fake-judgement-flashing-group1,2021.1.2,59.98727982043373,
185,Trial # 33,Group1-stimuli/group1-block2/fake-group2-b2/encoded_Group2_IMG_5135.jpg,0,encoded_Group2_IMG_5135.jpg,,,,,,,,,0.0,32.0,32.0,32.0,,,,,,,,,,,,,,,1500.900487783947,None,,,0,0.2130644080461934,1503.3680734699592,None,1503.3680734699592,None,,,1502.2171922889538,None,,,,,1,2022_Mar_31_1004,Real-fake-judgement-flashing-group1,2021.1.2,59.98727982043373,
186,Trial # 34,Group1-stimuli/group1-block2/real-group1-b2/Group1_IMG_0396.jpg,1,Group1_IMG_0396.jpg,,,,,,,,,0.0,33.0,33.0,33.0,,,,,,,,,,,,,,,1503.602492906968,None,,,0,0.7511169950012118,1506.0859667250188,None,1506.0859667250188,None,,,1504.9182619869243,None,,,,,1,2022_Mar_31_1004,Real-fake-judgement-flashing-group1,2021.1.2,59.98727982043373,
187,Trial # 35,Group1-stimuli/group1-block2/real-group1-b2/Group1_IMG_4919.jpg,1,Group1_IMG_4919.jpg,,,,,,,,,0.0,34.0,34.0,34.0,,,,,,,,,,,,,,,1506.8690276499838,None,,,1,1.5714868489885705,1509.3376543349586,None,1509.3376543349586,None,,,1508.1702130609192,None,,,,,1,2022_Mar_31_1004,Real-fake-judgement-flashing-group1,2021.1.2,59.98727982043373,
188,Trial # 36,Group1-stimuli/group1-block2/real-group1-b2/Group1_IMG_0449.jpg,1,Group1_IMG_0449.jpg,,,,,,,,,0.0,35.0,35.0,35.0,,,,,,,,,,,,,,,1510.9366598539054,None,,,0,0.464413876994513,1513.4047051249072,None,1513.4047051249072,None,,,1512.2538249699865,None,,,,,1,2022_Mar_31_1004,Real-fake-judgement-flashing-group1,2021.1.2,59.98727982043373,
189,Trial # 37,Group1-stimuli/group1-block2/fake-group2-b2/encoded_Group2_IMG_0539.jpg,0,encoded_Group2_IMG_0539.jpg,,,,,,,,,0.0,36.0,36.0,36.0,,,,,,,,,,,,,,,1513.8877428579144,None,,,1,1.3053399050841108,1516.371812226018,None,1516.371812226018,None,,,1515.20472054102,None,,,,,1,2022_Mar_31_1004,Real-fake-judgement-flashing-group1,2021.1.2,59.98727982043373,
190,Trial # 38,Group1-stimuli/group1-block2/real-group1-b2/Group1_IMG_0453.jpg,1,Group1_IMG_0453.jpg,,,,,,,,,0.0,37.0,37.0,37.0,,,,,,,,,,,,,,,1517.705354035017,None,,,1,1.0554546440253034,1520.189687023987,None,1520.189687023987,None,,,1519.022842350998,None,,,,,1,2022_Mar_31_1004,Real-fake-judgement-flashing-group1,2021.1.2,59.98727982043373,
191,Trial # 39,Group1-stimuli/group1-block2/fake-group2-b2/encoded_Group2_IMG_0318.jpg,0,encoded_Group2_IMG_0318.jpg,,,,,,,,,0.0,38.0,38.0,38.0,,,,,,,,,,,,,,,1521.2743079640204,None,,,1,0.1519012020435184,1523.7411785309669,None,1523.7411785309669,None,,,1522.590336513007,None,,,,,1,2022_Mar_31_1004,Real-fake-judgement-flashing-group1,2021.1.2,59.98727982043373,
192,Trial # 40,Group1-stimuli/group1-block2/real-group1-b2/Group1_IMG_1678.jpg,1,Group1_IMG_1678.jpg,,,,,,,,,0.0,39.0,39.0,39.0,,,,,,,,,,,,,,,1523.925267596962,None,,,1,0.149065556935966,1526.4080861549592,None,1526.4080861549592,None,,,1525.2411747019505,None,,,,,1,2022_Mar_31_1004,Real-fake-judgement-flashing-group1,2021.1.2,59.98727982043373,
193,Trial # 41,Group1-stimuli/group1-block2/fake-group2-b2/encoded_Group2_IMG_0325.jpg,0,encoded_Group2_IMG_0325.jpg,,,,,,,,,0.0,40.0,40.0,40.0,,,,,,,,,,,,,,,1526.5750888369512,None,,,1,3.6102034860523418,1529.026987203979,None,1529.026987203979,None,,,1527.858730543987,None,,,,,1,2022_Mar_31_1004,Real-fake-judgement-flashing-group1,2021.1.2,59.98727982043373,
194,Trial # 42,Group1-stimuli/group1-block2/fake-group2-b2/encoded_Group2_IMG_9935.jpg,0,encoded_Group2_IMG_9935.jpg,,,,,,,,,0.0,41.0,41.0,41.0,,,,,,,,,,,,,,,1532.6602495439583,None,,,0,0.5568130470346659,1535.14437432494,None,1535.14437432494,None,,,1533.9782895549433,None,,,,,1,2022_Mar_31_1004,Real-fake-judgement-flashing-group1,2021.1.2,59.98727982043373,
195,Trial # 43,Group1-stimuli/group1-block2/fake-group2-b2/encoded_Group2_IMG_0308.jpg,0,encoded_Group2_IMG_0308.jpg,,,,,,,,,0.0,42.0,42.0,42.0,,,,,,,,,,,,,,,1535.7278244439512,None,,,0,0.4894261870067566,1538.1957028849283,None,1538.1957028849283,None,,,1537.0279974669684,None,,,,,1,2022_Mar_31_1004,Real-fake-judgement-flashing-group1,2021.1.2,59.98727982043373,
196,Trial # 44,Group1-stimuli/group1-block2/real-group1-b2/Group1_IMG_0467.jpg,1,Group1_IMG_0467.jpg,,,,,,,,,0.0,43.0,43.0,43.0,,,,,,,,,,,,,,,1538.712580848951,None,,,0,0.0410183869535103,1541.19612093491,None,1541.19612093491,None,,,1540.029452104005,None,,,,,1,2022_Mar_31_1004,Real-fake-judgement-flashing-group1,2021.1.2,59.98727982043373,
197,Trial # 45,Group1-stimuli/group1-block2/fake-group2-b2/encoded_Group2_IMG_9839.jpg,0,encoded_Group2_IMG_9839.jpg,,,,,,,,,0.0,44.0,44.0,44.0,,,,,,,,,,,,,,,1541.262576936977,None,,,1,0.2504910040879622,1543.7305840569315,None,1543.7305840569315,None,,,1542.5631539369933,None,,,,,1,2022_Mar_31_1004,Real-fake-judgement-flashing-group1,2021.1.2,59.98727982043373,
198,Trial # 46,Group1-stimuli/group1-block2/fake-group2-b2/encoded_Group2_IMG_9681.jpg,0,encoded_Group2_IMG_9681.jpg,,,,,,,,,0.0,45.0,45.0,45.0,,,,,,,,,,,,,,,1544.0139873370065,None,,,1,0.4516258389921859,1546.48152280692,None,1546.48152280692,None,,,1545.3140313989716,None,,,,,1,2022_Mar_31_1004,Real-fake-judgement-flashing-group1,2021.1.2,59.98727982043373,
199,Trial # 47,Group1-stimuli/group1-block2/fake-group2-b2/encoded_Group2_IMG_0458.jpg,0,encoded_Group2_IMG_0458.jpg,,,,,,,,,0.0,46.0,46.0,46.0,,,,,,,,,,,,,,,1546.96450323693,None,,,1,0.2533880240516737,1549.415833328967,None,1549.415833328967,None,,,1548.2492867769906,None,,,,,1,2022_Mar_31_1004,Real-fake-judgement-flashing-group1,2021.1.2,59.98727982043373,
200,Trial # 48,Group1-stimuli/group1-block2/real-group1-b2/Group1_IMG_1095.jpg,1,Group1_IMG_1095.jpg,,,,,,,,,0.0,47.0,47.0,47.0,,,,,,,,,,,,,,,1549.6988465549657,None,,,0,0.494903489947319,1552.1662363199284,None,1552.1662363199284,None,,,1551.0156471139053,None,,,,,1,2022_Mar_31_1004,Real-fake-judgement-flashing-group1,2021.1.2,59.98727982043373,
201,Trial # 49,Group1-stimuli/group1-block2/fake-group2-b2/encoded_Group2_IMG_9710.jpg,0,encoded_Group2_IMG_9710.jpg,,,,,,,,,0.0,48.0,48.0,48.0,,,,,,,,,,,,,,,1552.683620482916,None,,,1,0.1187382140196859,1555.1504346159054,None,1555.1504346159054,None,,,1554.0013153649634,None,,,,,1,2022_Mar_31_1004,Real-fake-judgement-flashing-group1,2021.1.2,59.98727982043373,
202,Trial # 50,Group1-stimuli/group1-block2/fake-group2-b2/encoded_Group2_IMG_9819.jpg,0,encoded_Group2_IMG_9819.jpg,,,,,,,,,0.0,49.0,49.0,49.0,,,,,,,,,,,,,,,1555.300812564907,None,,,1,0.1578021770110353,1557.7673379050102,None,1557.7673379050102,None,,,1556.6009865449741,None,,,,,1,2022_Mar_31_1004,Real-fake-judgement-flashing-group1,2021.1.2,59.98727982043373,
203,Trial # 51,Group1-stimuli/group1-block2/real-group1-b2/Group1_IMG_0064.jpg,1,Group1_IMG_0064.jpg,,,,,,,,,0.0,50.0,50.0,50.0,,,,,,,,,,,,,,,1557.9518114819657,None,,,0,0.5457600799854845,1560.435392135987,None,1560.435392135987,None,,,1559.3026931099594,None,,,,,1,2022_Mar_31_1004,Real-fake-judgement-flashing-group1,2021.1.2,59.98727982043373,
204,Trial # 52,Group1-stimuli/group1-block2/fake-group2-b2/encoded_Group2_IMG_9756.jpg,0,encoded_Group2_IMG_9756.jpg,,,,,,,,,0.0,51.0,51.0,51.0,,,,,,,,,,,,,,,1561.0021127070067,None,,,0,0.7112380369799212,1563.469899795018,None,1563.469899795018,None,,,1562.3691854529316,None,,,,,1,2022_Mar_31_1004,Real-fake-judgement-flashing-group1,2021.1.2,59.98727982043373,
205,Trial # 53,Group1-stimuli/group1-block2/fake-group2-b2/encoded_Group2_IMG_5888.jpg,0,encoded_Group2_IMG_5888.jpg,,,,,,,,,0.0,52.0,52.0,52.0,,,,,,,,,,,,,,,1564.2038081819192,None,,,0,1.959304293966852,1566.6539307399653,None,1566.6539307399653,None,,,1565.4864875579951,None,,,,,1,2022_Mar_31_1004,Real-fake-judgement-flashing-group1,2021.1.2,59.98727982043373,
206,Trial # 54,Group1-stimuli/group1-block2/real-group1-b2/Group1_IMG_1476.jpg,1,Group1_IMG_1476.jpg,,,,,,,,,0.0,53.0,53.0,53.0,,,,,,,,,,,,,,,1568.6392606379231,None,,,1,1.3791572509799153,1571.122034336906,None,1571.122034336906,None,,,1569.9547246759757,None,,,,,1,2022_Mar_31_1004,Real-fake-judgement-flashing-group1,2021.1.2,59.98727982043373,
207,Trial # 55,Group1-stimuli/group1-block2/real-group1-b2/Group1_IMG_1917.jpg,1,Group1_IMG_1917.jpg,,,,,,,,,0.0,54.0,54.0,54.0,,,,,,,,,,,,,,,1572.5218374159886,None,,,1,0.3022788300877437,1575.0068690959597,None,1575.0068690959597,None,,,1573.8239215689246,None,,,,,1,2022_Mar_31_1004,Real-fake-judgement-flashing-group1,2021.1.2,59.98727982043373,
208,Trial # 56,Group1-stimuli/group1-block2/real-group1-b2/Group1_IMG_0413.jpg,1,Group1_IMG_0413.jpg,,,,,,,,,0.0,55.0,55.0,55.0,,,,,,,,,,,,,,,1575.3399615539238,None,,,0,0.0289327759528532,1577.8402143709827,None,1577.8402143709827,None,,,1576.6570175229572,None,,,,,1,2022_Mar_31_1004,Real-fake-judgement-flashing-group1,2021.1.2,59.98727982043373,
209,Trial # 57,Group1-stimuli/group1-block2/real-group1-b2/Group1_IMG_1001.jpg,1,Group1_IMG_1001.jpg,,,,,,,,,0.0,56.0,56.0,56.0,,,,,,,,,,,,,,,1577.889990570955,None,,,0,0.5090291750384495,1580.3760393889388,None,1580.3760393889388,None,,,1579.2089425759623,None,,,,,1,2022_Mar_31_1004,Real-fake-judgement-flashing-group1,2021.1.2,59.98727982043373,
210,Trial # 58,Group1-stimuli/group1-block2/fake-group2-b2/encoded_Group2_IMG_0441.jpg,0,encoded_Group2_IMG_0441.jpg,,,,,,,,,0.0,57.0,57.0,57.0,,,,,,,,,,,,,,,1580.9089283569483,None,,,0,1.3399110669270158,1583.3772505569505,None,1583.3772505569505,None,,,1582.208832877921,None,,,,,1,2022_Mar_31_1004,Real-fake-judgement-flashing-group1,2021.1.2,59.98727982043373,
211,Trial # 59,Group1-stimuli/group1-block2/real-group1-b2/Group1_IMG_9774.jpg,1,Group1_IMG_9774.jpg,,,,,,,,,0.0,58.0,58.0,58.0,,,,,,,,,,,,,,,1584.7432153120171,None,,,0,0.0739673249190673,1587.2271844119532,None,1587.2271844119532,None,,,1586.0608918659855,None,,,,,1,2022_Mar_31_1004,Real-fake-judgement-flashing-group1,2021.1.2,59.98727982043373,
212,Trial # 60,Group1-stimuli/group1-block2/fake-group2-b2/encoded_Group2_IMG_2751.jpg,0,encoded_Group2_IMG_2751.jpg,,,,,,,,,0.0,59.0,59.0,59.0,,,,,,,,,,,,,,,1587.3269866409246,None,,,1,0.7054074520710856,1589.7957430270037,None,1589.7957430270037,None,,,1588.6286375449272,None,,,,,1,2022_Mar_31_1004,Real-fake-judgement-flashing-group1,2021.1.2,59.98727982043373,
213,Trial # 61,Group1-stimuli/group1-block2/fake-group2-b2/encoded_Group2_IMG_0409.jpg,0,encoded_Group2_IMG_0409.jpg,,,,,,,,,0.0,60.0,60.0,60.0,,,,,,,,,,,,,,,1590.528461389942,None,,,1,0.2656936320709064,1592.995474049938,None,1592.995474049938,None,,,1591.8282622609986,None,,,,,1,2022_Mar_31_1004,Real-fake-judgement-flashing-group1,2021.1.2,59.98727982043373,
214,Trial # 62,Group1-stimuli/group1-block2/real-group1-b2/Group1_IMG_1346.jpg,1,Group1_IMG_1346.jpg,,,,,,,,,0.0,61.0,61.0,61.0,,,,,,,,,,,,,,,1593.2802114789374,None,,,0,0.2016871629748493,1595.7634886580054,None,1595.7634886580054,None,,,1594.5970704469364,None,,,,,1,2022_Mar_31_1004,Real-fake-judgement-flashing-group1,2021.1.2,59.98727982043373,
215,Trial # 63,Group1-stimuli/group1-block2/real-group1-b2/Group1_IMG_0481.jpg,1,Group1_IMG_0481.jpg,,,,,,,,,0.0,62.0,62.0,62.0,,,,,,,,,,,,,,,1595.9964352879906,None,,,1,0.2758711180649698,1598.4651901819743,None,1598.4651901819743,None,,,1597.2967155659571,None,,,,,1,2022_Mar_31_1004,Real-fake-judgement-flashing-group1,2021.1.2,59.98727982043373,
216,Trial # 64,Group1-stimuli/group1-block2/fake-group2-b2/encoded_Group2_IMG_4718.jpg,0,encoded_Group2_IMG_4718.jpg,,,,,,,,,0.0,63.0,63.0,63.0,,,,,,,,,,,,,,,1598.7654404710047,None,,,0,3.038237374043092,1601.2309102959698,None,1601.2309102959698,None,,,1600.0650656379294,None,,,,,1,2022_Mar_31_1004,Real-fake-judgement-flashing-group1,2021.1.2,59.98727982043373,
217,Trial # 65,Group1-stimuli/group1-block2/real-group1-b2/Group1_IMG_0540.jpg,1,Group1_IMG_0540.jpg,,,,,,,,,0.0,64.0,64.0,64.0,,,,,,,,,,,,,,,1604.299790304969,None,,,0,0.3262962170410901,1606.7668548809595,None,1606.7668548809595,None,,,1605.599161576014,None,,,,,1,2022_Mar_31_1004,Real-fake-judgement-flashing-group1,2021.1.2,59.98727982043373,
218,Trial # 66,Group1-stimuli/group1-block2/fake-group2-b2/encoded_Group2_IMG_0166.jpg,0,encoded_Group2_IMG_0166.jpg,,,,,,,,,0.0,65.0,65.0,65.0,,,,,,,,,,,,,,,1607.1162675869418,None,,,1,0.3074386620428413,1609.6177129249554,None,1609.6177129249554,None,,,1608.434757262934,None,,,,,1,2022_Mar_31_1004,Real-fake-judgement-flashing-group1,2021.1.2,59.98727982043373,
219,Trial # 67,Group1-stimuli/group1-block2/fake-group2-b2/encoded_Group2_IMG_0412.jpg,0,encoded_Group2_IMG_0412.jpg,,,,,,,,,0.0,66.0,66.0,66.0,,,,,,,,,,,,,,,1609.9504442679463,None,,,1,0.5073734800098464,1612.4017742199358,None,1612.4017742199358,None,,,1611.2341761259595,None,,,,,1,2022_Mar_31_1004,Real-fake-judgement-flashing-group1,2021.1.2,59.98727982043373,
220,Trial # 68,Group1-stimuli/group1-block2/real-group1-b2/Group1_IMG_0485.jpg,1,Group1_IMG_0485.jpg,,,,,,,,,0.0,67.0,67.0,67.0,,,,,,,,,,,,,,,1612.9354839789448,None,,,1,0.3150123889790848,1615.4020558659686,None,1615.4020558659686,None,,,1614.25323875295,None,,,,,1,2022_Mar_31_1004,Real-fake-judgement-flashing-group1,2021.1.2,59.98727982043373,
221,Trial # 69,Group1-stimuli/group1-block2/fake-group2-b2/encoded_Group2_IMG_1495.jpg,0,encoded_Group2_IMG_1495.jpg,,,,,,,,,0.0,68.0,68.0,68.0,,,,,,,,,,,,,,,1615.7361396389315,None,,,0,0.8492963600438088,1618.2038378180005,None,1618.2038378180005,None,,,1617.0361112779938,None,,,,,1,2022_Mar_31_1004,Real-fake-judgement-flashing-group1,2021.1.2,59.98727982043373,
222,Trial # 70,Group1-stimuli/group1-block2/real-group1-b2/Group1_IMG_0426.jpg,1,Group1_IMG_0426.jpg,,,,,,,,,0.0,69.0,69.0,69.0,,,,,,,,,,,,,,,1619.0715763439655,None,,,0,0.4437054611044004,1621.5374432069948,None,1621.5374432069948,None,,,1620.3705919479253,None,,,,,1,2022_Mar_31_1004,Real-fake-judgement-flashing-group1,2021.1.2,59.98727982043373,
223,Trial # 71,Group1-stimuli/group1-block2/real-group1-b2/Group1_IMG_0349.jpg,1,Group1_IMG_0349.jpg,,,,,,,,,0.0,70.0,70.0,70.0,,,,,,,,,,,,,,,1622.0045970419887,None,,,1,0.252000065986067,1624.4731532159494,None,1624.4731532159494,None,,,1623.3056585519807,None,,,,,1,2022_Mar_31_1004,Real-fake-judgement-flashing-group1,2021.1.2,59.98727982043373,
224,Trial # 72,Group1-stimuli/group1-block2/real-group1-b2/Group1_IMG_0414.jpg,1,Group1_IMG_0414.jpg,,,,,,,,,0.0,71.0,71.0,71.0,,,,,,,,,,,,,,,1624.7568059579935,None,,,1,0.3579098720801994,1627.2392295380123,None,1627.2392295380123,None,,,1626.0723027049098,None,,,,,1,2022_Mar_31_1004,Real-fake-judgement-flashing-group1,2021.1.2,59.98727982043373,
225,Trial # 73,Group1-stimuli/group1-block2/fake-group2-b2/encoded_Group2_IMG_9856.jpg,0,encoded_Group2_IMG_9856.jpg,,,,,,,,,0.0,72.0,72.0,72.0,,,,,,,,,,,,,,,1627.622373690945,None,,,1,0.2659736790228635,1630.0911211509956,None,1630.0911211509956,None,,,1628.924281865009,None,,,,,1,2022_Mar_31_1004,Real-fake-judgement-flashing-group1,2021.1.2,59.98727982043373,
226,Trial # 74,Group1-stimuli/group1-block2/fake-group2-b2/encoded_Group2_IMG_5313.jpg,0,encoded_Group2_IMG_5313.jpg,,,,,,,,,0.0,73.0,73.0,73.0,,,,,,,,,,,,,,,1630.3903893599054,None,,,0,0.3387741589685902,1632.8583626960171,None,1632.8583626960171,None,,,1631.6738771889359,None,,,,,1,2022_Mar_31_1004,Real-fake-judgement-flashing-group1,2021.1.2,59.98727982043373,
227,Trial # 75,Group1-stimuli/group1-block2/fake-group2-b2/encoded_Group2_IMG_0421.jpg,0,encoded_Group2_IMG_0421.jpg,,,,,,,,,0.0,74.0,74.0,74.0,,,,,,,,,,,,,,,1633.2259038109332,None,,,0,0.4086427669972181,1635.7085068919696,None,1635.7085068919696,None,,,1634.5262401839718,None,,,,,1,2022_Mar_31_1004,Real-fake-judgement-flashing-group1,2021.1.2,59.98727982043373,
228,Trial # 76,Group1-stimuli/group1-block2/fake-group2-b2/encoded_Group2_IMG_0446.jpg,0,encoded_Group2_IMG_0446.jpg,,,,,,,,,0.0,75.0,75.0,75.0,,,,,,,,,,,,,,,1636.1420168959305,None,,,1,0.9945562420180069,1638.6106023489265,None,1638.6106023489265,None,,,1637.425384884933,None,,,,,1,2022_Mar_31_1004,Real-fake-judgement-flashing-group1,2021.1.2,59.98727982043373,
229,Trial # 77,Group1-stimuli/group1-block2/real-group1-b2/Group1_IMG_5999.jpg,1,Group1_IMG_5999.jpg,,,,,,,,,0.0,76.0,76.0,76.0,,,,,,,,,,,,,,,1639.628140432993,None,,,1,0.2303443819982931,1642.1107963119866,None,1642.1107963119866,None,,,1640.960319177946,None,,,,,1,2022_Mar_31_1004,Real-fake-judgement-flashing-group1,2021.1.2,59.98727982043373,
230,Trial # 78,Group1-stimuli/group1-block2/real-group1-b2/Group1_IMG_0107.jpg,1,Group1_IMG_0107.jpg,,,,,,,,,0.0,77.0,77.0,77.0,,,,,,,,,,,,,,,1642.3613062619695,None,,,0,0.2805337279569357,1644.8286345769884,None,1644.8286345769884,None,,,1643.662253749906,None,,,,,1,2022_Mar_31_1004,Real-fake-judgement-flashing-group1,2021.1.2,59.98727982043373,
231,Trial # 79,Group1-stimuli/group1-block2/fake-group2-b2/encoded_Group2_IMG_0322.jpg,0,encoded_Group2_IMG_0322.jpg,,,,,,,,,0.0,78.0,78.0,78.0,,,,,,,,,,,,,,,1645.1296266919237,None,,,1,0.3208173579769209,1647.6123241209425,None,1647.6123241209425,None,,,1646.461909214966,None,,,,,1,2022_Mar_31_1004,Real-fake-judgement-flashing-group1,2021.1.2,59.98727982043373,
232,Trial # 80,Group1-stimuli/group1-block2/fake-group2-b2/encoded_Group2_IMG_4255.jpg,0,encoded_Group2_IMG_4255.jpg,,,,,,,,,0.0,79.0,79.0,79.0,,,,,,,,,,,,,,,1647.9622728519607,None,,,0,0.3911757790483534,1650.429983909009,None,1650.429983909009,None,,,1649.264007619,None,,,,,1,2022_Mar_31_1004,Real-fake-judgement-flashing-group1,2021.1.2,59.98727982043373,
233,Trial # 81,Group1-stimuli/group1-block2/fake-group2-b2/encoded_Group2_IMG_0219.jpg,0,encoded_Group2_IMG_0219.jpg,,,,,,,,,0.0,80.0,80.0,80.0,,,,,,,,,,,,,,,1650.8467002129182,None,,,0,0.5056453809374943,1653.3154492059257,None,1653.3154492059257,None,,,1652.1470751799643,None,,,,,1,2022_Mar_31_1004,Real-fake-judgement-flashing-group1,2021.1.2,59.98727982043373,
234,Trial # 82,Group1-stimuli/group1-block2/real-group1-b2/Group1_IMG_0548.jpg,1,Group1_IMG_0548.jpg,,,,,,,,,0.0,81.0,81.0,81.0,,,,,,,,,,,,,,,1653.8480766059365,None,,,1,0.5294427040498704,1656.3317085129677,None,1656.3317085129677,None,,,1655.1646025140071,None,,,,,1,2022_Mar_31_1004,Real-fake-judgement-flashing-group1,2021.1.2,59.98727982043373,
235,Trial # 83,Group1-stimuli/group1-block2/real-group1-b2/Group1_IMG_0229.jpg,1,Group1_IMG_0229.jpg,,,,,,,,,0.0,82.0,82.0,82.0,,,,,,,,,,,,,,,1656.8818917080062,None,,,0,1.1026208909461277,1659.3505895619746,None,1659.3505895619746,None,,,1658.2001234649215,None,,,,,1,2022_Mar_31_1004,Real-fake-judgement-flashing-group1,2021.1.2,59.98727982043373,
236,Trial # 84,Group1-stimuli/group1-block2/fake-group2-b2/encoded_Group2_IMG_0365.jpg,0,encoded_Group2_IMG_0365.jpg,,,,,,,,,0.0,83.0,83.0,83.0,,,,,,,,,,,,,,,1660.483555483981,None,,,1,1.087853225064464,1662.9333248370094,None,1662.9333248370094,None,,,1661.7667980960105,None,,,,,1,2022_Mar_31_1004,Real-fake-judgement-flashing-group1,2021.1.2,59.98727982043373,
237,Trial # 85,Group1-stimuli/group1-block2/real-group1-b2/Group1_IMG_9822.jpg,1,Group1_IMG_9822.jpg,,,,,,,,,0.0,84.0,84.0,84.0,,,,,,,,,,,,,,,1664.0512403199682,None,,,0,1.078283654991537,1666.5348665039055,None,1666.5348665039055,None,,,1665.368935017963,None,,,,,1,2022_Mar_31_1004,Real-fake-judgement-flashing-group1,2021.1.2,59.98727982043373,
238,Trial # 86,Group1-stimuli/group1-block2/fake-group2-b2/encoded_Group2_IMG_0195.jpg,0,encoded_Group2_IMG_0195.jpg,,,,,,,,,0.0,85.0,85.0,85.0,,,,,,,,,,,,,,,1667.6357192929136,None,,,0,0.94244776701089,1670.1026925599435,None,1670.1026925599435,None,,,1668.9365978329442,None,,,,,1,2022_Mar_31_1004,Real-fake-judgement-flashing-group1,2021.1.2,59.98727982043373,
239,Trial # 87,Group1-stimuli/group1-block2/fake-group2-b2/encoded_Group2_IMG_0494.jpg,0,encoded_Group2_IMG_0494.jpg,,,,,,,,,0.0,86.0,86.0,86.0,,,,,,,,,,,,,,,1671.0697443329263,None,,,1,0.4436940570594743,1673.537446822971,None,1673.537446822971,None,,,1672.3698116060114,None,,,,,1,2022_Mar_31_1004,Real-fake-judgement-flashing-group1,2021.1.2,59.98727982043373,
240,Trial # 88,Group1-stimuli/group1-block2/real-group1-b2/Group1_IMG_0509.jpg,1,Group1_IMG_0509.jpg,,,,,,,,,0.0,87.0,87.0,87.0,,,,,,,,,,,,,,,1674.005293732975,None,,,0,2.229537509963848,1676.4716138249496,None,1676.4716138249496,None,,,1675.3052156829508,None,,,,,1,2022_Mar_31_1004,Real-fake-judgement-flashing-group1,2021.1.2,59.98727982043373,
241,Trial # 89,Group1-stimuli/group1-block2/fake-group2-b2/encoded_Group2_IMG_8924.jpg,0,encoded_Group2_IMG_8924.jpg,,,,,,,,,0.0,88.0,88.0,88.0,,,,,,,,,,,,,,,1678.723194079008,None,,,0,0.2557692729169503,1681.1894163310062,None,1681.1894163310062,None,,,1680.0222020009533,None,,,,,1,2022_Mar_31_1004,Real-fake-judgement-flashing-group1,2021.1.2,59.98727982043373,
242,Trial # 90,Group1-stimuli/group1-block2/real-group1-b2/Group1_IMG_0360.jpg,1,Group1_IMG_0360.jpg,,,,,,,,,0.0,89.0,89.0,89.0,,,,,,,,,,,,,,,1681.4730377749074,None,,,0,0.304460495011881,1683.9406906180084,None,1683.9406906180084,None,,,1682.7894156039692,None,,,,,1,2022_Mar_31_1004,Real-fake-judgement-flashing-group1,2021.1.2,59.98727982043373,
243,Trial # 91,Group1-stimuli/group1-block2/fake-group2-b2/encoded_Group2_IMG_0523.jpg,0,encoded_Group2_IMG_0523.jpg,,,,,,,,,0.0,90.0,90.0,90.0,,,,,,,,,,,,,,,1684.2747112020152,None,,,0,0.1440964939538389,1686.741054362967,None,1686.741054362967,None,,,1685.5739485889208,None,,,,,1,2022_Mar_31_1004,Real-fake-judgement-flashing-group1,2021.1.2,59.98727982043373,
244,Trial # 92,Group1-stimuli/group1-block2/real-group1-b2/Group1_IMG_0518.jpg,1,Group1_IMG_0518.jpg,,,,,,,,,0.0,91.0,91.0,91.0,,,,,,,,,,,,,,,1686.907766786986,None,,,1,0.7574199079535902,1689.3757212799974,None,1689.3757212799974,None,,,1688.2092102050083,None,,,,,1,2022_Mar_31_1004,Real-fake-judgement-flashing-group1,2021.1.2,59.98727982043373,
245,Trial # 93,Group1-stimuli/group1-block2/fake-group2-b2/encoded_Group2_IMG_0372.jpg,0,encoded_Group2_IMG_0372.jpg,,,,,,,,,0.0,92.0,92.0,92.0,,,,,,,,,,,,,,,1690.1601189789362,None,,,0,1.066899332916364,1692.6262767469743,None,1692.6262767469743,None,,,1691.4590945139062,None,,,,,1,2022_Mar_31_1004,Real-fake-judgement-flashing-group1,2021.1.2,59.98727982043373,
246,Trial # 94,Group1-stimuli/group1-block2/fake-group2-b2/encoded_Group2_IMG_9761.jpg,0,encoded_Group2_IMG_9761.jpg,,,,,,,,,0.0,93.0,93.0,93.0,,,,,,,,,,,,,,,1693.7112079779615,None,,,0,0.195774788968265,1696.177364884992,None,1696.177364884992,None,,,1695.0113802639535,None,,,,,1,2022_Mar_31_1004,Real-fake-judgement-flashing-group1,2021.1.2,59.98727982043373,
247,Trial # 95,Group1-stimuli/group1-block2/real-group1-b2/Group1_IMG_2690.jpg,1,Group1_IMG_2690.jpg,,,,,,,,,0.0,94.0,94.0,94.0,,,,,,,,,,,,,,,1696.3949494779808,None,,,1,0.3748327479697764,1698.8623077599332,None,1698.8623077599332,None,,,1697.7110425540013,None,,,,,1,2022_Mar_31_1004,Real-fake-judgement-flashing-group1,2021.1.2,59.98727982043373,
248,Trial # 96,Group1-stimuli/group1-block2/real-group1-b2/Group1_IMG_9855.jpg,1,Group1_IMG_9855.jpg,,,,,,,,,0.0,95.0,95.0,95.0,,,,,,,,,,,,,,,1699.2615868269932,None,,,1,0.3395735450321808,1701.7455566619756,None,1701.7455566619756,None,,,1700.6119415889261,None,,,,,1,2022_Mar_31_1004,Real-fake-judgement-flashing-group1,2021.1.2,59.98727982043373,
249,Trial # 97,Group1-stimuli/group1-block2/fake-group2-b2/encoded_Group2_IMG_0470.jpg,0,encoded_Group2_IMG_0470.jpg,,,,,,,,,0.0,96.0,96.0,96.0,,,,,,,,,,,,,,,1702.112697083969,None,,,1,0.3213888340396806,1704.563756765914,None,1704.563756765914,None,,,1703.3974206359126,None,,,,,1,2022_Mar_31_1004,Real-fake-judgement-flashing-group1,2021.1.2,59.98727982043373,
250,Trial # 98,Group1-stimuli/group1-block2/fake-group2-b2/encoded_Group2_IMG_1191.jpg,0,encoded_Group2_IMG_1191.jpg,,,,,,,,,0.0,97.0,97.0,97.0,,,,,,,,,,,,,,,1704.9136711849133,None,,,1,1.4244514330057427,1707.3806900259806,None,1707.3806900259806,None,,,1706.1968684189487,None,,,,,1,2022_Mar_31_1004,Real-fake-judgement-flashing-group1,2021.1.2,59.98727982043373,
251,Trial # 99,Group1-stimuli/group1-block2/real-group1-b2/Group1_IMG_9937.jpg,1,Group1_IMG_9937.jpg,,,,,,,,,0.0,98.0,98.0,98.0,,,,,,,,,,,,,,,1708.8323331149295,None,,,1,0.3058234259951859,1711.3152950860094,None,1711.3152950860094,None,,,1710.1318072510185,None,,,,,1,2022_Mar_31_1004,Real-fake-judgement-flashing-group1,2021.1.2,59.98727982043373,
252,Trial # 100,Group1-stimuli/group1-block2/fake-group2-b2/encoded_Group2_IMG_0106.jpg,0,encoded_Group2_IMG_0106.jpg,,,,,,,,,0.0,99.0,99.0,99.0,,,,,,,,,,,,,,,1711.6489113880089,None,,,1,0.2798912329599261,1714.11727835692,None,1714.11727835692,None,,,1712.9492278000107,None,,,,,1,2022_Mar_31_1004,Real-fake-judgement-flashing-group1,2021.1.2,59.98727982043373,
253,Trial # 101,Group1-stimuli/group1-block2/real-group1-b2/Group1_IMG_2790.jpg,1,Group1_IMG_2790.jpg,,,,,,,,,0.0,100.0,100.0,100.0,,,,,,,,,,,,,,,1714.4163629469697,None,,,1,0.4253022589255124,1716.8838453500066,None,1716.8838453500066,None,,,1715.7166734329658,None,,,,,1,2022_Mar_31_1004,Real-fake-judgement-flashing-group1,2021.1.2,59.98727982043373,
254,Trial # 102,Group1-stimuli/group1-block2/real-group1-b2/Group1_IMG_9792.jpg,1,Group1_IMG_9792.jpg,,,,,,,,,0.0,101.0,101.0,101.0,,,,,,,,,,,,,,,1717.3339836029336,None,,,1,0.6587928190128878,1719.8023590280209,None,1719.8023590280209,None,,,1718.652219684911,None,,,,,1,2022_Mar_31_1004,Real-fake-judgement-flashing-group1,2021.1.2,59.98727982043373,
255,Trial # 103,Group1-stimuli/group1-block2/real-group1-b2/Group1_IMG_1640.jpg,1,Group1_IMG_1640.jpg,,,,,,,,,0.0,102.0,102.0,102.0,,,,,,,,,,,,,,,1720.4859145339578,None,,,1,0.2204627130413428,1722.9686878079085,None,1722.9686878079085,None,,,1721.8018060079776,None,,,,,1,2022_Mar_31_1004,Real-fake-judgement-flashing-group1,2021.1.2,59.98727982043373,
256,Trial # 104,Group1-stimuli/group1-block2/real-group1-b2/Group1_IMG_0033.jpg,1,Group1_IMG_0033.jpg,,,,,,,,,0.0,103.0,103.0,103.0,,,,,,,,,,,,,,,1723.219918509014,None,,,0,0.4618720030412078,1725.7032665159786,None,1725.7032665159786,None,,,1724.5372670280049,None,,,,,1,2022_Mar_31_1004,Real-fake-judgement-flashing-group1,2021.1.2,59.98727982043373,
257,Trial # 105,Group1-stimuli/group1-block2/real-group1-b2/Group1_IMG_0079.jpg,1,Group1_IMG_0079.jpg,,,,,,,,,0.0,104.0,104.0,104.0,,,,,,,,,,,,,,,1726.1876775809797,None,,,1,0.9989125819411128,1728.6542394489516,None,1728.6542394489516,None,,,1727.5035398559412,None,,,,,1,2022_Mar_31_1004,Real-fake-judgement-flashing-group1,2021.1.2,59.98727982043373,
258,Trial # 106,Group1-stimuli/group1-block2/fake-group2-b2/encoded_Group2_IMG_9909.jpg,0,encoded_Group2_IMG_9909.jpg,,,,,,,,,0.0,105.0,105.0,105.0,,,,,,,,,,,,,,,1729.6712193719577,None,,,1,0.3467194410040974,1732.138419226976,None,1732.138419226976,None,,,1730.9714373250026,None,,,,,1,2022_Mar_31_1004,Real-fake-judgement-flashing-group1,2021.1.2,59.98727982043373,
259,Trial # 107,Group1-stimuli/group1-block2/fake-group2-b2/encoded_Group2_IMG_0398.jpg,0,encoded_Group2_IMG_0398.jpg,,,,,,,,,0.0,106.0,106.0,106.0,,,,,,,,,,,,,,,1732.5058033029782,None,,,1,0.3527520940406248,1734.956331803929,None,1734.956331803929,None,,,1733.7901453690138,None,,,,,1,2022_Mar_31_1004,Real-fake-judgement-flashing-group1,2021.1.2,59.98727982043373,
260,Trial # 108,Group1-stimuli/group1-block2/real-group1-b2/Group1_IMG_4268.jpg,1,Group1_IMG_4268.jpg,,,,,,,,,0.0,107.0,107.0,107.0,,,,,,,,,,,,,,,1735.3397758639185,None,,,0,0.3579025559592992,1737.8232379009714,None,1737.8232379009714,None,,,1736.6397757139057,None,,,,,1,2022_Mar_31_1004,Real-fake-judgement-flashing-group1,2021.1.2,59.98727982043373,
261,Trial # 109,Group1-stimuli/group1-block2/fake-group2-b2/encoded_Group2_IMG_9321.jpg,0,encoded_Group2_IMG_9321.jpg,,,,,,,,,0.0,108.0,108.0,108.0,,,,,,,,,,,,,,,1738.208511932986,None,,,0,0.3393167940666899,1740.6578346489696,None,1740.6578346489696,None,,,1739.4916913649067,None,,,,,1,2022_Mar_31_1004,Real-fake-judgement-flashing-group1,2021.1.2,59.98727982043373,
262,Trial # 110,Group1-stimuli/group1-block2/fake-group2-b2/encoded_Group2_IMG_9964.jpg,0,encoded_Group2_IMG_9964.jpg,,,,,,,,,0.0,109.0,109.0,109.0,,,,,,,,,,,,,,,1741.0253255299758,None,,,1,0.3271599120926112,1743.509979518945,None,1743.509979518945,None,,,1742.3246292539407,None,,,,,1,2022_Mar_31_1004,Real-fake-judgement-flashing-group1,2021.1.2,59.98727982043373,
263,Trial # 111,Group1-stimuli/group1-block2/real-group1-b2/Group1_IMG_0329.jpg,1,Group1_IMG_0329.jpg,,,,,,,,,0.0,110.0,110.0,110.0,,,,,,,,,,,,,,,1743.8600666449638,None,,,0,0.4624140330124646,1746.342712595011,None,1746.342712595011,None,,,1745.1756518029142,None,,,,,1,2022_Mar_31_1004,Real-fake-judgement-flashing-group1,2021.1.2,59.98727982043373,
264,Trial # 112,Group1-stimuli/group1-block2/fake-group2-b2/encoded_Group2_IMG_0534.jpg,0,encoded_Group2_IMG_0534.jpg,,,,,,,,,0.0,111.0,111.0,111.0,,,,,,,,,,,,,,,1746.826498173992,None,,,0,0.7500683529069647,1749.2949850069126,None,1749.2949850069126,None,,,1748.1277848680038,None,,,,,1,2022_Mar_31_1004,Real-fake-judgement-flashing-group1,2021.1.2,59.98727982043373,
265,Trial # 113,Group1-stimuli/group1-block2/fake-group2-b2/encoded_Group2_IMG_0054.jpg,0,encoded_Group2_IMG_0054.jpg,,,,,,,,,0.0,112.0,112.0,112.0,,,,,,,,,,,,,,,1750.0782451919513,None,,,0,0.7478902399307117,1752.5612745470137,None,1752.5612745470137,None,,,1751.3775778019335,None,,,,,1,2022_Mar_31_1004,Real-fake-judgement-flashing-group1,2021.1.2,59.98727982043373,
266,Trial # 114,Group1-stimuli/group1-block2/real-group1-b2/Group1_IMG_9979.jpg,1,Group1_IMG_9979.jpg,,,,,,,,,0.0,113.0,113.0,113.0,,,,,,,,,,,,,,,1753.3299854740037,None,,,0,1.4167232069885358,1755.81243245292,None,1755.81243245292,None,,,1754.6299490840174,None,,,,,1,2022_Mar_31_1004,Real-fake-judgement-flashing-group1,2021.1.2,59.98727982043373,
267,Trial # 115,Group1-stimuli/group1-block2/real-group1-b2/Group1_IMG_0170.jpg,1,Group1_IMG_0170.jpg,,,,,,,,,0.0,114.0,114.0,114.0,,,,,,,,,,,,,,,1757.2459458499216,None,,,1,0.219292975962162,1759.7138418379473,None,1759.7138418379473,None,,,1758.5645936289802,None,,,,,1,2022_Mar_31_1004,Real-fake-judgement-flashing-group1,2021.1.2,59.98727982043373,
268,Trial # 116,Group1-stimuli/group1-block2/fake-group2-b2/encoded_Group2_IMG_0007.jpg,0,encoded_Group2_IMG_0007.jpg,,,,,,,,,0.0,115.0,115.0,115.0,,,,,,,,,,,,,,,1759.9649990489706,None,,,0,0.7738941659918055,1762.4312538430097,None,1762.4312538430097,None,,,1761.2639470109716,None,,,,,1,2022_Mar_31_1004,Real-fake-judgement-flashing-group1,2021.1.2,59.98727982043373,
269,Trial # 117,Group1-stimuli/group1-block2/real-group1-b2/Group1_IMG_0192.jpg,1,Group1_IMG_0192.jpg,,,,,,,,,0.0,116.0,116.0,116.0,,,,,,,,,,,,,,,1763.2329138249625,None,,,0,0.1048996510216966,1765.7322590919212,None,1765.7322590919212,None,,,1764.5495346329408,None,,,,,1,2022_Mar_31_1004,Real-fake-judgement-flashing-group1,2021.1.2,59.98727982043373,
270,Trial # 118,Group1-stimuli/group1-block2/real-group1-b2/Group1_IMG_9786.jpg,1,Group1_IMG_9786.jpg,,,,,,,,,0.0,117.0,117.0,117.0,,,,,,,,,,,,,,,1765.8654002989642,None,,,0,0.527250473969616,1768.3339045339962,None,1768.3339045339962,None,,,1767.1824609889882,None,,,,,1,2022_Mar_31_1004,Real-fake-judgement-flashing-group1,2021.1.2,59.98727982043373,
271,Trial # 119,Group1-stimuli/group1-block2/real-group1-b2/Group1_IMG_0187.jpg,1,Group1_IMG_0187.jpg,,,,,,,,,0.0,118.0,118.0,118.0,,,,,,,,,,,,,,,1768.8845110459952,None,,,0,0.245855808025226,1771.367325817002,None,1771.367325817002,None,,,1770.2011248340132,None,,,,,1,2022_Mar_31_1004,Real-fake-judgement-flashing-group1,2021.1.2,59.98727982043373,
272,Trial # 120,Group1-stimuli/group1-block2/fake-group2-b2/encoded_Group2_IMG_0249.jpg,0,encoded_Group2_IMG_0249.jpg,,,,,,,,,0.0,119.0,119.0,119.0,,,,,,,,,,,,,,,1771.6340018649353,None,,,1,0.1186048209201544,1774.1025526219746,None,1774.1025526219746,None,,,1772.9504737209063,None,,,,,1,2022_Mar_31_1004,Real-fake-judgement-flashing-group1,2021.1.2,59.98727982043373,
273,Trial # 121,Group1-stimuli/group1-block2/fake-group2-b2/encoded_Group2_IMG_0074.jpg,0,encoded_Group2_IMG_0074.jpg,,,,,,,,,0.0,120.0,120.0,120.0,,,,,,,,,,,,,,,1774.2528693629429,None,,,1,1.5096070299623534,1776.7355425119167,None,1776.7355425119167,None,,,1775.5684652630007,None,,,,,1,2022_Mar_31_1004,Real-fake-judgement-flashing-group1,2021.1.2,59.98727982043373,
274,Trial # 122,Group1-stimuli/group1-block2/real-group1-b2/Group1_IMG_0243.jpg,1,Group1_IMG_0243.jpg,,,,,,,,,0.0,121.0,121.0,121.0,,,,,,,,,,,,,,,1778.2699729149465,None,,,1,0.7725112910848111,1780.736640017014,None,1780.736640017014,None,,,1779.570923503954,None,,,,,1,2022_Mar_31_1004,Real-fake-judgement-flashing-group1,2021.1.2,59.98727982043373,
275,Trial # 123,Group1-stimuli/group1-block2/real-group1-b2/Group1_IMG_0130.jpg,1,Group1_IMG_0130.jpg,,,,,,,,,0.0,122.0,122.0,122.0,,,,,,,,,,,,,,,1781.5374672459438,None,,,0,0.7361879589734599,1784.0049523599446,None,1784.0049523599446,None,,,1782.8539527759422,None,,,,,1,2022_Mar_31_1004,Real-fake-judgement-flashing-group1,2021.1.2,59.98727982043373,
276,Trial # 124,Group1-stimuli/group1-block2/real-group1-b2/Group1_IMG_0298.jpg,1,Group1_IMG_0298.jpg,,,,,,,,,0.0,123.0,123.0,123.0,,,,,,,,,,,,,,,1784.7714906119509,None,,,0,0.661777056986466,1787.2554260279285,None,1787.2554260279285,None,,,1786.0884247369831,None,,,,,1,2022_Mar_31_1004,Real-fake-judgement-flashing-group1,2021.1.2,59.98727982043373,
277,Trial # 125,Group1-stimuli/group1-block2/real-group1-b2/Group1_IMG_5871.jpg,1,Group1_IMG_5871.jpg,,,,,,,,,0.0,124.0,124.0,124.0,,,,,,,,,,,,,,,1787.939160687965,None,,,1,2.349226185935549,1790.439942852012,None,1790.439942852012,None,,,1789.2572539909743,None,,,,,1,2022_Mar_31_1004,Real-fake-judgement-flashing-group1,2021.1.2,59.98727982043373,
