,Trial_num,image_path,ground_truth,image_name,demos.thisRepN,demos.thisTrialN,demos.thisN,demos.thisIndex,block1.thisRepN,block1.thisTrialN,block1.thisN,block1.thisIndex,block2.thisRepN,block2.thisTrialN,block2.thisN,block2.thisIndex,block1_rep2.thisRepN,block1_rep2.thisTrialN,block1_rep2.thisN,block1_rep2.thisIndex,block2_rep.thisRepN,block2_rep.thisTrialN,block2_rep.thisN,block2_rep.thisIndex,text_3.started,text_3.stopped,text_4.started,text_4.stopped,text.started,text.stopped,trail_num.started,trail_num.stopped,image_6.started,image_6.stopped,Judgement.keys,Judgement.rt,Judgement.started,Judgement.stopped,text_19.started,text_19.stopped,text_12.started,text_12.stopped,image.started,image.stopped,text_2.started,text_2.stopped,text_13.started,text_13.stopped,session,date,expName,psychopyVersion,frameRate,Unnamed: 54
0,Demo 1,demo/Demo_IMG_0974.jpg,demo,Demo_IMG_0974.jpg,0.0,0.0,0.0,0.0,,,,,,,,,,,,,,,,,13.932253728155048,None,20.483575029997155,None,35.20938476594165,None,37.36230149702169,None,38.7056998249609,None,1,6.333798289066181,39.8061625410337,None,39.8061625410337,None,,,,,,,,,1,2022_Apr_14_1116,Real-fake-judgement-flashing-group1,2021.1.2,59.94443721065973,
1,Demo 2,demo/Demo_IMG_1024.jpg,demo,Demo_IMG_1024.jpg,0.0,1.0,1.0,1.0,,,,,,,,,,,,,,,,,,,,,,,46.15951218293048,None,47.52623314107768,None,0,1.041642818134278,48.64233007095754,None,48.64233007095754,None,,,,,,,,,1,2022_Apr_14_1116,Real-fake-judgement-flashing-group1,2021.1.2,59.94443721065973,
2,Demo 3,demo/Demo_seed_80003.png,demo,Demo_seed_80003.png,0.0,2.0,2.0,2.0,,,,,,,,,,,,,,,,,,,,,,,49.709505648119375,None,51.07639893493615,None,1,0.5467154020443559,52.17728114803322,None,52.17728114803322,None,,,,,,,,,1,2022_Apr_14_1116,Real-fake-judgement-flashing-group1,2021.1.2,59.94443721065973,
3,Trial # 1,Group1-stimuli/group1-block1/real-group1-b1/Group1_IMG_0022.jpg,1,Group1_IMG_0022.jpg,,,,,0.0,0.0,0.0,0.0,,,,,,,,,,,,,,,,,,,61.53007167298347,None,,,1,0.6867119059897959,63.99723854404874,None,63.99723854404874,None,53.22709577810019,None,62.83101068995893,None,,,,,1,2022_Apr_14_1116,Real-fake-judgement-flashing-group1,2021.1.2,59.94443721065973,
4,Trial # 2,Group1-stimuli/group1-block1/fake-group2-b1/encoded_Group2_IMG_0386.jpg,0,encoded_Group2_IMG_0386.jpg,,,,,0.0,1.0,1.0,1.0,,,,,,,,,,,,,,,,,,,64.71433513402008,None,,,0,0.4613125640898943,67.18268499313854,None,67.18268499313854,None,,,66.03044239012524,None,,,,,1,2022_Apr_14_1116,Real-fake-judgement-flashing-group1,2021.1.2,59.94443721065973,
5,Trial # 3,Group1-stimuli/group1-block1/real-group1-b1/Group1_IMG_9704.jpg,1,Group1_IMG_9704.jpg,,,,,0.0,2.0,2.0,2.0,,,,,,,,,,,,,,,,,,,67.66616491903551,None,,,1,0.6230325179640204,70.14891813695431,None,70.14891813695431,None,,,68.99857369507663,None,,,,,1,2022_Apr_14_1116,Real-fake-judgement-flashing-group1,2021.1.2,59.94443721065973,
6,Trial # 4,Group1-stimuli/group1-block1/real-group1-b1/Group1_IMG_0406.jpg,1,Group1_IMG_0406.jpg,,,,,0.0,3.0,3.0,3.0,,,,,,,,,,,,,,,,,,,70.7989770269487,None,,,1,0.7366918199695647,73.28325877012685,None,73.28325877012685,None,,,72.11743096308783,None,,,,,1,2022_Apr_14_1116,Real-fake-judgement-flashing-group1,2021.1.2,59.94443721065973,
7,Trial # 5,Group1-stimuli/group1-block1/fake-group2-b1/encoded_Group2_IMG_0364.jpg,0,encoded_Group2_IMG_0364.jpg,,,,,0.0,4.0,4.0,4.0,,,,,,,,,,,,,,,,,,,74.0501135031227,None,,,0,0.5660415820311755,76.51790747512132,None,76.51790747512132,None,,,75.35098595893942,None,,,,,1,2022_Apr_14_1116,Real-fake-judgement-flashing-group1,2021.1.2,59.94443721065973,
8,Trial # 6,Group1-stimuli/group1-block1/fake-group2-b1/encoded_Group2_IMG_0407.jpg,0,encoded_Group2_IMG_0407.jpg,,,,,0.0,5.0,5.0,5.0,,,,,,,,,,,,,,,,,,,77.10246731014922,None,,,1,0.618628207128495,79.58532212395221,None,79.58532212395221,None,,,78.4182315680664,None,,,,,1,2022_Apr_14_1116,Real-fake-judgement-flashing-group1,2021.1.2,59.94443721065973,
9,Trial # 7,Group1-stimuli/group1-block1/real-group1-b1/Group1_IMG_0428.jpg,1,Group1_IMG_0428.jpg,,,,,0.0,6.0,6.0,6.0,,,,,,,,,,,,,,,,,,,80.23537486209534,None,,,0,0.7484319219365716,82.70345439296216,None,82.70345439296216,None,,,81.53710510907695,None,,,,,1,2022_Apr_14_1116,Real-fake-judgement-flashing-group1,2021.1.2,59.94443721065973,
10,Trial # 8,Group1-stimuli/group1-block1/fake-group2-b1/encoded_Group2_IMG_0474.jpg,0,encoded_Group2_IMG_0474.jpg,,,,,0.0,7.0,7.0,7.0,,,,,,,,,,,,,,,,,,,83.4705828470178,None,,,0,1.0980110680684447,85.95387374702841,None,85.95387374702841,None,,,84.78717340598814,None,,,,,1,2022_Apr_14_1116,Real-fake-judgement-flashing-group1,2021.1.2,59.94443721065973,
11,Trial # 9,Group1-stimuli/group1-block1/fake-group2-b1/encoded_Group2_IMG_1506.jpg,0,encoded_Group2_IMG_1506.jpg,,,,,0.0,8.0,8.0,8.0,,,,,,,,,,,,,,,,,,,87.07139093894511,None,,,0,1.2333291238173842,89.53863734705374,None,89.53863734705374,None,,,88.38792462693527,None,,,,,1,2022_Apr_14_1116,Real-fake-judgement-flashing-group1,2021.1.2,59.94443721065973,
12,Trial # 10,Group1-stimuli/group1-block1/real-group1-b1/Group1_IMG_9789.jpg,1,Group1_IMG_9789.jpg,,,,,0.0,9.0,9.0,9.0,,,,,,,,,,,,,,,,,,,90.78869171696716,None,,,1,0.9870541910640896,93.27290388313122,None,93.27290388313122,None,,,92.19030827609822,None,,,,,1,2022_Apr_14_1116,Real-fake-judgement-flashing-group1,2021.1.2,59.94443721065973,
13,Trial # 11,Group1-stimuli/group1-block1/real-group1-b1/Group1_IMG_9778.jpg,1,Group1_IMG_9778.jpg,,,,,0.0,10.0,10.0,10.0,,,,,,,,,,,,,,,,,,,94.28999419999307,None,,,1,0.5422399290837348,96.75772048207,None,96.75772048207,None,,,95.6068159120623,None,,,,,1,2022_Apr_14_1116,Real-fake-judgement-flashing-group1,2021.1.2,59.94443721065973,
14,Trial # 12,Group1-stimuli/group1-block1/real-group1-b1/Group1_IMG_9813.jpg,1,Group1_IMG_9813.jpg,,,,,0.0,11.0,11.0,11.0,,,,,,,,,,,,,,,,,,,97.325448974967,None,,,1,0.4677293300628662,99.80816892907023,None,99.80816892907023,None,,,98.64126784703694,None,,,,,1,2022_Apr_14_1116,Real-fake-judgement-flashing-group1,2021.1.2,59.94443721065973,
15,Trial # 13,Group1-stimuli/group1-block1/real-group1-b1/Group1_IMG_0516.jpg,1,Group1_IMG_0516.jpg,,,,,0.0,12.0,12.0,12.0,,,,,,,,,,,,,,,,,,,100.30827705212867,None,,,1,0.4987425880972296,102.77715185610576,None,102.77715185610576,None,,,101.6087244299706,None,,,,,1,2022_Apr_14_1116,Real-fake-judgement-flashing-group1,2021.1.2,59.94443721065973,
16,Trial # 14,Group1-stimuli/group1-block1/fake-group2-b1/encoded_Group2_IMG_0038.jpg,0,encoded_Group2_IMG_0038.jpg,,,,,0.0,13.0,13.0,13.0,,,,,,,,,,,,,,,,,,,103.29280634014869,None,,,0,0.5551193030551076,105.77683126111516,None,105.77683126111516,None,,,104.609696615953,None,,,,,1,2022_Apr_14_1116,Real-fake-judgement-flashing-group1,2021.1.2,59.94443721065973,
17,Trial # 15,Group1-stimuli/group1-block1/real-group1-b1/Group1_IMG_5984.jpg,1,Group1_IMG_5984.jpg,,,,,0.0,14.0,14.0,14.0,,,,,,,,,,,,,,,,,,,106.36069098394364,None,,,1,0.5673982470761985,108.84448448801412,None,108.84448448801412,None,,,107.67853952106088,None,,,,,1,2022_Apr_14_1116,Real-fake-judgement-flashing-group1,2021.1.2,59.94443721065973,
18,Trial # 16,Group1-stimuli/group1-block1/real-group1-b1/Group1_IMG_0383.jpg,1,Group1_IMG_0383.jpg,,,,,0.0,15.0,15.0,15.0,,,,,,,,,,,,,,,,,,,109.44465779094024,None,,,1,0.7955655029509217,111.9123829419259,None,111.9123829419259,None,,,110.76113868807442,None,,,,,1,2022_Apr_14_1116,Real-fake-judgement-flashing-group1,2021.1.2,59.94443721065973,
19,Trial # 17,Group1-stimuli/group1-block1/fake-group2-b1/encoded_Group2_IMG_0456.jpg,0,encoded_Group2_IMG_0456.jpg,,,,,0.0,16.0,16.0,16.0,,,,,,,,,,,,,,,,,,,112.73028737911956,None,,,1,1.118138040881604,115.21373431105168,None,115.21373431105168,None,,,114.06254938803612,None,,,,,1,2022_Apr_14_1116,Real-fake-judgement-flashing-group1,2021.1.2,59.94443721065973,
20,Trial # 18,Group1-stimuli/group1-block1/fake-group2-b1/encoded_Group2_IMG_8390.jpg,0,encoded_Group2_IMG_8390.jpg,,,,,0.0,17.0,17.0,17.0,,,,,,,,,,,,,,,,,,,116.3637013300322,None,,,0,0.7809866650495678,118.83085135906003,None,118.83085135906003,None,,,117.66491063102148,None,,,,,1,2022_Apr_14_1116,Real-fake-judgement-flashing-group1,2021.1.2,59.94443721065973,
21,Trial # 19,Group1-stimuli/group1-block1/real-group1-b1/Group1_IMG_0011.jpg,1,Group1_IMG_0011.jpg,,,,,0.0,18.0,18.0,18.0,,,,,,,,,,,,,,,,,,,119.63098148209974,None,,,0,0.8810650191735476,122.09892090503126,None,122.09892090503126,None,,,120.94751788908616,None,,,,,1,2022_Apr_14_1116,Real-fake-judgement-flashing-group1,2021.1.2,59.94443721065973,
22,Trial # 20,Group1-stimuli/group1-block1/fake-group2-b1/encoded_Group2_IMG_0328.jpg,0,encoded_Group2_IMG_0328.jpg,,,,,0.0,19.0,19.0,19.0,,,,,,,,,,,,,,,,,,,122.99919579806738,None,,,0,1.2098776099737734,125.4660783149302,None,125.4660783149302,None,,,124.2990317500662,None,,,,,1,2022_Apr_14_1116,Real-fake-judgement-flashing-group1,2021.1.2,59.94443721065973,
23,Trial # 21,Group1-stimuli/group1-block1/fake-group2-b1/encoded_Group2_IMG_0163.jpg,0,encoded_Group2_IMG_0163.jpg,,,,,0.0,20.0,20.0,20.0,,,,,,,,,,,,,,,,,,,126.70077381795272,None,,,0,0.5569164701737463,129.16703891800717,None,129.16703891800717,None,,,128.00142689305358,None,,,,,1,2022_Apr_14_1116,Real-fake-judgement-flashing-group1,2021.1.2,59.94443721065973,
24,Trial # 22,Group1-stimuli/group1-block1/real-group1-b1/Group1_IMG_9862.jpg,1,Group1_IMG_9862.jpg,,,,,0.0,21.0,21.0,21.0,,,,,,,,,,,,,,,,,,,129.75083045195788,None,,,0,0.4804113490972668,132.21948996605352,None,132.21948996605352,None,,,131.05137862404808,None,,,,,1,2022_Apr_14_1116,Real-fake-judgement-flashing-group1,2021.1.2,59.94443721065973,
25,Trial # 23,Group1-stimuli/group1-block1/fake-group2-b1/encoded_Group2_IMG_0296.jpg,0,encoded_Group2_IMG_0296.jpg,,,,,0.0,22.0,22.0,22.0,,,,,,,,,,,,,,,,,,,132.71980827813968,None,,,1,0.5213632790837437,135.20258612092584,None,135.20258612092584,None,,,134.03538630204275,None,,,,,1,2022_Apr_14_1116,Real-fake-judgement-flashing-group1,2021.1.2,59.94443721065973,
26,Trial # 24,Group1-stimuli/group1-block1/fake-group2-b1/encoded_Group2_IMG_0503.jpg,0,encoded_Group2_IMG_0503.jpg,,,,,0.0,23.0,23.0,23.0,,,,,,,,,,,,,,,,,,,135.75219649914652,None,,,0,0.359864329919219,138.22008367395028,None,138.22008367395028,None,,,137.05403728294186,None,,,,,1,2022_Apr_14_1116,Real-fake-judgement-flashing-group1,2021.1.2,59.94443721065973,
27,Trial # 25,Group1-stimuli/group1-block1/fake-group2-b1/encoded_Group2_IMG_9804.jpg,0,encoded_Group2_IMG_9804.jpg,,,,,0.0,24.0,24.0,24.0,,,,,,,,,,,,,,,,,,,138.60354502894916,None,,,1,0.844944299897179,141.07101307506673,None,141.07101307506673,None,,,139.9036617160309,None,,,,,1,2022_Apr_14_1116,Real-fake-judgement-flashing-group1,2021.1.2,59.94443721065973,
28,Trial # 26,Group1-stimuli/group1-block1/real-group1-b1/Group1_IMG_0391.jpg,1,Group1_IMG_0391.jpg,,,,,0.0,25.0,25.0,25.0,,,,,,,,,,,,,,,,,,,141.93847262393683,None,,,1,1.134890753077343,144.40498843812384,None,144.40498843812384,None,,,143.23817561613396,None,,,,,1,2022_Apr_14_1116,Real-fake-judgement-flashing-group1,2021.1.2,59.94443721065973,
29,Trial # 27,Group1-stimuli/group1-block1/fake-group2-b1/encoded_Group2_IMG_3584.jpg,0,encoded_Group2_IMG_3584.jpg,,,,,0.0,26.0,26.0,26.0,,,,,,,,,,,,,,,,,,,145.57248172000982,None,,,0,0.39600775600411,148.03994083893485,None,148.03994083893485,None,,,146.85723839793354,None,,,,,1,2022_Apr_14_1116,Real-fake-judgement-flashing-group1,2021.1.2,59.94443721065973,
30,Trial # 28,Group1-stimuli/group1-block1/fake-group2-b1/encoded_Group2_IMG_0434.jpg,0,encoded_Group2_IMG_0434.jpg,,,,,0.0,27.0,27.0,27.0,,,,,,,,,,,,,,,,,,,148.45713211409748,None,,,0,1.16776342689991,150.92419711500406,None,150.92419711500406,None,,,149.75688567198813,None,,,,,1,2022_Apr_14_1116,Real-fake-judgement-flashing-group1,2021.1.2,59.94443721065973,
31,Trial # 29,Group1-stimuli/group1-block1/fake-group2-b1/encoded_Group2_IMG_9575.jpg,0,encoded_Group2_IMG_9575.jpg,,,,,0.0,28.0,28.0,28.0,,,,,,,,,,,,,,,,,,,152.1090362810064,None,,,1,0.4353887871839106,154.5925552600529,None,154.5925552600529,None,,,153.42466460401192,None,,,,,1,2022_Apr_14_1116,Real-fake-judgement-flashing-group1,2021.1.2,59.94443721065973,
32,Trial # 30,Group1-stimuli/group1-block1/fake-group2-b1/encoded_Group2_IMG_1025.jpg,0,encoded_Group2_IMG_1025.jpg,,,,,0.0,29.0,29.0,29.0,,,,,,,,,,,,,,,,,,,155.0583649340551,None,,,1,0.5646199830807745,157.52732500014827,None,157.52732500014827,None,,,156.36012720502913,None,,,,,1,2022_Apr_14_1116,Real-fake-judgement-flashing-group1,2021.1.2,59.94443721065973,
33,Trial # 31,Group1-stimuli/group1-block1/real-group1-b1/Group1_IMG_0502.jpg,1,Group1_IMG_0502.jpg,,,,,0.0,30.0,30.0,30.0,,,,,,,,,,,,,,,,,,,158.10988217010163,None,,,1,0.5148837869055569,160.57695986004546,None,160.57695986004546,None,,,159.42658785008825,None,,,,,1,2022_Apr_14_1116,Real-fake-judgement-flashing-group1,2021.1.2,59.94443721065973,
34,Trial # 32,Group1-stimuli/group1-block1/real-group1-b1/Group1_IMG_0182.jpg,1,Group1_IMG_0182.jpg,,,,,0.0,31.0,31.0,31.0,,,,,,,,,,,,,,,,,,,161.1107929169666,None,,,0,0.6092955870553851,163.59466120507568,None,163.59466120507568,None,,,162.4287673260551,None,,,,,1,2022_Apr_14_1116,Real-fake-judgement-flashing-group1,2021.1.2,59.94443721065973,
35,Trial # 33,Group1-stimuli/group1-block1/fake-group2-b1/encoded_Group2_IMG_2728.jpg,0,encoded_Group2_IMG_2728.jpg,,,,,0.0,32.0,32.0,32.0,,,,,,,,,,,,,,,,,,,164.228376560146,None,,,0,0.5465034071821719,166.71349475509487,None,166.71349475509487,None,,,165.52792845200747,None,,,,,1,2022_Apr_14_1116,Real-fake-judgement-flashing-group1,2021.1.2,59.94443721065973,
36,Trial # 34,Group1-stimuli/group1-block1/fake-group2-b1/encoded_Group2_IMG_4867.jpg,0,encoded_Group2_IMG_4867.jpg,,,,,0.0,33.0,33.0,33.0,,,,,,,,,,,,,,,,,,,167.28083174605854,None,,,0,0.3845518380403518,169.76331546809524,None,169.76331546809524,None,,,168.59613372804597,None,,,,,1,2022_Apr_14_1116,Real-fake-judgement-flashing-group1,2021.1.2,59.94443721065973,
37,Trial # 35,Group1-stimuli/group1-block1/real-group1-b1/Group1_IMG_9894.jpg,1,Group1_IMG_9894.jpg,,,,,0.0,34.0,34.0,34.0,,,,,,,,,,,,,,,,,,,170.18011081498116,None,,,1,0.395290567073971,172.64867472904734,None,172.64867472904734,None,,,171.4815749579575,None,,,,,1,2022_Apr_14_1116,Real-fake-judgement-flashing-group1,2021.1.2,59.94443721065973,
38,Trial # 36,Group1-stimuli/group1-block1/fake-group2-b1/encoded_Group2_IMG_0444.jpg,0,encoded_Group2_IMG_0444.jpg,,,,,0.0,35.0,35.0,35.0,,,,,,,,,,,,,,,,,,,173.06502592214383,None,,,0,0.4404445791151374,175.53150432999246,None,175.53150432999246,None,,,174.3645423410926,None,,,,,1,2022_Apr_14_1116,Real-fake-judgement-flashing-group1,2021.1.2,59.94443721065973,
39,Trial # 37,Group1-stimuli/group1-block1/real-group1-b1/Group1_IMG_2656.jpg,1,Group1_IMG_2656.jpg,,,,,0.0,36.0,36.0,36.0,,,,,,,,,,,,,,,,,,,175.99854813702404,None,,,1,1.017029258189723,178.48291775514372,None,178.48291775514372,None,,,177.3159486730583,None,,,,,1,2022_Apr_14_1116,Real-fake-judgement-flashing-group1,2021.1.2,59.94443721065973,
40,Trial # 38,Group1-stimuli/group1-block1/real-group1-b1/Group1_IMG_0207.jpg,1,Group1_IMG_0207.jpg,,,,,0.0,37.0,37.0,37.0,,,,,,,,,,,,,,,,,,,179.51620441512205,None,,,1,0.427800745004788,181.98415582603772,None,181.98415582603772,None,,,180.83327711210583,None,,,,,1,2022_Apr_14_1116,Real-fake-judgement-flashing-group1,2021.1.2,59.94443721065973,
41,Trial # 39,Group1-stimuli/group1-block1/real-group1-b1/Group1_IMG_9638.jpg,1,Group1_IMG_9638.jpg,,,,,0.0,38.0,38.0,38.0,,,,,,,,,,,,,,,,,,,182.4342997230124,None,,,1,0.4948713409248739,184.90108880400655,None,184.90108880400655,None,,,183.734058204107,None,,,,,1,2022_Apr_14_1116,Real-fake-judgement-flashing-group1,2021.1.2,59.94443721065973,
42,Trial # 40,Group1-stimuli/group1-block1/real-group1-b1/Group1_IMG_0148.jpg,1,Group1_IMG_0148.jpg,,,,,0.0,39.0,39.0,39.0,,,,,,,,,,,,,,,,,,,185.4180995339993,None,,,0,0.3726292659994215,187.90330590913072,None,187.90330590913072,None,,,186.71935826004483,None,,,,,1,2022_Apr_14_1116,Real-fake-judgement-flashing-group1,2021.1.2,59.94443721065973,
43,Trial # 41,Group1-stimuli/group1-block1/real-group1-b1/Group1_IMG_2891.jpg,1,Group1_IMG_2891.jpg,,,,,0.0,40.0,40.0,40.0,,,,,,,,,,,,,,,,,,,188.30348263098855,None,,,1,0.4176960589829832,190.7861893810332,None,190.7861893810332,None,,,189.61926032206972,None,,,,,1,2022_Apr_14_1116,Real-fake-judgement-flashing-group1,2021.1.2,59.94443721065973,
44,Trial # 42,Group1-stimuli/group1-block1/real-group1-b1/Group1_IMG_0157.jpg,1,Group1_IMG_0157.jpg,,,,,0.0,41.0,41.0,41.0,,,,,,,,,,,,,,,,,,,191.23783849109896,None,,,1,0.2514080731198191,193.72053213207985,None,193.72053213207985,None,,,192.55466111702845,None,,,,,1,2022_Apr_14_1116,Real-fake-judgement-flashing-group1,2021.1.2,59.94443721065973,
45,Trial # 43,Group1-stimuli/group1-block1/real-group1-b1/Group1_IMG_9833.jpg,1,Group1_IMG_9833.jpg,,,,,0.0,42.0,42.0,42.0,,,,,,,,,,,,,,,,,,,194.00394396297636,None,,,1,0.2592838341370225,196.47266381396912,None,196.47266381396912,None,,,195.32100370712575,None,,,,,1,2022_Apr_14_1116,Real-fake-judgement-flashing-group1,2021.1.2,59.94443721065973,
46,Trial # 44,Group1-stimuli/group1-block1/fake-group2-b1/encoded_Group2_IMG_2230.jpg,0,encoded_Group2_IMG_2230.jpg,,,,,0.0,43.0,43.0,43.0,,,,,,,,,,,,,,,,,,,196.7551268080715,None,,,0,0.7814924111589789,199.22234859806483,None,199.22234859806483,None,,,198.03832045197487,None,,,,,1,2022_Apr_14_1116,Real-fake-judgement-flashing-group1,2021.1.2,59.94443721065973,
47,Trial # 45,Group1-stimuli/group1-block1/real-group1-b1/Group1_IMG_9966.jpg,1,Group1_IMG_9966.jpg,,,,,0.0,44.0,44.0,44.0,,,,,,,,,,,,,,,,,,,200.0228067340795,None,,,1,0.4246825519949198,202.49127490306276,None,202.49127490306276,None,,,201.3407769629266,None,,,,,1,2022_Apr_14_1116,Real-fake-judgement-flashing-group1,2021.1.2,59.94443721065973,
48,Trial # 46,Group1-stimuli/group1-block1/real-group1-b1/Group1_IMG_0239.jpg,1,Group1_IMG_0239.jpg,,,,,0.0,45.0,45.0,45.0,,,,,,,,,,,,,,,,,,,202.94058051495813,None,,,1,0.5164733128622174,205.40751352207732,None,205.40751352207732,None,,,204.2404377430212,None,,,,,1,2022_Apr_14_1116,Real-fake-judgement-flashing-group1,2021.1.2,59.94443721065973,
49,Trial # 47,Group1-stimuli/group1-block1/fake-group2-b1/encoded_Group2_IMG_0536.jpg,0,encoded_Group2_IMG_0536.jpg,,,,,0.0,46.0,46.0,46.0,,,,,,,,,,,,,,,,,,,205.9411489770282,None,,,0,0.3476577878464013,208.39218394900672,None,208.39218394900672,None,,,207.22594050504267,None,,,,,1,2022_Apr_14_1116,Real-fake-judgement-flashing-group1,2021.1.2,59.94443721065973,
50,Trial # 48,Group1-stimuli/group1-block1/fake-group2-b1/encoded_Group2_IMG_0521.jpg,0,encoded_Group2_IMG_0521.jpg,,,,,0.0,47.0,47.0,47.0,,,,,,,,,,,,,,,,,,,208.7591571069788,None,,,0,0.841509714955464,211.22643885808063,None,211.22643885808063,None,,,210.0590884401463,None,,,,,1,2022_Apr_14_1116,Real-fake-judgement-flashing-group1,2021.1.2,59.94443721065973,
51,Trial # 49,Group1-stimuli/group1-block1/fake-group2-b1/encoded_Group2_IMG_9924.jpg,0,encoded_Group2_IMG_9924.jpg,,,,,0.0,48.0,48.0,48.0,,,,,,,,,,,,,,,,,,,212.09449063101783,None,,,0,0.210847076959908,214.57711230195127,None,214.57711230195127,None,,,213.39333746396005,None,,,,,1,2022_Apr_14_1116,Real-fake-judgement-flashing-group1,2021.1.2,59.94443721065973,
52,Trial # 50,Group1-stimuli/group1-block1/real-group1-b1/Group1_IMG_9730.jpg,1,Group1_IMG_9730.jpg,,,,,0.0,49.0,49.0,49.0,,,,,,,,,,,,,,,,,,,214.8100484451279,None,,,1,0.6456290918868035,217.27832864806987,None,217.27832864806987,None,,,216.11081836302765,None,,,,,1,2022_Apr_14_1116,Real-fake-judgement-flashing-group1,2021.1.2,59.94443721065973,
53,Trial # 51,Group1-stimuli/group1-block1/real-group1-b1/Group1_IMG_0053.jpg,1,Group1_IMG_0053.jpg,,,,,0.0,50.0,50.0,50.0,,,,,,,,,,,,,,,,,,,217.94590501394123,None,,,0,0.0396689479239285,220.41228825994767,None,220.41228825994767,None,,,219.24507868802172,None,,,,,1,2022_Apr_14_1116,Real-fake-judgement-flashing-group1,2021.1.2,59.94443721065973,
54,Trial # 52,Group1-stimuli/group1-block1/real-group1-b1/Group1_IMG_9698.jpg,1,Group1_IMG_9698.jpg,,,,,0.0,51.0,51.0,51.0,,,,,,,,,,,,,,,,,,,220.47923029097728,None,,,1,0.2802419729996472,222.9476185350213,None,222.9476185350213,None,,,221.7804131160956,None,,,,,1,2022_Apr_14_1116,Real-fake-judgement-flashing-group1,2021.1.2,59.94443721065973,
55,Trial # 53,Group1-stimuli/group1-block1/fake-group2-b1/encoded_Group2_IMG_0553.jpg,0,encoded_Group2_IMG_0553.jpg,,,,,0.0,52.0,52.0,52.0,,,,,,,,,,,,,,,,,,,223.24641299201176,None,,,0,0.2660491871647537,225.71389544103292,None,225.71389544103292,None,,,224.53009061305784,None,,,,,1,2022_Apr_14_1116,Real-fake-judgement-flashing-group1,2021.1.2,59.94443721065973,
56,Trial # 54,Group1-stimuli/group1-block1/fake-group2-b1/encoded_Group2_IMG_9758.jpg,0,encoded_Group2_IMG_9758.jpg,,,,,0.0,53.0,53.0,53.0,,,,,,,,,,,,,,,,,,,225.9974972810596,None,,,0,0.1785971878562122,228.48135146708228,None,228.48135146708228,None,,,227.36548950104043,None,,,,,1,2022_Apr_14_1116,Real-fake-judgement-flashing-group1,2021.1.2,59.94443721065973,
57,Trial # 55,Group1-stimuli/group1-block1/fake-group2-b1/encoded_Group2_IMG_0339.jpg,0,encoded_Group2_IMG_0339.jpg,,,,,0.0,54.0,54.0,54.0,,,,,,,,,,,,,,,,,,,228.68136656703427,None,,,0,0.2880503961350769,231.1318990320433,None,231.1318990320433,None,,,229.96502823615447,None,,,,,1,2022_Apr_14_1116,Real-fake-judgement-flashing-group1,2021.1.2,59.94443721065973,
58,Trial # 56,Group1-stimuli/group1-block1/real-group1-b1/Group1_IMG_0314.jpg,1,Group1_IMG_0314.jpg,,,,,0.0,55.0,55.0,55.0,,,,,,,,,,,,,,,,,,,231.45031565614045,None,,,1,0.3748506819829345,233.9331037860829,None,233.9331037860829,None,,,232.76716542011127,None,,,,,1,2022_Apr_14_1116,Real-fake-judgement-flashing-group1,2021.1.2,59.94443721065973,
59,Trial # 57,Group1-stimuli/group1-block1/fake-group2-b1/encoded_Group2_IMG_0532.jpg,0,encoded_Group2_IMG_0532.jpg,,,,,0.0,56.0,56.0,56.0,,,,,,,,,,,,,,,,,,,234.33313769800588,None,,,0,0.3627848029136657,236.801162033109,None,236.801162033109,None,,,235.6334834950976,None,,,,,1,2022_Apr_14_1116,Real-fake-judgement-flashing-group1,2021.1.2,59.94443721065973,
60,Trial # 58,Group1-stimuli/group1-block1/fake-group2-b1/encoded_Group2_IMG_0462.jpg,0,encoded_Group2_IMG_0462.jpg,,,,,0.0,57.0,57.0,57.0,,,,,,,,,,,,,,,,,,,237.1843162269797,None,,,0,0.3769408371299505,239.63494585710575,None,239.63494585710575,None,,,238.4676713270601,None,,,,,1,2022_Apr_14_1116,Real-fake-judgement-flashing-group1,2021.1.2,59.94443721065973,
61,Trial # 59,Group1-stimuli/group1-block1/real-group1-b1/Group1_IMG_0172.jpg,1,Group1_IMG_0172.jpg,,,,,0.0,58.0,58.0,58.0,,,,,,,,,,,,,,,,,,,240.0347165721469,None,,,1,0.4205342340283096,242.50341620412652,None,242.50341620412652,None,,,241.3530620529782,None,,,,,1,2022_Apr_14_1116,Real-fake-judgement-flashing-group1,2021.1.2,59.94443721065973,
62,Trial # 60,Group1-stimuli/group1-block1/real-group1-b1/Group1_IMG_4841.jpg,1,Group1_IMG_4841.jpg,,,,,0.0,59.0,59.0,59.0,,,,,,,,,,,,,,,,,,,242.9526477479376,None,,,1,0.5193621390499175,245.43658889411017,None,245.43658889411017,None,,,244.2694094281178,None,,,,,1,2022_Apr_14_1116,Real-fake-judgement-flashing-group1,2021.1.2,59.94443721065973,
63,Trial # 61,Group1-stimuli/group1-block1/fake-group2-b1/encoded_Group2_IMG_0352.jpg,0,encoded_Group2_IMG_0352.jpg,,,,,0.0,60.0,60.0,60.0,,,,,,,,,,,,,,,,,,,245.9868358350359,None,,,1,0.9893080038018524,248.4546412010677,None,248.4546412010677,None,,,247.2716451541055,None,,,,,1,2022_Apr_14_1116,Real-fake-judgement-flashing-group1,2021.1.2,59.94443721065973,
64,Trial # 62,Group1-stimuli/group1-block1/fake-group2-b1/encoded_Group2_IMG_9726.jpg,0,encoded_Group2_IMG_9726.jpg,,,,,0.0,61.0,61.0,61.0,,,,,,,,,,,,,,,,,,,249.4719762611203,None,,,0,0.3921940410509705,251.93974298797548,None,251.93974298797548,None,,,250.7711748399306,None,,,,,1,2022_Apr_14_1116,Real-fake-judgement-flashing-group1,2021.1.2,59.94443721065973,
65,Trial # 63,Group1-stimuli/group1-block1/fake-group2-b1/encoded_Group2_IMG_9785.jpg,0,encoded_Group2_IMG_9785.jpg,,,,,0.0,62.0,62.0,62.0,,,,,,,,,,,,,,,,,,,252.35561068193056,None,,,1,0.9322371520102024,254.83967395406216,None,254.83967395406216,None,,,253.65591935510747,None,,,,,1,2022_Apr_14_1116,Real-fake-judgement-flashing-group1,2021.1.2,59.94443721065973,
66,Trial # 64,Group1-stimuli/group1-block1/fake-group2-b1/encoded_Group2_IMG_0440.jpg,0,encoded_Group2_IMG_0440.jpg,,,,,0.0,63.0,63.0,63.0,,,,,,,,,,,,,,,,,,,255.78991083893925,None,,,0,0.8026585460174829,258.25731431809254,None,258.25731431809254,None,,,257.0747802660335,None,,,,,1,2022_Apr_14_1116,Real-fake-judgement-flashing-group1,2021.1.2,59.94443721065973,
67,Trial # 65,Group1-stimuli/group1-block1/fake-group2-b1/encoded_Group2_IMG_1695.jpg,0,encoded_Group2_IMG_1695.jpg,,,,,0.0,64.0,64.0,64.0,,,,,,,,,,,,,,,,,,,259.09094670508057,None,,,0,0.3099729791283607,261.5419875739608,None,261.5419875739608,None,,,260.3744543020148,None,,,,,1,2022_Apr_14_1116,Real-fake-judgement-flashing-group1,2021.1.2,59.94443721065973,
68,Trial # 66,Group1-stimuli/group1-block1/real-group1-b1/Group1_IMG_0552.jpg,1,Group1_IMG_0552.jpg,,,,,0.0,65.0,65.0,65.0,,,,,,,,,,,,,,,,,,,261.8764220259618,None,,,1,0.2448311480693519,264.3591180429794,None,264.3591180429794,None,,,263.1920522679575,None,,,,,1,2022_Apr_14_1116,Real-fake-judgement-flashing-group1,2021.1.2,59.94443721065973,
69,Trial # 67,Group1-stimuli/group1-block1/real-group1-b1/Group1_IMG_1029.jpg,1,Group1_IMG_1029.jpg,,,,,0.0,66.0,66.0,66.0,,,,,,,,,,,,,,,,,,,264.625988233136,None,,,1,0.1893713988829404,267.09458030294627,None,267.09458030294627,None,,,265.92580069298856,None,,,,,1,2022_Apr_14_1116,Real-fake-judgement-flashing-group1,2021.1.2,59.94443721065973,
70,Trial # 68,Group1-stimuli/group1-block1/fake-group2-b1/encoded_Group2_IMG_6517.jpg,0,encoded_Group2_IMG_6517.jpg,,,,,0.0,67.0,67.0,67.0,,,,,,,,,,,,,,,,,,,267.3113087469246,None,,,0,0.362452135886997,269.77751569310203,None,269.77751569310203,None,,,268.6103899229784,None,,,,,1,2022_Apr_14_1116,Real-fake-judgement-flashing-group1,2021.1.2,59.94443721065973,
71,Trial # 69,Group1-stimuli/group1-block1/fake-group2-b1/encoded_Group2_IMG_0002.jpg,0,encoded_Group2_IMG_0002.jpg,,,,,0.0,68.0,68.0,68.0,,,,,,,,,,,,,,,,,,,270.160896680085,None,,,1,0.5103058009408414,272.6296849560458,None,272.6296849560458,None,,,271.46173932915553,None,,,,,1,2022_Apr_14_1116,Real-fake-judgement-flashing-group1,2021.1.2,59.94443721065973,
72,Trial # 70,Group1-stimuli/group1-block1/real-group1-b1/Group1_IMG_0495.jpg,1,Group1_IMG_0495.jpg,,,,,0.0,69.0,69.0,69.0,,,,,,,,,,,,,,,,,,,273.1619790450204,None,,,1,0.3425585709046572,275.6293358760886,None,275.6293358760886,None,,,274.4622165809851,None,,,,,1,2022_Apr_14_1116,Real-fake-judgement-flashing-group1,2021.1.2,59.94443721065973,
73,Trial # 71,Group1-stimuli/group1-block1/real-group1-b1/Group1_IMG_1391.jpg,1,Group1_IMG_1391.jpg,,,,,0.0,70.0,70.0,70.0,,,,,,,,,,,,,,,,,,,275.9962419499643,None,,,1,0.3878622830379754,278.48008716409095,None,278.48008716409095,None,,,277.3143775409553,None,,,,,1,2022_Apr_14_1116,Real-fake-judgement-flashing-group1,2021.1.2,59.94443721065973,
74,Trial # 72,Group1-stimuli/group1-block1/real-group1-b1/Group1_IMG_0343.jpg,1,Group1_IMG_0343.jpg,,,,,0.0,71.0,71.0,71.0,,,,,,,,,,,,,,,,,,,278.89712173515,None,,,1,0.3431855200324207,281.36476817005314,None,281.36476817005314,None,,,280.2149242439773,None,,,,,1,2022_Apr_14_1116,Real-fake-judgement-flashing-group1,2021.1.2,59.94443721065973,
75,Trial # 73,Group1-stimuli/group1-block1/fake-group2-b1/encoded_Group2_IMG_9810.jpg,0,encoded_Group2_IMG_9810.jpg,,,,,0.0,72.0,72.0,72.0,,,,,,,,,,,,,,,,,,,281.7323567820713,None,,,0,0.2294005849398672,284.19854781008326,None,284.19854781008326,None,,,283.03155337506905,None,,,,,1,2022_Apr_14_1116,Real-fake-judgement-flashing-group1,2021.1.2,59.94443721065973,
76,Trial # 74,Group1-stimuli/group1-block1/fake-group2-b1/encoded_Group2_IMG_5900.jpg,0,encoded_Group2_IMG_5900.jpg,,,,,0.0,73.0,73.0,73.0,,,,,,,,,,,,,,,,,,,284.44888292602263,None,,,0,0.5666081090457737,286.91735397093,None,286.91735397093,None,,,285.7323300531134,None,,,,,1,2022_Apr_14_1116,Real-fake-judgement-flashing-group1,2021.1.2,59.94443721065973,
77,Trial # 75,Group1-stimuli/group1-block1/real-group1-b1/Group1_IMG_9679.jpg,1,Group1_IMG_9679.jpg,,,,,0.0,74.0,74.0,74.0,,,,,,,,,,,,,,,,,,,287.50077161495574,None,,,1,0.2362428340129554,289.983708138112,None,289.983708138112,None,,,288.81663346500136,None,,,,,1,2022_Apr_14_1116,Real-fake-judgement-flashing-group1,2021.1.2,59.94443721065973,
78,Trial # 76,Group1-stimuli/group1-block1/fake-group2-b1/encoded_Group2_IMG_4249.jpg,0,encoded_Group2_IMG_4249.jpg,,,,,0.0,75.0,75.0,75.0,,,,,,,,,,,,,,,,,,,290.2502895509824,None,,,0,1.0373207840602845,292.7026288760826,None,292.7026288760826,None,,,291.5352973761037,None,,,,,1,2022_Apr_14_1116,Real-fake-judgement-flashing-group1,2021.1.2,59.94443721065973,
79,Trial # 77,Group1-stimuli/group1-block1/fake-group2-b1/encoded_Group2_IMG_0174.jpg,0,encoded_Group2_IMG_0174.jpg,,,,,0.0,76.0,76.0,76.0,,,,,,,,,,,,,,,,,,,293.7682831620332,None,,,0,0.3839851168449968,296.23598798993044,None,296.23598798993044,None,,,295.0521511770785,None,,,,,1,2022_Apr_14_1116,Real-fake-judgement-flashing-group1,2021.1.2,59.94443721065973,
80,Trial # 78,Group1-stimuli/group1-block1/fake-group2-b1/encoded_Group2_IMG_0475.jpg,0,encoded_Group2_IMG_0475.jpg,,,,,0.0,77.0,77.0,77.0,,,,,,,,,,,,,,,,,,,296.63692731712945,None,,,1,0.3095348060596734,299.0863000941463,None,299.0863000941463,None,,,297.920628331136,None,,,,,1,2022_Apr_14_1116,Real-fake-judgement-flashing-group1,2021.1.2,59.94443721065973,
81,Trial # 79,Group1-stimuli/group1-block1/fake-group2-b1/encoded_Group2_IMG_9751.jpg,0,encoded_Group2_IMG_9751.jpg,,,,,0.0,78.0,78.0,78.0,,,,,,,,,,,,,,,,,,,299.4197510089725,None,,,1,0.3072448631282896,301.88870417000726,None,301.88870417000726,None,,,300.7202765450347,None,,,,,1,2022_Apr_14_1116,Real-fake-judgement-flashing-group1,2021.1.2,59.94443721065973,
82,Trial # 80,Group1-stimuli/group1-block1/fake-group2-b1/encoded_Group2_IMG_0492.jpg,0,encoded_Group2_IMG_0492.jpg,,,,,0.0,79.0,79.0,79.0,,,,,,,,,,,,,,,,,,,302.22223733598366,None,,,1,0.2109445610549301,304.7050034571439,None,304.7050034571439,None,,,303.5378524539992,None,,,,,1,2022_Apr_14_1116,Real-fake-judgement-flashing-group1,2021.1.2,59.94443721065973,
83,Trial # 81,Group1-stimuli/group1-block1/real-group1-b1/Group1_IMG_0535.jpg,1,Group1_IMG_0535.jpg,,,,,0.0,80.0,80.0,80.0,,,,,,,,,,,,,,,,,,,304.938336241059,None,,,1,0.3017133320681751,307.4062370241154,None,307.4062370241154,None,,,306.2565228641033,None,,,,,1,2022_Apr_14_1116,Real-fake-judgement-flashing-group1,2021.1.2,59.94443721065973,
84,Trial # 82,Group1-stimuli/group1-block1/real-group1-b1/Group1_IMG_0077.jpg,1,Group1_IMG_0077.jpg,,,,,0.0,81.0,81.0,81.0,,,,,,,,,,,,,,,,,,,307.74069132609293,None,,,0,0.2447868641465902,310.2231618340593,None,310.2231618340593,None,,,309.0562516311184,None,,,,,1,2022_Apr_14_1116,Real-fake-judgement-flashing-group1,2021.1.2,59.94443721065973,
85,Trial # 83,Group1-stimuli/group1-block1/fake-group2-b1/encoded_Group2_IMG_9702.jpg,0,encoded_Group2_IMG_9702.jpg,,,,,0.0,82.0,82.0,82.0,,,,,,,,,,,,,,,,,,,310.4899233090691,None,,,0,0.3738670570310205,312.94210918503813,None,312.94210918503813,None,,,311.7747021019459,None,,,,,1,2022_Apr_14_1116,Real-fake-judgement-flashing-group1,2021.1.2,59.94443721065973,
86,Trial # 84,Group1-stimuli/group1-block1/real-group1-b1/Group1_IMG_0357.jpg,1,Group1_IMG_0357.jpg,,,,,0.0,83.0,83.0,83.0,,,,,,,,,,,,,,,,,,,313.3410938261077,None,,,1,0.4429897789377719,315.82503014896065,None,315.82503014896065,None,,,314.6412611990236,None,,,,,1,2022_Apr_14_1116,Real-fake-judgement-flashing-group1,2021.1.2,59.94443721065973,
87,Trial # 85,Group1-stimuli/group1-block1/real-group1-b1/Group1_IMG_9772.jpg,1,Group1_IMG_9772.jpg,,,,,0.0,84.0,84.0,84.0,,,,,,,,,,,,,,,,,,,316.2923534340225,None,,,1,0.3005079058930278,318.7593780399766,None,318.7593780399766,None,,,317.61001660092734,None,,,,,1,2022_Apr_14_1116,Real-fake-judgement-flashing-group1,2021.1.2,59.94443721065973,
88,Trial # 86,Group1-stimuli/group1-block1/real-group1-b1/Group1_IMG_0482.jpg,1,Group1_IMG_0482.jpg,,,,,0.0,85.0,85.0,85.0,,,,,,,,,,,,,,,,,,,319.09274926013313,None,,,1,0.3622338059358299,321.56171197700314,None,321.56171197700314,None,,,320.409374054987,None,,,,,1,2022_Apr_14_1116,Real-fake-judgement-flashing-group1,2021.1.2,59.94443721065973,
89,Trial # 87,Group1-stimuli/group1-block1/real-group1-b1/Group1_IMG_0299.jpg,1,Group1_IMG_0299.jpg,,,,,0.0,86.0,86.0,86.0,,,,,,,,,,,,,,,,,,,321.94430583599024,None,,,1,0.4409426301717758,324.41101892106235,None,324.41101892106235,None,,,323.2451021510642,None,,,,,1,2022_Apr_14_1116,Real-fake-judgement-flashing-group1,2021.1.2,59.94443721065973,
90,Trial # 88,Group1-stimuli/group1-block1/fake-group2-b1/encoded_Group2_IMG_0301.jpg,0,encoded_Group2_IMG_0301.jpg,,,,,0.0,87.0,87.0,87.0,,,,,,,,,,,,,,,,,,,324.87844712100923,None,,,0,0.1374569670297205,327.3464804289397,None,327.3464804289397,None,,,326.17773162410595,None,,,,,1,2022_Apr_14_1116,Real-fake-judgement-flashing-group1,2021.1.2,59.94443721065973,
91,Trial # 89,Group1-stimuli/group1-block1/fake-group2-b1/encoded_Group2_IMG_5136.jpg,0,encoded_Group2_IMG_5136.jpg,,,,,0.0,88.0,88.0,88.0,,,,,,,,,,,,,,,,,,,327.51364518213086,None,,,0,0.2640032561030239,329.99594167014584,None,329.99594167014584,None,,,328.8130453089252,None,,,,,1,2022_Apr_14_1116,Real-fake-judgement-flashing-group1,2021.1.2,59.94443721065973,
92,Trial # 90,Group1-stimuli/group1-block1/real-group1-b1/Group1_IMG_0460.jpg,1,Group1_IMG_0460.jpg,,,,,0.0,89.0,89.0,89.0,,,,,,,,,,,,,,,,,,,330.2796481749974,None,,,1,0.3357607468497008,332.74824631609954,None,332.74824631609954,None,,,331.5976976780221,None,,,,,1,2022_Apr_14_1116,Real-fake-judgement-flashing-group1,2021.1.2,59.94443721065973,
93,Trial # 91,Group1-stimuli/group1-block1/fake-group2-b1/encoded_Group2_IMG_0068.jpg,0,encoded_Group2_IMG_0068.jpg,,,,,0.0,90.0,90.0,90.0,,,,,,,,,,,,,,,,,,,333.11504209507257,None,,,1,0.3747641779482364,335.5811857639346,None,335.5811857639346,None,,,334.41379030793905,None,,,,,1,2022_Apr_14_1116,Real-fake-judgement-flashing-group1,2021.1.2,59.94443721065973,
94,Trial # 92,Group1-stimuli/group1-block1/real-group1-b1/Group1_IMG_0337.jpg,1,Group1_IMG_0337.jpg,,,,,0.0,91.0,91.0,91.0,,,,,,,,,,,,,,,,,,,335.98124123713933,None,,,1,0.2910497670527547,338.44889744208194,None,338.44889744208194,None,,,337.28277809312567,None,,,,,1,2022_Apr_14_1116,Real-fake-judgement-flashing-group1,2021.1.2,59.94443721065973,
95,Trial # 93,Group1-stimuli/group1-block1/fake-group2-b1/encoded_Group2_IMG_0346.jpg,0,encoded_Group2_IMG_0346.jpg,,,,,0.0,92.0,92.0,92.0,,,,,,,,,,,,,,,,,,,338.7654972439632,None,,,0,0.5724374640267342,341.2155091690365,None,341.2155091690365,None,,,340.04910180694424,None,,,,,1,2022_Apr_14_1116,Real-fake-judgement-flashing-group1,2021.1.2,59.94443721065973,
96,Trial # 94,Group1-stimuli/group1-block1/real-group1-b1/Group1_IMG_4253.jpg,1,Group1_IMG_4253.jpg,,,,,0.0,93.0,93.0,93.0,,,,,,,,,,,,,,,,,,,341.8178793210536,None,,,1,0.3121904160361737,344.28376897401176,None,344.28376897401176,None,,,343.1167071459349,None,,,,,1,2022_Apr_14_1116,Real-fake-judgement-flashing-group1,2021.1.2,59.94443721065973,
97,Trial # 95,Group1-stimuli/group1-block1/fake-group2-b1/encoded_Group2_IMG_9280.jpg,0,encoded_Group2_IMG_9280.jpg,,,,,0.0,94.0,94.0,94.0,,,,,,,,,,,,,,,,,,,344.61735933599994,None,,,0,0.3834633370861411,347.0684972619638,None,347.0684972619638,None,,,345.900894473074,None,,,,,1,2022_Apr_14_1116,Real-fake-judgement-flashing-group1,2021.1.2,59.94443721065973,
98,Trial # 96,Group1-stimuli/group1-block1/real-group1-b1/Group1_IMG_0417.jpg,1,Group1_IMG_0417.jpg,,,,,0.0,95.0,95.0,95.0,,,,,,,,,,,,,,,,,,,347.4686833820306,None,,,0,0.2595867968630045,349.95236113714054,None,349.95236113714054,None,,,348.7851988291368,None,,,,,1,2022_Apr_14_1116,Real-fake-judgement-flashing-group1,2021.1.2,59.94443721065973,
99,Trial # 97,Group1-stimuli/group1-block1/fake-group2-b1/encoded_Group2_IMG_9695.jpg,0,encoded_Group2_IMG_9695.jpg,,,,,0.0,96.0,96.0,96.0,,,,,,,,,,,,,,,,,,,350.2357931539882,None,,,0,0.3967521619051695,352.7032344089821,None,352.7032344089821,None,,,351.53719798801467,None,,,,,1,2022_Apr_14_1116,Real-fake-judgement-flashing-group1,2021.1.2,59.94443721065973,
100,Trial # 98,Group1-stimuli/group1-block1/real-group1-b1/Group1_IMG_1160.jpg,1,Group1_IMG_1160.jpg,,,,,0.0,97.0,97.0,97.0,,,,,,,,,,,,,,,,,,,353.1200454100035,None,,,1,0.2479762930888682,355.60388413397595,None,355.60388413397595,None,,,354.43700196105056,None,,,,,1,2022_Apr_14_1116,Real-fake-judgement-flashing-group1,2021.1.2,59.94443721065973,
101,Trial # 99,Group1-stimuli/group1-block1/real-group1-b1/Group1_IMG_0448.jpg,1,Group1_IMG_0448.jpg,,,,,0.0,98.0,98.0,98.0,,,,,,,,,,,,,,,,,,,355.8714462090284,None,,,1,0.3856614301912486,358.3383035340812,None,358.3383035340812,None,,,357.17229392006993,None,,,,,1,2022_Apr_14_1116,Real-fake-judgement-flashing-group1,2021.1.2,59.94443721065973,
102,Trial # 100,Group1-stimuli/group1-block1/fake-group2-b1/encoded_Group2_IMG_0393.jpg,0,encoded_Group2_IMG_0393.jpg,,,,,0.0,99.0,99.0,99.0,,,,,,,,,,,,,,,,,,,358.75513551407494,None,,,0,1.061023510992527,361.2228460810147,None,361.2228460810147,None,,,360.0556634750683,None,,,,,1,2022_Apr_14_1116,Real-fake-judgement-flashing-group1,2021.1.2,59.94443721065973,
103,Trial # 101,Group1-stimuli/group1-block1/real-group1-b1/Group1_IMG_0090.jpg,1,Group1_IMG_0090.jpg,,,,,0.0,100.0,100.0,100.0,,,,,,,,,,,,,,,,,,,362.307097888086,None,,,1,0.5979881319217384,364.78999887313694,None,364.78999887313694,None,,,363.6230027610436,None,,,,,1,2022_Apr_14_1116,Real-fake-judgement-flashing-group1,2021.1.2,59.94443721065973,
104,Trial # 102,Group1-stimuli/group1-block1/real-group1-b1/Group1_IMG_0310.jpg,1,Group1_IMG_0310.jpg,,,,,0.0,101.0,101.0,101.0,,,,,,,,,,,,,,,,,,,365.4071383951232,None,,,0,0.6402033271733671,367.87574511696585,None,367.87574511696585,None,,,366.7086463230662,None,,,,,1,2022_Apr_14_1116,Real-fake-judgement-flashing-group1,2021.1.2,59.94443721065973,
105,Trial # 103,Group1-stimuli/group1-block1/fake-group2-b1/encoded_Group2_IMG_0528.jpg,0,encoded_Group2_IMG_0528.jpg,,,,,0.0,102.0,102.0,102.0,,,,,,,,,,,,,,,,,,,368.54142260807566,None,,,0,0.2982134579215199,371.0256605660543,None,371.0256605660543,None,,,369.8580276251305,None,,,,,1,2022_Apr_14_1116,Real-fake-judgement-flashing-group1,2021.1.2,59.94443721065973,
106,Trial # 104,Group1-stimuli/group1-block1/fake-group2-b1/encoded_Group2_IMG_1975.jpg,0,encoded_Group2_IMG_1975.jpg,,,,,0.0,103.0,103.0,103.0,,,,,,,,,,,,,,,,,,,371.3426862510387,None,,,1,0.568952389061451,373.84301674808376,None,373.84301674808376,None,,,372.6604081999976,None,,,,,1,2022_Apr_14_1116,Real-fake-judgement-flashing-group1,2021.1.2,59.94443721065973,
107,Trial # 105,Group1-stimuli/group1-block1/fake-group2-b1/encoded_Group2_IMG_0052.jpg,0,encoded_Group2_IMG_0052.jpg,,,,,0.0,104.0,104.0,104.0,,,,,,,,,,,,,,,,,,,374.4431003390346,None,,,1,0.3000693710055202,376.9118160170037,None,376.9118160170037,None,,,375.7601906689815,None,,,,,1,2022_Apr_14_1116,Real-fake-judgement-flashing-group1,2021.1.2,59.94443721065973,
108,Trial # 106,Group1-stimuli/group1-block1/fake-group2-b1/encoded_Group2_IMG_0225.jpg,0,encoded_Group2_IMG_0225.jpg,,,,,0.0,105.0,105.0,105.0,,,,,,,,,,,,,,,,,,,377.24531503603794,None,,,1,0.8198958639986813,379.7280539581552,None,379.7280539581552,None,,,378.56103397207335,None,,,,,1,2022_Apr_14_1116,Real-fake-judgement-flashing-group1,2021.1.2,59.94443721065973,
109,Trial # 107,Group1-stimuli/group1-block1/real-group1-b1/Group1_IMG_2231.jpg,1,Group1_IMG_2231.jpg,,,,,0.0,106.0,106.0,106.0,,,,,,,,,,,,,,,,,,,380.57849880098365,None,,,1,0.4769803360104561,383.0469692749903,None,383.0469692749903,None,,,381.8965695691295,None,,,,,1,2022_Apr_14_1116,Real-fake-judgement-flashing-group1,2021.1.2,59.94443721065973,
110,Trial # 108,Group1-stimuli/group1-block1/real-group1-b1/Group1_IMG_0217.jpg,1,Group1_IMG_0217.jpg,,,,,0.0,107.0,107.0,107.0,,,,,,,,,,,,,,,,,,,383.54605428897776,None,,,1,0.7261158570181578,386.02982857613824,None,386.02982857613824,None,,,384.8629160590936,None,,,,,1,2022_Apr_14_1116,Real-fake-judgement-flashing-group1,2021.1.2,59.94443721065973,
111,Trial # 109,Group1-stimuli/group1-block1/real-group1-b1/Group1_IMG_0264.jpg,1,Group1_IMG_0264.jpg,,,,,0.0,108.0,108.0,108.0,,,,,,,,,,,,,,,,,,,386.7809842019342,None,,,1,0.4035506600048393,389.2644224329852,None,389.2644224329852,None,,,388.09739720309153,None,,,,,1,2022_Apr_14_1116,Real-fake-judgement-flashing-group1,2021.1.2,59.94443721065973,
112,Trial # 110,Group1-stimuli/group1-block1/fake-group2-b1/encoded_Group2_IMG_0254.jpg,0,encoded_Group2_IMG_0254.jpg,,,,,0.0,109.0,109.0,109.0,,,,,,,,,,,,,,,,,,,389.6983628261369,None,,,0,0.3093574971426278,392.1665897530038,None,392.1665897530038,None,,,390.9981715420727,None,,,,,1,2022_Apr_14_1116,Real-fake-judgement-flashing-group1,2021.1.2,59.94443721065973,
113,Trial # 111,Group1-stimuli/group1-block1/fake-group2-b1/encoded_Group2_IMG_5433.jpg,0,encoded_Group2_IMG_5433.jpg,,,,,0.0,110.0,110.0,110.0,,,,,,,,,,,,,,,,,,,392.4991514720023,None,,,0,0.6691863548476249,394.9827635800466,None,394.9827635800466,None,,,393.7990635200404,None,,,,,1,2022_Apr_14_1116,Real-fake-judgement-flashing-group1,2021.1.2,59.94443721065973,
114,Trial # 112,Group1-stimuli/group1-block1/real-group1-b1/Group1_IMG_0252.jpg,1,Group1_IMG_0252.jpg,,,,,0.0,111.0,111.0,111.0,,,,,,,,,,,,,,,,,,,395.6834441800602,None,,,0,0.6766607740428299,398.1673037600704,None,398.1673037600704,None,,,397.00125167309307,None,,,,,1,2022_Apr_14_1116,Real-fake-judgement-flashing-group1,2021.1.2,59.94443721065973,
115,Trial # 113,Group1-stimuli/group1-block1/real-group1-b1/Group1_IMG_9720.jpg,1,Group1_IMG_9720.jpg,,,,,0.0,112.0,112.0,112.0,,,,,,,,,,,,,,,,,,,398.86758498707786,None,,,1,0.8600277721416205,401.3519221069291,None,401.3519221069291,None,,,400.18437049305066,None,,,,,1,2022_Apr_14_1116,Real-fake-judgement-flashing-group1,2021.1.2,59.94443721065973,
116,Trial # 114,Group1-stimuli/group1-block1/fake-group2-b1/encoded_Group2_IMG_0550.jpg,0,encoded_Group2_IMG_0550.jpg,,,,,0.0,113.0,113.0,113.0,,,,,,,,,,,,,,,,,,,402.2365165059455,None,,,1,0.4374700940679759,404.70247847307473,None,404.70247847307473,None,,,403.53635975997895,None,,,,,1,2022_Apr_14_1116,Real-fake-judgement-flashing-group1,2021.1.2,59.94443721065973,
117,Trial # 115,Group1-stimuli/group1-block1/real-group1-b1/Group1_IMG_9915.jpg,1,Group1_IMG_9915.jpg,,,,,0.0,114.0,114.0,114.0,,,,,,,,,,,,,,,,,,,405.1699746351224,None,,,1,0.7658429478760809,407.63803961803205,None,407.63803961803205,None,,,406.4875717379618,None,,,,,1,2022_Apr_14_1116,Real-fake-judgement-flashing-group1,2021.1.2,59.94443721065973,
118,Trial # 116,Group1-stimuli/group1-block1/real-group1-b1/Group1_IMG_9850.jpg,1,Group1_IMG_9850.jpg,,,,,0.0,115.0,115.0,115.0,,,,,,,,,,,,,,,,,,,408.4370120009408,None,,,1,0.4275737779680639,410.90437211096287,None,410.90437211096287,None,,,409.7381927960087,None,,,,,1,2022_Apr_14_1116,Real-fake-judgement-flashing-group1,2021.1.2,59.94443721065973,
119,Trial # 117,Group1-stimuli/group1-block1/real-group1-b1/Group1_IMG_3579.jpg,1,Group1_IMG_3579.jpg,,,,,0.0,116.0,116.0,116.0,,,,,,,,,,,,,,,,,,,411.3557652719319,None,,,1,0.397887613857165,413.8220218920615,None,413.8220218920615,None,,,412.6561275969725,None,,,,,1,2022_Apr_14_1116,Real-fake-judgement-flashing-group1,2021.1.2,59.94443721065973,
120,Trial # 118,Group1-stimuli/group1-block1/fake-group2-b1/encoded_Group2_IMG_0377.jpg,0,encoded_Group2_IMG_0377.jpg,,,,,0.0,117.0,117.0,117.0,,,,,,,,,,,,,,,,,,,414.23861822811887,None,,,0,0.3053105480503291,416.7066396151204,None,416.7066396151204,None,,,415.5553225730546,None,,,,,1,2022_Apr_14_1116,Real-fake-judgement-flashing-group1,2021.1.2,59.94443721065973,
121,Trial # 119,Group1-stimuli/group1-block1/real-group1-b1/Group1_IMG_0469.jpg,1,Group1_IMG_0469.jpg,,,,,0.0,118.0,118.0,118.0,,,,,,,,,,,,,,,,,,,417.04053377895616,None,,,1,0.3360902108252048,419.52379888901487,None,419.52379888901487,None,,,418.3567024129443,None,,,,,1,2022_Apr_14_1116,Real-fake-judgement-flashing-group1,2021.1.2,59.94443721065973,
122,Trial # 120,Group1-stimuli/group1-block1/fake-group2-b1/encoded_Group2_IMG_0100.jpg,0,encoded_Group2_IMG_0100.jpg,,,,,0.0,119.0,119.0,119.0,,,,,,,,,,,,,,,,,,,419.8903939470183,None,,,0,0.5248558188322932,422.3590949559584,None,422.3590949559584,None,,,421.1903170910664,None,,,,,1,2022_Apr_14_1116,Real-fake-judgement-flashing-group1,2021.1.2,59.94443721065973,
123,Trial # 121,Group1-stimuli/group1-block1/real-group1-b1/Group1_IMG_5359.jpg,1,Group1_IMG_5359.jpg,,,,,0.0,120.0,120.0,120.0,,,,,,,,,,,,,,,,,,,422.90946168708615,None,,,1,0.3397923370357603,425.39215864404105,None,425.39215864404105,None,,,424.22517943405546,None,,,,,1,2022_Apr_14_1116,Real-fake-judgement-flashing-group1,2021.1.2,59.94443721065973,
124,Trial # 122,Group1-stimuli/group1-block1/fake-group2-b1/encoded_Group2_IMG_0304.jpg,0,encoded_Group2_IMG_0304.jpg,,,,,0.0,121.0,121.0,121.0,,,,,,,,,,,,,,,,,,,425.7594397070352,None,,,0,0.3527093529701233,428.24324064911343,None,428.24324064911343,None,,,427.060583390994,None,,,,,1,2022_Apr_14_1116,Real-fake-judgement-flashing-group1,2021.1.2,59.94443721065973,
125,Trial # 123,Group1-stimuli/group1-block1/real-group1-b1/Group1_IMG_0306.jpg,1,Group1_IMG_0306.jpg,,,,,0.0,122.0,122.0,122.0,,,,,,,,,,,,,,,,,,,428.6267389429268,None,,,1,0.3091759597882628,431.1107732539531,None,431.1107732539531,None,,,429.9436032650992,None,,,,,1,2022_Apr_14_1116,Real-fake-judgement-flashing-group1,2021.1.2,59.94443721065973,
126,Trial # 124,Group1-stimuli/group1-block1/real-group1-b1/Group1_IMG_0224.jpg,1,Group1_IMG_0224.jpg,,,,,0.0,123.0,123.0,123.0,,,,,,,,,,,,,,,,,,,431.4445727709681,None,,,1,0.6205079860519618,433.91147540695965,None,433.91147540695965,None,,,432.7456551101059,None,,,,,1,2022_Apr_14_1116,Real-fake-judgement-flashing-group1,2021.1.2,59.94443721065973,
127,Trial # 125,Group1-stimuli/group1-block1/real-group1-b1/Group1_IMG_9889.jpg,1,Group1_IMG_9889.jpg,,,,,0.0,124.0,124.0,124.0,,,,,,,,,,,,,,,,,,,434.5623103899416,None,,,1,0.4222456130664795,437.0297040040605,None,437.0297040040605,None,,,435.8621159750037,None,,,,,1,2022_Apr_14_1116,Real-fake-judgement-flashing-group1,2021.1.2,59.94443721065973,
128,Trial # 126,Group1-stimuli/group1-block1/real-group1-b1/Group1_IMG_0293.jpg,1,Group1_IMG_0293.jpg,,,,,0.0,125.0,125.0,125.0,,,,,,,,,,,,,,,,,,,437.4798702220433,None,,,0,0.4569610869511962,439.9469833141193,None,439.9469833141193,None,,,438.779521998018,None,,,,,1,2022_Apr_14_1116,Real-fake-judgement-flashing-group1,2021.1.2,59.94443721065973,
129,Trial # 127,Group1-stimuli/group1-block1/fake-group2-b1/encoded_Group2_IMG_0321.jpg,0,encoded_Group2_IMG_0321.jpg,,,,,0.0,126.0,126.0,126.0,,,,,,,,,,,,,,,,,,,440.4306144551374,None,,,1,0.3131599500775337,442.8988101079594,None,442.8988101079594,None,,,441.7151024399791,None,,,,,1,2022_Apr_14_1116,Real-fake-judgement-flashing-group1,2021.1.2,59.94443721065973,
130,Trial # 128,Group1-stimuli/group1-block1/fake-group2-b1/encoded_Group2_IMG_0400.jpg,0,encoded_Group2_IMG_0400.jpg,,,,,0.0,127.0,127.0,127.0,,,,,,,,,,,,,,,,,,,443.2314135639463,None,,,0,0.2973453050944954,445.6985126461368,None,445.6985126461368,None,,,444.53157613798976,None,,,,,1,2022_Apr_14_1116,Real-fake-judgement-flashing-group1,2021.1.2,59.94443721065973,
131,Trial # 129,Group1-stimuli/group1-block1/fake-group2-b1/encoded_Group2_IMG_0443.jpg,0,encoded_Group2_IMG_0443.jpg,,,,,0.0,128.0,128.0,128.0,,,,,,,,,,,,,,,,,,,446.0155093620997,None,,,0,0.3939364189282059,448.46601235400885,None,448.46601235400885,None,,,447.3001432379242,None,,,,,1,2022_Apr_14_1116,Real-fake-judgement-flashing-group1,2021.1.2,59.94443721065973,
132,Trial # 130,Group1-stimuli/group1-block1/fake-group2-b1/encoded_Group2_IMG_0542.jpg,0,encoded_Group2_IMG_0542.jpg,,,,,0.0,129.0,129.0,129.0,,,,,,,,,,,,,,,,,,,448.8829004019499,None,,,0,0.244463836075738,451.3514847659972,None,451.3514847659972,None,,,450.1832081831526,None,,,,,1,2022_Apr_14_1116,Real-fake-judgement-flashing-group1,2021.1.2,59.94443721065973,
133,Trial # 131,Group1-stimuli/group1-block1/real-group1-b1/Group1_IMG_0885.jpg,1,Group1_IMG_0885.jpg,,,,,0.0,130.0,130.0,130.0,,,,,,,,,,,,,,,,,,,451.6171833691187,None,,,1,0.3595741209574044,454.0843742240686,None,454.0843742240686,None,,,452.9175086759497,None,,,,,1,2022_Apr_14_1116,Real-fake-judgement-flashing-group1,2021.1.2,59.94443721065973,
134,Trial # 132,Group1-stimuli/group1-block1/real-group1-b1/Group1_IMG_0375.jpg,1,Group1_IMG_0375.jpg,,,,,0.0,131.0,131.0,131.0,,,,,,,,,,,,,,,,,,,454.4680324371439,None,,,1,0.3553121669683605,456.9366386230104,None,456.9366386230104,None,,,455.7683316220064,None,,,,,1,2022_Apr_14_1116,Real-fake-judgement-flashing-group1,2021.1.2,59.94443721065973,
135,Trial # 133,Group1-stimuli/group1-block1/fake-group2-b1/encoded_Group2_IMG_7351.jpg,0,encoded_Group2_IMG_7351.jpg,,,,,0.0,132.0,132.0,132.0,,,,,,,,,,,,,,,,,,,457.3197043789551,None,,,0,0.449568010866642,459.78639002214186,None,459.78639002214186,None,,,458.61910239607096,None,,,,,1,2022_Apr_14_1116,Real-fake-judgement-flashing-group1,2021.1.2,59.94443721065973,
136,Trial # 134,Group1-stimuli/group1-block1/fake-group2-b1/encoded_Group2_IMG_0416.jpg,0,encoded_Group2_IMG_0416.jpg,,,,,0.0,133.0,133.0,133.0,,,,,,,,,,,,,,,,,,,460.25389776704833,None,,,0,0.4422403720673173,462.7217044441495,None,462.7217044441495,None,,,461.5545462621376,None,,,,,1,2022_Apr_14_1116,Real-fake-judgement-flashing-group1,2021.1.2,59.94443721065973,
137,Trial # 135,Group1-stimuli/group1-block1/fake-group2-b1/encoded_Group2_IMG_0139.jpg,0,encoded_Group2_IMG_0139.jpg,,,,,0.0,134.0,134.0,134.0,,,,,,,,,,,,,,,,,,,463.1870408470277,None,,,1,0.5486703219357878,465.6712890130002,None,465.6712890130002,None,,,464.4874032230582,None,,,,,1,2022_Apr_14_1116,Real-fake-judgement-flashing-group1,2021.1.2,59.94443721065973,
138,Trial # 136,Group1-stimuli/group1-block1/real-group1-b1/Group1_IMG_9677.jpg,1,Group1_IMG_9677.jpg,,,,,0.0,135.0,135.0,135.0,,,,,,,,,,,,,,,,,,,466.2374825091101,None,,,0,0.4022368041332811,468.7057140620891,None,468.7057140620891,None,,,467.5564303661231,None,,,,,1,2022_Apr_14_1116,Real-fake-judgement-flashing-group1,2021.1.2,59.94443721065973,
139,Trial # 137,Group1-stimuli/group1-block1/fake-group2-b1/encoded_Group2_IMG_5982.jpg,0,encoded_Group2_IMG_5982.jpg,,,,,0.0,136.0,136.0,136.0,,,,,,,,,,,,,,,,,,,469.1396739471238,None,,,0,0.3411076271440834,471.5908369871322,None,471.5908369871322,None,,,470.4225463741459,None,,,,,1,2022_Apr_14_1116,Real-fake-judgement-flashing-group1,2021.1.2,59.94443721065973,
140,Trial # 138,Group1-stimuli/group1-block1/fake-group2-b1/encoded_Group2_IMG_1144.jpg,0,encoded_Group2_IMG_1144.jpg,,,,,0.0,137.0,137.0,137.0,,,,,,,,,,,,,,,,,,,471.9570541749709,None,,,0,0.31593226082623,474.42401472106576,None,474.42401472106576,None,,,473.25808479008265,None,,,,,1,2022_Apr_14_1116,Real-fake-judgement-flashing-group1,2021.1.2,59.94443721065973,
141,Trial # 139,Group1-stimuli/group1-block1/fake-group2-b1/encoded_Group2_IMG_0315.jpg,0,encoded_Group2_IMG_0315.jpg,,,,,0.0,138.0,138.0,138.0,,,,,,,,,,,,,,,,,,,474.7572617789265,None,,,0,0.2017756989225745,477.2261746120639,None,477.2261746120639,None,,,476.0579523490742,None,,,,,1,2022_Apr_14_1116,Real-fake-judgement-flashing-group1,2021.1.2,59.94443721065973,
142,Trial # 140,Group1-stimuli/group1-block1/real-group1-b1/Group1_IMG_130.jpg,1,Group1_IMG_130.jpg,,,,,0.0,139.0,139.0,139.0,,,,,,,,,,,,,,,,,,,477.4596836059354,None,,,0,0.3247565599158406,479.9591926219873,None,479.9591926219873,None,,,478.7921566059813,None,,,,,1,2022_Apr_14_1116,Real-fake-judgement-flashing-group1,2021.1.2,59.94443721065973,
143,Trial # 141,Group1-stimuli/group1-block1/real-group1-b1/Group1_IMG_0024.jpg,1,Group1_IMG_0024.jpg,,,,,0.0,140.0,140.0,140.0,,,,,,,,,,,,,,,,,,,480.30928520602174,None,,,0,0.1547553690616041,482.7771823690273,None,482.7771823690273,None,,,481.610732258996,None,,,,,1,2022_Apr_14_1116,Real-fake-judgement-flashing-group1,2021.1.2,59.94443721065973,
144,Trial # 142,Group1-stimuli/group1-block1/fake-group2-b1/encoded_Group2_IMG_5012.jpg,0,encoded_Group2_IMG_5012.jpg,,,,,0.0,141.0,141.0,141.0,,,,,,,,,,,,,,,,,,,482.96128294593655,None,,,0,0.2483539858367294,485.427586938953,None,485.427586938953,None,,,484.2603803009261,None,,,,,1,2022_Apr_14_1116,Real-fake-judgement-flashing-group1,2021.1.2,59.94443721065973,
145,Trial # 143,Group1-stimuli/group1-block1/fake-group2-b1/encoded_Group2_IMG_0209.jpg,0,encoded_Group2_IMG_0209.jpg,,,,,0.0,142.0,142.0,142.0,,,,,,,,,,,,,,,,,,,485.6948173400015,None,,,0,0.4494043448939919,488.178541392088,None,488.178541392088,None,,,486.9957269190345,None,,,,,1,2022_Apr_14_1116,Real-fake-judgement-flashing-group1,2021.1.2,59.94443721065973,
146,Trial # 144,Group1-stimuli/group1-block1/real-group1-b1/Group1_IMG_0373.jpg,1,Group1_IMG_0373.jpg,,,,,0.0,143.0,143.0,143.0,,,,,,,,,,,,,,,,,,,488.6451312799472,None,,,0,0.3146711150184273,491.1293337531388,None,491.1293337531388,None,,,489.962134727044,None,,,,,1,2022_Apr_14_1116,Real-fake-judgement-flashing-group1,2021.1.2,59.94443721065973,
147,Trial # 145,Group1-stimuli/group1-block1/real-group1-b1/Group1_IMG_5899.jpg,1,Group1_IMG_5899.jpg,,,,,0.0,144.0,144.0,144.0,,,,,,,,,,,,,,,,,,,491.4631539350376,None,,,1,0.3138871779665351,493.9300668200012,None,493.9300668200012,None,,,492.76424912409857,None,,,,,1,2022_Apr_14_1116,Real-fake-judgement-flashing-group1,2021.1.2,59.94443721065973,
148,Trial # 146,Group1-stimuli/group1-block1/real-group1-b1/Group1_IMG_0162.jpg,1,Group1_IMG_0162.jpg,,,,,0.0,145.0,145.0,145.0,,,,,,,,,,,,,,,,,,,494.2629629089497,None,,,0,0.7037036388646811,496.7322459090501,None,496.7322459090501,None,,,495.5805994949769,None,,,,,1,2022_Apr_14_1116,Real-fake-judgement-flashing-group1,2021.1.2,59.94443721065973,
149,Trial # 147,Group1-stimuli/group1-block1/real-group1-b1/Group1_IMG_0543.jpg,1,Group1_IMG_0543.jpg,,,,,0.0,146.0,146.0,146.0,,,,,,,,,,,,,,,,,,,497.46587163908407,None,,,1,0.430664628976956,499.94921834394336,None,499.94921834394336,None,,,498.7815141240135,None,,,,,1,2022_Apr_14_1116,Real-fake-judgement-flashing-group1,2021.1.2,59.94443721065973,
150,Trial # 148,Group1-stimuli/group1-block1/fake-group2-b1/encoded_Group2_IMG_0355.jpg,0,encoded_Group2_IMG_0355.jpg,,,,,0.0,147.0,147.0,147.0,,,,,,,,,,,,,,,,,,,500.3985076721292,None,,,1,0.2978852819651365,502.8500603940338,None,502.8500603940338,None,,,501.6836466619279,None,,,,,1,2022_Apr_14_1116,Real-fake-judgement-flashing-group1,2021.1.2,59.94443721065973,
151,Trial # 149,Group1-stimuli/group1-block1/real-group1-b1/Group1_IMG_9765.jpg,1,Group1_IMG_9765.jpg,,,,,0.0,148.0,148.0,148.0,,,,,,,,,,,,,,,,,,,503.1668374640867,None,,,1,0.4422008970286697,505.633749488974,None,505.633749488974,None,,,504.4664756560233,None,,,,,1,2022_Apr_14_1116,Real-fake-judgement-flashing-group1,2021.1.2,59.94443721065973,
152,Trial # 150,Group1-stimuli/group1-block1/fake-group2-b1/encoded_Group2_IMG_1378.jpg,0,encoded_Group2_IMG_1378.jpg,,,,,0.0,149.0,149.0,149.0,,,,,,,,,,,,,,,,,,,506.134142105002,None,,,1,0.3959873400162905,508.5679725089576,None,508.5679725089576,None,,,507.4020398331341,None,,,,,1,2022_Apr_14_1116,Real-fake-judgement-flashing-group1,2021.1.2,59.94443721065973,
153,Trial # 1,Group1-stimuli/group1-block2/fake-group2-b2/encoded_Group2_IMG_0155.jpg,0,encoded_Group2_IMG_0155.jpg,,,,,,,,,0.0,0.0,0.0,0.0,,,,,,,,,,,,,,,539.6283606439829,None,,,0,2.021539303939789,542.0784112981055,None,542.0784112981055,None,513.6703763080295,None,540.9439837541431,None,508.9846789981239,None,,,1,2022_Apr_14_1116,Real-fake-judgement-flashing-group1,2021.1.2,59.94443721065973,
154,Trial # 2,Group1-stimuli/group1-block2/real-group1-b2/Group1_IMG_0519.jpg,1,Group1_IMG_0519.jpg,,,,,,,,,0.0,1.0,1.0,1.0,,,,,,,,,,,,,,,544.1292228361126,None,,,0,0.4702786570414901,546.5976708780508,None,546.5976708780508,None,,,545.4457940929569,None,,,,,1,2022_Apr_14_1116,Real-fake-judgement-flashing-group1,2021.1.2,59.94443721065973,
155,Trial # 3,Group1-stimuli/group1-block2/fake-group2-b2/encoded_Group2_IMG_0135.jpg,0,encoded_Group2_IMG_0135.jpg,,,,,,,,,0.0,2.0,2.0,2.0,,,,,,,,,,,,,,,547.097904301947,None,,,0,0.3758441449608654,549.5641038350295,None,549.5641038350295,None,,,548.397523844149,None,,,,,1,2022_Apr_14_1116,Real-fake-judgement-flashing-group1,2021.1.2,59.94443721065973,
156,Trial # 4,Group1-stimuli/group1-block2/real-group1-b2/Group1_IMG_5310.jpg,1,Group1_IMG_5310.jpg,,,,,,,,,0.0,3.0,3.0,3.0,,,,,,,,,,,,,,,549.9646415440366,None,,,1,0.4191778940148651,552.4327726429328,None,552.4327726429328,None,,,551.2805566559546,None,,,,,1,2022_Apr_14_1116,Real-fake-judgement-flashing-group1,2021.1.2,59.94443721065973,
157,Trial # 5,Group1-stimuli/group1-block2/real-group1-b2/Group1_IMG_0522.jpg,1,Group1_IMG_0522.jpg,,,,,,,,,0.0,4.0,4.0,4.0,,,,,,,,,,,,,,,552.883040226996,None,,,1,0.3824103230144828,555.3655453261454,None,555.3655453261454,None,,,554.1986958500929,None,,,,,1,2022_Apr_14_1116,Real-fake-judgement-flashing-group1,2021.1.2,59.94443721065973,
158,Trial # 6,Group1-stimuli/group1-block2/fake-group2-b2/encoded_Group2_IMG_0484.jpg,0,encoded_Group2_IMG_0484.jpg,,,,,,,,,0.0,5.0,5.0,5.0,,,,,,,,,,,,,,,555.7659759100061,None,,,1,0.2420723969116807,558.217887151055,None,558.217887151055,None,,,557.0507554181386,None,,,,,1,2022_Apr_14_1116,Real-fake-judgement-flashing-group1,2021.1.2,59.94443721065973,
159,Trial # 7,Group1-stimuli/group1-block2/fake-group2-b2/encoded_Group2_IMG_5948.jpg,0,encoded_Group2_IMG_5948.jpg,,,,,,,,,0.0,6.0,6.0,6.0,,,,,,,,,,,,,,,558.48467760114,None,,,1,0.5170078540686518,560.9509641721379,None,560.9509641721379,None,,,559.7835046220571,None,,,,,1,2022_Apr_14_1116,Real-fake-judgement-flashing-group1,2021.1.2,59.94443721065973,
160,Trial # 8,Group1-stimuli/group1-block2/fake-group2-b2/encoded_Group2_IMG_3591.jpg,0,encoded_Group2_IMG_3591.jpg,,,,,,,,,0.0,7.0,7.0,7.0,,,,,,,,,,,,,,,561.4855276730377,None,,,0,0.5234160691034049,563.9685340940487,None,563.9685340940487,None,,,562.8192126411013,None,,,,,1,2022_Apr_14_1116,Real-fake-judgement-flashing-group1,2021.1.2,59.94443721065973,
161,Trial # 9,Group1-stimuli/group1-block2/real-group1-b2/Group1_IMG_9835.jpg,1,Group1_IMG_9835.jpg,,,,,,,,,0.0,8.0,8.0,8.0,,,,,,,,,,,,,,,564.5179816971067,None,,,0,0.416731908917427,567.0032262790482,None,567.0032262790482,None,,,565.8351429910399,None,,,,,1,2022_Apr_14_1116,Real-fake-judgement-flashing-group1,2021.1.2,59.94443721065973,
162,Trial # 10,Group1-stimuli/group1-block2/real-group1-b2/Group1_IMG_0556.jpg,1,Group1_IMG_0556.jpg,,,,,,,,,0.0,9.0,9.0,9.0,,,,,,,,,,,,,,,567.436422334984,None,,,1,0.3155942370649427,569.9203647021204,None,569.9203647021204,None,,,568.7528343719896,None,,,,,1,2022_Apr_14_1116,Real-fake-judgement-flashing-group1,2021.1.2,59.94443721065973,
163,Trial # 11,Group1-stimuli/group1-block2/fake-group2-b2/encoded_Group2_IMG_9736.jpg,0,encoded_Group2_IMG_9736.jpg,,,,,,,,,0.0,10.0,10.0,10.0,,,,,,,,,,,,,,,570.253884161124,None,,,1,0.353524746838957,572.7224238191266,None,572.7224238191266,None,,,571.5718527401332,None,,,,,1,2022_Apr_14_1116,Real-fake-judgement-flashing-group1,2021.1.2,59.94443721065973,
164,Trial # 12,Group1-stimuli/group1-block2/real-group1-b2/Group1_IMG_9867.jpg,1,Group1_IMG_9867.jpg,,,,,,,,,0.0,11.0,11.0,11.0,,,,,,,,,,,,,,,573.10472497507,None,,,0,0.392063609091565,575.5718833149876,None,575.5718833149876,None,,,574.4213620899245,None,,,,,1,2022_Apr_14_1116,Real-fake-judgement-flashing-group1,2021.1.2,59.94443721065973,
165,Trial # 13,Group1-stimuli/group1-block2/fake-group2-b2/encoded_Group2_IMG_9886.jpg,0,encoded_Group2_IMG_9886.jpg,,,,,,,,,0.0,12.0,12.0,12.0,,,,,,,,,,,,,,,575.9886038480327,None,,,1,0.330633824924007,578.4572721091099,None,578.4572721091099,None,,,577.3071537211072,None,,,,,1,2022_Apr_14_1116,Real-fake-judgement-flashing-group1,2021.1.2,59.94443721065973,
166,Trial # 14,Group1-stimuli/group1-block2/fake-group2-b2/encoded_Group2_IMG_2245.jpg,0,encoded_Group2_IMG_2245.jpg,,,,,,,,,0.0,13.0,13.0,13.0,,,,,,,,,,,,,,,578.807669071015,None,,,0,0.2261170521378517,581.2738301509526,None,581.2738301509526,None,,,580.1233393319417,None,,,,,1,2022_Apr_14_1116,Real-fake-judgement-flashing-group1,2021.1.2,59.94443721065973,
167,Trial # 15,Group1-stimuli/group1-block2/fake-group2-b2/encoded_Group2_IMG_0507.jpg,0,encoded_Group2_IMG_0507.jpg,,,,,,,,,0.0,14.0,14.0,14.0,,,,,,,,,,,,,,,581.5249464910012,None,,,0,0.3085946331266314,583.991363029927,None,583.991363029927,None,,,582.824944372056,None,,,,,1,2022_Apr_14_1116,Real-fake-judgement-flashing-group1,2021.1.2,59.94443721065973,
168,Trial # 16,Group1-stimuli/group1-block2/fake-group2-b2/encoded_Group2_IMG_0338.jpg,0,encoded_Group2_IMG_0338.jpg,,,,,,,,,0.0,15.0,15.0,15.0,,,,,,,,,,,,,,,584.3244481889997,None,,,0,0.170657844049856,586.7932918409351,None,586.7932918409351,None,,,585.6415394521318,None,,,,,1,2022_Apr_14_1116,Real-fake-judgement-flashing-group1,2021.1.2,59.94443721065973,
169,Trial # 17,Group1-stimuli/group1-block2/real-group1-b2/Group1_IMG_0376.jpg,1,Group1_IMG_0376.jpg,,,,,,,,,0.0,16.0,16.0,16.0,,,,,,,,,,,,,,,586.99319397402,None,,,1,0.3595737470313906,589.4764169701375,None,589.4764169701375,None,,,588.3091796149965,None,,,,,1,2022_Apr_14_1116,Real-fake-judgement-flashing-group1,2021.1.2,59.94443721065973,
170,Trial # 18,Group1-stimuli/group1-block2/real-group1-b2/Group1_IMG_9821.jpg,1,Group1_IMG_9821.jpg,,,,,,,,,0.0,17.0,17.0,17.0,,,,,,,,,,,,,,,589.8596981391311,None,,,1,0.3402481481898576,592.327702599112,None,592.327702599112,None,,,591.1602426900063,None,,,,,1,2022_Apr_14_1116,Real-fake-judgement-flashing-group1,2021.1.2,59.94443721065973,
171,Trial # 19,Group1-stimuli/group1-block2/fake-group2-b2/encoded_Group2_IMG_0388.jpg,0,encoded_Group2_IMG_0388.jpg,,,,,,,,,0.0,18.0,18.0,18.0,,,,,,,,,,,,,,,592.6951458230615,None,,,0,0.3465514071285724,595.1613954941276,None,595.1613954941276,None,,,593.994072973961,None,,,,,1,2022_Apr_14_1116,Real-fake-judgement-flashing-group1,2021.1.2,59.94443721065973,
172,Trial # 20,Group1-stimuli/group1-block2/fake-group2-b2/encoded_Group2_IMG_0222.jpg,0,encoded_Group2_IMG_0222.jpg,,,,,,,,,0.0,19.0,19.0,19.0,,,,,,,,,,,,,,,595.5286141370889,None,,,0,0.3913713430520147,597.9965883749537,None,597.9965883749537,None,,,596.8463720369618,None,,,,,1,2022_Apr_14_1116,Real-fake-judgement-flashing-group1,2021.1.2,59.94443721065973,
173,Trial # 21,Group1-stimuli/group1-block2/fake-group2-b2/encoded_Group2_IMG_2215.jpg,0,encoded_Group2_IMG_2215.jpg,,,,,,,,,0.0,20.0,20.0,20.0,,,,,,,,,,,,,,,598.4123110570945,None,,,0,0.164722470799461,600.8792255120352,None,600.8792255120352,None,,,599.6960383460391,None,,,,,1,2022_Apr_14_1116,Real-fake-judgement-flashing-group1,2021.1.2,59.94443721065973,
174,Trial # 22,Group1-stimuli/group1-block2/real-group1-b2/Group1_IMG_9760.jpg,1,Group1_IMG_9760.jpg,,,,,,,,,0.0,21.0,21.0,21.0,,,,,,,,,,,,,,,601.0631724421401,None,,,1,0.3280803069937974,603.5478694629855,None,603.5478694629855,None,,,602.3811992669944,None,,,,,1,2022_Apr_14_1116,Real-fake-judgement-flashing-group1,2021.1.2,59.94443721065973,
175,Trial # 23,Group1-stimuli/group1-block2/real-group1-b2/Group1_IMG_9897.jpg,1,Group1_IMG_9897.jpg,,,,,,,,,0.0,22.0,22.0,22.0,,,,,,,,,,,,,,,603.8982292569708,None,,,0,0.3661637851037085,606.3817973700352,None,606.3817973700352,None,,,605.247655862011,None,,,,,1,2022_Apr_14_1116,Real-fake-judgement-flashing-group1,2021.1.2,59.94443721065973,
176,Trial # 24,Group1-stimuli/group1-block2/real-group1-b2/Group1_IMG_4250.jpg,1,Group1_IMG_4250.jpg,,,,,,,,,0.0,23.0,23.0,23.0,,,,,,,,,,,,,,,606.7658480289392,None,,,1,0.4349479109514504,609.248961093137,None,609.248961093137,None,,,608.0819967330899,None,,,,,1,2022_Apr_14_1116,Real-fake-judgement-flashing-group1,2021.1.2,59.94443721065973,
177,Trial # 25,Group1-stimuli/group1-block2/real-group1-b2/Group1_IMG_2244.jpg,1,Group1_IMG_2244.jpg,,,,,,,,,0.0,24.0,24.0,24.0,,,,,,,,,,,,,,,609.7156393760815,None,,,1,0.3150355750694871,612.2008382291533,None,612.2008382291533,None,,,611.0328827621415,None,,,,,1,2022_Apr_14_1116,Real-fake-judgement-flashing-group1,2021.1.2,59.94443721065973,
178,Trial # 26,Group1-stimuli/group1-block2/fake-group2-b2/encoded_Group2_IMG_0501.jpg,0,encoded_Group2_IMG_0501.jpg,,,,,,,,,0.0,25.0,25.0,25.0,,,,,,,,,,,,,,,612.5344607790466,None,,,0,0.3390235239639878,615.0009268000722,None,615.0009268000722,None,,,613.8337552121375,None,,,,,1,2022_Apr_14_1116,Real-fake-judgement-flashing-group1,2021.1.2,59.94443721065973,
179,Trial # 27,Group1-stimuli/group1-block2/real-group1-b2/Group1_IMG_9684.jpg,1,Group1_IMG_9684.jpg,,,,,,,,,0.0,26.0,26.0,26.0,,,,,,,,,,,,,,,615.3676804190036,None,,,1,0.4636687890160829,617.8361796881072,None,617.8361796881072,None,,,616.6693747970276,None,,,,,1,2022_Apr_14_1116,Real-fake-judgement-flashing-group1,2021.1.2,59.94443721065973,
180,Trial # 28,Group1-stimuli/group1-block2/real-group1-b2/Group1_IMG_1039.jpg,1,Group1_IMG_1039.jpg,,,,,,,,,0.0,27.0,27.0,27.0,,,,,,,,,,,,,,,618.319652340142,None,,,1,0.4093789379112422,620.8025664910674,None,620.8025664910674,None,,,619.6355423741043,None,,,,,1,2022_Apr_14_1116,Real-fake-judgement-flashing-group1,2021.1.2,59.94443721065973,
181,Trial # 29,Group1-stimuli/group1-block2/fake-group2-b2/encoded_Group2_IMG_0251.jpg,0,encoded_Group2_IMG_0251.jpg,,,,,,,,,0.0,28.0,28.0,28.0,,,,,,,,,,,,,,,621.2362425460014,None,,,0,0.1483462448231876,623.7036124910228,None,623.7036124910228,None,,,622.554384001065,None,,,,,1,2022_Apr_14_1116,Real-fake-judgement-flashing-group1,2021.1.2,59.94443721065973,
182,Trial # 30,Group1-stimuli/group1-block2/real-group1-b2/Group1_IMG_9692.jpg,1,Group1_IMG_9692.jpg,,,,,,,,,0.0,29.0,29.0,29.0,,,,,,,,,,,,,,,623.870462014107,None,,,1,0.2810783570166677,626.3547632179689,None,626.3547632179689,None,,,625.1872809380293,None,,,,,1,2022_Apr_14_1116,Real-fake-judgement-flashing-group1,2021.1.2,59.94443721065973,
183,Trial # 31,Group1-stimuli/group1-block2/real-group1-b2/Group1_IMG_0512.jpg,1,Group1_IMG_0512.jpg,,,,,,,,,0.0,30.0,30.0,30.0,,,,,,,,,,,,,,,626.6559713550378,None,,,1,0.2965683778747916,629.1554321451113,None,629.1554321451113,None,,,627.9725808459334,None,,,,,1,2022_Apr_14_1116,Real-fake-judgement-flashing-group1,2021.1.2,59.94443721065973,
184,Trial # 32,Group1-stimuli/group1-block2/fake-group2-b2/encoded_Group2_IMG_9673.jpg,0,encoded_Group2_IMG_9673.jpg,,,,,,,,,0.0,31.0,31.0,31.0,,,,,,,,,,,,,,,629.4728865581565,None,,,0,0.2232004359830171,631.9407469909638,None,631.9407469909638,None,,,630.772300143959,None,,,,,1,2022_Apr_14_1116,Real-fake-judgement-flashing-group1,2021.1.2,59.94443721065973,
185,Trial # 33,Group1-stimuli/group1-block2/fake-group2-b2/encoded_Group2_IMG_5135.jpg,0,encoded_Group2_IMG_5135.jpg,,,,,,,,,0.0,32.0,32.0,32.0,,,,,,,,,,,,,,,632.1905995940324,None,,,0,0.2907994301058352,634.6571467530448,None,634.6571467530448,None,,,633.4899969380349,None,,,,,1,2022_Apr_14_1116,Real-fake-judgement-flashing-group1,2021.1.2,59.94443721065973,
186,Trial # 34,Group1-stimuli/group1-block2/real-group1-b2/Group1_IMG_0396.jpg,1,Group1_IMG_0396.jpg,,,,,,,,,0.0,33.0,33.0,33.0,,,,,,,,,,,,,,,634.9736361210234,None,,,0,0.3536061570048332,637.4423604540061,None,637.4423604540061,None,,,636.2905305980239,None,,,,,1,2022_Apr_14_1116,Real-fake-judgement-flashing-group1,2021.1.2,59.94443721065973,
187,Trial # 35,Group1-stimuli/group1-block2/real-group1-b2/Group1_IMG_4919.jpg,1,Group1_IMG_4919.jpg,,,,,,,,,0.0,34.0,34.0,34.0,,,,,,,,,,,,,,,637.8256484600715,None,,,1,0.5039939119014889,640.2919547681231,None,640.2919547681231,None,,,639.1248483569361,None,,,,,1,2022_Apr_14_1116,Real-fake-judgement-flashing-group1,2021.1.2,59.94443721065973,
188,Trial # 36,Group1-stimuli/group1-block2/real-group1-b2/Group1_IMG_0449.jpg,1,Group1_IMG_0449.jpg,,,,,,,,,0.0,35.0,35.0,35.0,,,,,,,,,,,,,,,640.8250252329744,None,,,1,0.3102406959515065,643.3097370020114,None,643.3097370020114,None,,,642.1436782970559,None,,,,,1,2022_Apr_14_1116,Real-fake-judgement-flashing-group1,2021.1.2,59.94443721065973,
189,Trial # 37,Group1-stimuli/group1-block2/fake-group2-b2/encoded_Group2_IMG_0539.jpg,0,encoded_Group2_IMG_0539.jpg,,,,,,,,,0.0,36.0,36.0,36.0,,,,,,,,,,,,,,,643.6430613219272,None,,,1,0.2936894630547613,646.1102603599429,None,646.1102603599429,None,,,644.9434656670783,None,,,,,1,2022_Apr_14_1116,Real-fake-judgement-flashing-group1,2021.1.2,59.94443721065973,
190,Trial # 38,Group1-stimuli/group1-block2/real-group1-b2/Group1_IMG_0453.jpg,1,Group1_IMG_0453.jpg,,,,,,,,,0.0,37.0,37.0,37.0,,,,,,,,,,,,,,,646.4284224221483,None,,,1,0.1887807890307158,648.9111689811107,None,648.9111689811107,None,,,647.7451243889518,None,,,,,1,2022_Apr_14_1116,Real-fake-judgement-flashing-group1,2021.1.2,59.94443721065973,
191,Trial # 39,Group1-stimuli/group1-block2/fake-group2-b2/encoded_Group2_IMG_0318.jpg,0,encoded_Group2_IMG_0318.jpg,,,,,,,,,0.0,38.0,38.0,38.0,,,,,,,,,,,,,,,649.1287187631242,None,,,1,0.2168110141064971,651.579046061961,None,651.579046061961,None,,,650.4114012219943,None,,,,,1,2022_Apr_14_1116,Real-fake-judgement-flashing-group1,2021.1.2,59.94443721065973,
192,Trial # 40,Group1-stimuli/group1-block2/real-group1-b2/Group1_IMG_1678.jpg,1,Group1_IMG_1678.jpg,,,,,,,,,0.0,39.0,39.0,39.0,,,,,,,,,,,,,,,651.8128060591407,None,,,1,0.2921779889147728,654.2797660019714,None,654.2797660019714,None,,,653.1301757339388,None,,,,,1,2022_Apr_14_1116,Real-fake-judgement-flashing-group1,2021.1.2,59.94443721065973,
193,Trial # 41,Group1-stimuli/group1-block2/fake-group2-b2/encoded_Group2_IMG_0325.jpg,0,encoded_Group2_IMG_0325.jpg,,,,,,,,,0.0,40.0,40.0,40.0,,,,,,,,,,,,,,,654.5961447460577,None,,,0,0.3709859680384397,657.0649710861035,None,657.0649710861035,None,,,655.9134110389277,None,,,,,1,2022_Apr_14_1116,Real-fake-judgement-flashing-group1,2021.1.2,59.94443721065973,
194,Trial # 42,Group1-stimuli/group1-block2/fake-group2-b2/encoded_Group2_IMG_9935.jpg,0,encoded_Group2_IMG_9935.jpg,,,,,,,,,0.0,41.0,41.0,41.0,,,,,,,,,,,,,,,657.4650267791003,None,,,1,0.5277745530474931,659.9481827749405,None,659.9481827749405,None,,,658.7811384699307,None,,,,,1,2022_Apr_14_1116,Real-fake-judgement-flashing-group1,2021.1.2,59.94443721065973,
195,Trial # 43,Group1-stimuli/group1-block2/fake-group2-b2/encoded_Group2_IMG_0308.jpg,0,encoded_Group2_IMG_0308.jpg,,,,,,,,,0.0,42.0,42.0,42.0,,,,,,,,,,,,,,,660.4985072941054,None,,,1,0.462025105021894,662.965824804036,None,662.965824804036,None,,,661.799923124956,None,,,,,1,2022_Apr_14_1116,Real-fake-judgement-flashing-group1,2021.1.2,59.94443721065973,
196,Trial # 44,Group1-stimuli/group1-block2/real-group1-b2/Group1_IMG_0467.jpg,1,Group1_IMG_0467.jpg,,,,,,,,,0.0,43.0,43.0,43.0,,,,,,,,,,,,,,,663.4490710119717,None,,,1,0.1111608808860182,665.9327745279297,None,665.9327745279297,None,,,664.7665918129496,None,,,,,1,2022_Apr_14_1116,Real-fake-judgement-flashing-group1,2021.1.2,59.94443721065973,
197,Trial # 45,Group1-stimuli/group1-block2/fake-group2-b2/encoded_Group2_IMG_9839.jpg,0,encoded_Group2_IMG_9839.jpg,,,,,,,,,0.0,44.0,44.0,44.0,,,,,,,,,,,,,,,666.0661609631497,None,,,1,0.2619597651064396,668.5339859700762,None,668.5339859700762,None,,,667.3680345530156,None,,,,,1,2022_Apr_14_1116,Real-fake-judgement-flashing-group1,2021.1.2,59.94443721065973,
198,Trial # 46,Group1-stimuli/group1-block2/fake-group2-b2/encoded_Group2_IMG_9681.jpg,0,encoded_Group2_IMG_9681.jpg,,,,,,,,,0.0,45.0,45.0,45.0,,,,,,,,,,,,,,,668.8178594210185,None,,,1,0.1271688779816031,671.2846997161396,None,671.2846997161396,None,,,670.1175207369961,None,,,,,1,2022_Apr_14_1116,Real-fake-judgement-flashing-group1,2021.1.2,59.94443721065973,
199,Trial # 47,Group1-stimuli/group1-block2/fake-group2-b2/encoded_Group2_IMG_0458.jpg,0,encoded_Group2_IMG_0458.jpg,,,,,,,,,0.0,46.0,46.0,46.0,,,,,,,,,,,,,,,671.4363106261007,None,,,0,0.3088395080994814,673.9191179999616,None,673.9191179999616,None,,,672.8024552220013,None,,,,,1,2022_Apr_14_1116,Real-fake-judgement-flashing-group1,2021.1.2,59.94443721065973,
200,Trial # 48,Group1-stimuli/group1-block2/real-group1-b2/Group1_IMG_1095.jpg,1,Group1_IMG_1095.jpg,,,,,,,,,0.0,47.0,47.0,47.0,,,,,,,,,,,,,,,674.2526276779827,None,,,1,0.3864628951996565,676.7375047011301,None,676.7375047011301,None,,,675.5692271380685,None,,,,,1,2022_Apr_14_1116,Real-fake-judgement-flashing-group1,2021.1.2,59.94443721065973,
201,Trial # 49,Group1-stimuli/group1-block2/fake-group2-b2/encoded_Group2_IMG_9710.jpg,0,encoded_Group2_IMG_9710.jpg,,,,,,,,,0.0,48.0,48.0,48.0,,,,,,,,,,,,,,,677.1536426229868,None,,,0,0.5021200929768384,679.6218284410425,None,679.6218284410425,None,,,678.4546520810109,None,,,,,1,2022_Apr_14_1116,Real-fake-judgement-flashing-group1,2021.1.2,59.94443721065973,
202,Trial # 50,Group1-stimuli/group1-block2/fake-group2-b2/encoded_Group2_IMG_9819.jpg,0,encoded_Group2_IMG_9819.jpg,,,,,,,,,0.0,49.0,49.0,49.0,,,,,,,,,,,,,,,680.1543160129804,None,,,1,0.1738770059309899,682.6060895009432,None,682.6060895009432,None,,,681.4389013161417,None,,,,,1,2022_Apr_14_1116,Real-fake-judgement-flashing-group1,2021.1.2,59.94443721065973,
203,Trial # 51,Group1-stimuli/group1-block2/real-group1-b2/Group1_IMG_0064.jpg,1,Group1_IMG_0064.jpg,,,,,,,,,0.0,50.0,50.0,50.0,,,,,,,,,,,,,,,682.8063998089638,None,,,1,0.1226777150295674,685.2892729369923,None,685.2892729369923,None,,,684.1221599599812,None,,,,,1,2022_Apr_14_1116,Real-fake-judgement-flashing-group1,2021.1.2,59.94443721065973,
204,Trial # 52,Group1-stimuli/group1-block2/fake-group2-b2/encoded_Group2_IMG_9756.jpg,0,encoded_Group2_IMG_9756.jpg,,,,,,,,,0.0,51.0,51.0,51.0,,,,,,,,,,,,,,,685.4392089000903,None,,,0,0.305087500018999,687.9068620519247,None,687.9068620519247,None,,,686.7575224270113,None,,,,,1,2022_Apr_14_1116,Real-fake-judgement-flashing-group1,2021.1.2,59.94443721065973,
205,Trial # 53,Group1-stimuli/group1-block2/fake-group2-b2/encoded_Group2_IMG_5888.jpg,0,encoded_Group2_IMG_5888.jpg,,,,,,,,,0.0,52.0,52.0,52.0,,,,,,,,,,,,,,,688.2399920970201,None,,,0,0.2484048439655453,690.7074820329435,None,690.7074820329435,None,,,689.5404557329603,None,,,,,1,2022_Apr_14_1116,Real-fake-judgement-flashing-group1,2021.1.2,59.94443721065973,
206,Trial # 54,Group1-stimuli/group1-block2/real-group1-b2/Group1_IMG_1476.jpg,1,Group1_IMG_1476.jpg,,,,,,,,,0.0,53.0,53.0,53.0,,,,,,,,,,,,,,,690.974184361985,None,,,1,0.2495663380250334,693.4583905460313,None,693.4583905460313,None,,,692.2922521091532,None,,,,,1,2022_Apr_14_1116,Real-fake-judgement-flashing-group1,2021.1.2,59.94443721065973,
207,Trial # 55,Group1-stimuli/group1-block2/real-group1-b2/Group1_IMG_1917.jpg,1,Group1_IMG_1917.jpg,,,,,,,,,0.0,54.0,54.0,54.0,,,,,,,,,,,,,,,693.7252276251093,None,,,1,0.3872559459414333,696.1926948600449,None,696.1926948600449,None,,,695.0253340201452,None,,,,,1,2022_Apr_14_1116,Real-fake-judgement-flashing-group1,2021.1.2,59.94443721065973,
208,Trial # 56,Group1-stimuli/group1-block2/real-group1-b2/Group1_IMG_0413.jpg,1,Group1_IMG_0413.jpg,,,,,,,,,0.0,55.0,55.0,55.0,,,,,,,,,,,,,,,696.6096003381535,None,,,1,0.1906195869669318,699.0933289730456,None,699.0933289730456,None,,,697.9276114520617,None,,,,,1,2022_Apr_14_1116,Real-fake-judgement-flashing-group1,2021.1.2,59.94443721065973,
209,Trial # 57,Group1-stimuli/group1-block2/real-group1-b2/Group1_IMG_1001.jpg,1,Group1_IMG_1001.jpg,,,,,,,,,0.0,56.0,56.0,56.0,,,,,,,,,,,,,,,699.3103380871471,None,,,1,0.1843613048549741,701.795610614121,None,701.795610614121,None,,,700.6272143630777,None,,,,,1,2022_Apr_14_1116,Real-fake-judgement-flashing-group1,2021.1.2,59.94443721065973,
210,Trial # 58,Group1-stimuli/group1-block2/fake-group2-b2/encoded_Group2_IMG_0441.jpg,0,encoded_Group2_IMG_0441.jpg,,,,,,,,,0.0,57.0,57.0,57.0,,,,,,,,,,,,,,,702.0121018870268,None,,,1,0.3335391329601407,704.4783832230605,None,704.4783832230605,None,,,703.3114675250836,None,,,,,1,2022_Apr_14_1116,Real-fake-judgement-flashing-group1,2021.1.2,59.94443721065973,
211,Trial # 59,Group1-stimuli/group1-block2/real-group1-b2/Group1_IMG_9774.jpg,1,Group1_IMG_9774.jpg,,,,,,,,,0.0,58.0,58.0,58.0,,,,,,,,,,,,,,,704.8455606740899,None,,,1,0.1780848209746182,707.3298638090491,None,707.3298638090491,None,,,706.161869921023,None,,,,,1,2022_Apr_14_1116,Real-fake-judgement-flashing-group1,2021.1.2,59.94443721065973,
212,Trial # 60,Group1-stimuli/group1-block2/fake-group2-b2/encoded_Group2_IMG_2751.jpg,0,encoded_Group2_IMG_2751.jpg,,,,,,,,,0.0,59.0,59.0,59.0,,,,,,,,,,,,,,,707.5306159411557,None,,,1,0.3589602750726044,709.9969866489992,None,709.9969866489992,None,,,708.830976115074,None,,,,,1,2022_Apr_14_1116,Real-fake-judgement-flashing-group1,2021.1.2,59.94443721065973,
213,Trial # 61,Group1-stimuli/group1-block2/fake-group2-b2/encoded_Group2_IMG_0409.jpg,0,encoded_Group2_IMG_0409.jpg,,,,,,,,,0.0,60.0,60.0,60.0,,,,,,,,,,,,,,,710.3805831440259,None,,,1,0.1629571339581161,712.8490531470161,None,712.8490531470161,None,,,711.6818546941504,None,,,,,1,2022_Apr_14_1116,Real-fake-judgement-flashing-group1,2021.1.2,59.94443721065973,
214,Trial # 62,Group1-stimuli/group1-block2/real-group1-b2/Group1_IMG_1346.jpg,1,Group1_IMG_1346.jpg,,,,,,,,,0.0,61.0,61.0,61.0,,,,,,,,,,,,,,,713.0314629939385,None,,,1,0.2165454120840877,715.5153543080669,None,715.5153543080669,None,,,714.3481130721048,None,,,,,1,2022_Apr_14_1116,Real-fake-judgement-flashing-group1,2021.1.2,59.94443721065973,
215,Trial # 63,Group1-stimuli/group1-block2/real-group1-b2/Group1_IMG_0481.jpg,1,Group1_IMG_0481.jpg,,,,,,,,,0.0,62.0,62.0,62.0,,,,,,,,,,,,,,,715.7479236610234,None,,,1,0.2751740920357406,718.2327728399541,None,718.2327728399541,None,,,717.0665921999607,None,,,,,1,2022_Apr_14_1116,Real-fake-judgement-flashing-group1,2021.1.2,59.94443721065973,
216,Trial # 64,Group1-stimuli/group1-block2/fake-group2-b2/encoded_Group2_IMG_4718.jpg,0,encoded_Group2_IMG_4718.jpg,,,,,,,,,0.0,63.0,63.0,63.0,,,,,,,,,,,,,,,718.5331963489298,None,,,1,0.1639751750044524,720.999974173028,None,720.999974173028,None,,,719.8330980211031,None,,,,,1,2022_Apr_14_1116,Real-fake-judgement-flashing-group1,2021.1.2,59.94443721065973,
217,Trial # 65,Group1-stimuli/group1-block2/real-group1-b2/Group1_IMG_0540.jpg,1,Group1_IMG_0540.jpg,,,,,,,,,0.0,64.0,64.0,64.0,,,,,,,,,,,,,,,721.1835290449671,None,,,1,0.1449192308355122,723.6510428290349,None,723.6510428290349,None,,,722.501621998148,None,,,,,1,2022_Apr_14_1116,Real-fake-judgement-flashing-group1,2021.1.2,59.94443721065973,
218,Trial # 66,Group1-stimuli/group1-block2/fake-group2-b2/encoded_Group2_IMG_0166.jpg,0,encoded_Group2_IMG_0166.jpg,,,,,,,,,0.0,65.0,65.0,65.0,,,,,,,,,,,,,,,723.8181549939327,None,,,1,0.1266443338245153,726.2853039151523,None,726.2853039151523,None,,,725.1180908479728,None,,,,,1,2022_Apr_14_1116,Real-fake-judgement-flashing-group1,2021.1.2,59.94443721065973,
219,Trial # 67,Group1-stimuli/group1-block2/fake-group2-b2/encoded_Group2_IMG_0412.jpg,0,encoded_Group2_IMG_0412.jpg,,,,,,,,,0.0,66.0,66.0,66.0,,,,,,,,,,,,,,,726.4365052101202,None,,,0,0.6293961079791188,728.9025520361029,None,728.9025520361029,None,,,727.7365414050873,None,,,,,1,2022_Apr_14_1116,Real-fake-judgement-flashing-group1,2021.1.2,59.94443721065973,
220,Trial # 68,Group1-stimuli/group1-block2/real-group1-b2/Group1_IMG_0485.jpg,1,Group1_IMG_0485.jpg,,,,,,,,,0.0,67.0,67.0,67.0,,,,,,,,,,,,,,,729.5535504620057,None,,,1,0.3183118379674852,732.0216378010809,None,732.0216378010809,None,,,730.8695990559645,None,,,,,1,2022_Apr_14_1116,Real-fake-judgement-flashing-group1,2021.1.2,59.94443721065973,
221,Trial # 69,Group1-stimuli/group1-block2/fake-group2-b2/encoded_Group2_IMG_1495.jpg,0,encoded_Group2_IMG_1495.jpg,,,,,,,,,0.0,68.0,68.0,68.0,,,,,,,,,,,,,,,732.3707494640257,None,,,0,0.4300065338611603,734.8379440051503,None,734.8379440051503,None,,,733.6707906699739,None,,,,,1,2022_Apr_14_1116,Real-fake-judgement-flashing-group1,2021.1.2,59.94443721065973,
222,Trial # 70,Group1-stimuli/group1-block2/real-group1-b2/Group1_IMG_0426.jpg,1,Group1_IMG_0426.jpg,,,,,,,,,0.0,69.0,69.0,69.0,,,,,,,,,,,,,,,735.2883424069732,None,,,0,0.3916495139710605,737.756310940953,None,737.756310940953,None,,,736.605493059149,None,,,,,1,2022_Apr_14_1116,Real-fake-judgement-flashing-group1,2021.1.2,59.94443721065973,
223,Trial # 71,Group1-stimuli/group1-block2/real-group1-b2/Group1_IMG_0349.jpg,1,Group1_IMG_0349.jpg,,,,,,,,,0.0,70.0,70.0,70.0,,,,,,,,,,,,,,,738.173404939007,None,,,1,0.3880519492086023,740.655940188095,None,740.655940188095,None,,,739.5055579610635,None,,,,,1,2022_Apr_14_1116,Real-fake-judgement-flashing-group1,2021.1.2,59.94443721065973,
224,Trial # 72,Group1-stimuli/group1-block2/real-group1-b2/Group1_IMG_0414.jpg,1,Group1_IMG_0414.jpg,,,,,,,,,0.0,71.0,71.0,71.0,,,,,,,,,,,,,,,741.0735563819762,None,,,1,0.1828251369297504,743.5570513359271,None,743.5570513359271,None,,,742.3746650039684,None,,,,,1,2022_Apr_14_1116,Real-fake-judgement-flashing-group1,2021.1.2,59.94443721065973,
225,Trial # 73,Group1-stimuli/group1-block2/fake-group2-b2/encoded_Group2_IMG_9856.jpg,0,encoded_Group2_IMG_9856.jpg,,,,,,,,,0.0,72.0,72.0,72.0,,,,,,,,,,,,,,,743.7570288351271,None,,,0,0.2912732281256467,746.2246806379408,None,746.2246806379408,None,,,745.0576570320409,None,,,,,1,2022_Apr_14_1116,Real-fake-judgement-flashing-group1,2021.1.2,59.94443721065973,
226,Trial # 74,Group1-stimuli/group1-block2/fake-group2-b2/encoded_Group2_IMG_5313.jpg,0,encoded_Group2_IMG_5313.jpg,,,,,,,,,0.0,73.0,73.0,73.0,,,,,,,,,,,,,,,746.5425774641335,None,,,0,0.3134898492135107,749.0424644530285,None,749.0424644530285,None,,,747.8430986220483,None,,,,,1,2022_Apr_14_1116,Real-fake-judgement-flashing-group1,2021.1.2,59.94443721065973,
227,Trial # 75,Group1-stimuli/group1-block2/fake-group2-b2/encoded_Group2_IMG_0421.jpg,0,encoded_Group2_IMG_0421.jpg,,,,,,,,,0.0,74.0,74.0,74.0,,,,,,,,,,,,,,,749.3758697940502,None,,,0,0.328958649886772,751.8269900130108,None,751.8269900130108,None,,,750.6593577510212,None,,,,,1,2022_Apr_14_1116,Real-fake-judgement-flashing-group1,2021.1.2,59.94443721065973,
228,Trial # 76,Group1-stimuli/group1-block2/fake-group2-b2/encoded_Group2_IMG_0446.jpg,0,encoded_Group2_IMG_0446.jpg,,,,,,,,,0.0,75.0,75.0,75.0,,,,,,,,,,,,,,,752.1767400749959,None,,,0,0.2077515379060059,754.6441945419647,None,754.6441945419647,None,,,753.4767557389569,None,,,,,1,2022_Apr_14_1116,Real-fake-judgement-flashing-group1,2021.1.2,59.94443721065973,
229,Trial # 77,Group1-stimuli/group1-block2/real-group1-b2/Group1_IMG_5999.jpg,1,Group1_IMG_5999.jpg,,,,,,,,,0.0,76.0,76.0,76.0,,,,,,,,,,,,,,,754.8774663570803,None,,,1,0.2347874259576201,757.3450981299393,None,757.3450981299393,None,,,756.1941358209588,None,,,,,1,2022_Apr_14_1116,Real-fake-judgement-flashing-group1,2021.1.2,59.94443721065973,
230,Trial # 78,Group1-stimuli/group1-block2/real-group1-b2/Group1_IMG_0107.jpg,1,Group1_IMG_0107.jpg,,,,,,,,,0.0,77.0,77.0,77.0,,,,,,,,,,,,,,,757.6126244480256,None,,,1,0.3001913970801979,760.0956928350497,None,760.0956928350497,None,,,758.9283576440066,None,,,,,1,2022_Apr_14_1116,Real-fake-judgement-flashing-group1,2021.1.2,59.94443721065973,
231,Trial # 79,Group1-stimuli/group1-block2/fake-group2-b2/encoded_Group2_IMG_0322.jpg,0,encoded_Group2_IMG_0322.jpg,,,,,,,,,0.0,78.0,78.0,78.0,,,,,,,,,,,,,,,760.4291297041345,None,,,0,0.5302513230126351,762.897624691017,None,762.897624691017,None,,,761.7476391140372,None,,,,,1,2022_Apr_14_1116,Real-fake-judgement-flashing-group1,2021.1.2,59.94443721065973,
232,Trial # 80,Group1-stimuli/group1-block2/fake-group2-b2/encoded_Group2_IMG_4255.jpg,0,encoded_Group2_IMG_4255.jpg,,,,,,,,,0.0,79.0,79.0,79.0,,,,,,,,,,,,,,,763.4467849039938,None,,,0,0.2819074939470738,765.9140996770002,None,765.9140996770002,None,,,764.7474636631086,None,,,,,1,2022_Apr_14_1116,Real-fake-judgement-flashing-group1,2021.1.2,59.94443721065973,
233,Trial # 81,Group1-stimuli/group1-block2/fake-group2-b2/encoded_Group2_IMG_0219.jpg,0,encoded_Group2_IMG_0219.jpg,,,,,,,,,0.0,80.0,80.0,80.0,,,,,,,,,,,,,,,766.2134695190471,None,,,0,0.2021838389337062,768.6817708511371,None,768.6817708511371,None,,,767.4988138829358,None,,,,,1,2022_Apr_14_1116,Real-fake-judgement-flashing-group1,2021.1.2,59.94443721065973,
234,Trial # 82,Group1-stimuli/group1-block2/real-group1-b2/Group1_IMG_0548.jpg,1,Group1_IMG_0548.jpg,,,,,,,,,0.0,81.0,81.0,81.0,,,,,,,,,,,,,,,768.9149711499922,None,,,1,0.0602772717829793,771.399673138978,None,771.399673138978,None,,,770.232077172026,None,,,,,1,2022_Apr_14_1116,Real-fake-judgement-flashing-group1,2021.1.2,59.94443721065973,
235,Trial # 83,Group1-stimuli/group1-block2/real-group1-b2/Group1_IMG_0229.jpg,1,Group1_IMG_0229.jpg,,,,,,,,,0.0,82.0,82.0,82.0,,,,,,,,,,,,,,,771.4831306030974,None,,,1,0.0772855461109429,773.9666872180533,None,773.9666872180533,None,,,772.8008973139804,None,,,,,1,2022_Apr_14_1116,Real-fake-judgement-flashing-group1,2021.1.2,59.94443721065973,
236,Trial # 84,Group1-stimuli/group1-block2/fake-group2-b2/encoded_Group2_IMG_0365.jpg,0,encoded_Group2_IMG_0365.jpg,,,,,,,,,0.0,83.0,83.0,83.0,,,,,,,,,,,,,,,774.0665469351225,None,,,0,0.1244126698002219,776.5355355450884,None,776.5355355450884,None,,,775.3666640571319,None,,,,,1,2022_Apr_14_1116,Real-fake-judgement-flashing-group1,2021.1.2,59.94443721065973,
237,Trial # 85,Group1-stimuli/group1-block2/real-group1-b2/Group1_IMG_9822.jpg,1,Group1_IMG_9822.jpg,,,,,,,,,0.0,84.0,84.0,84.0,,,,,,,,,,,,,,,776.6847724481486,None,,,1,1.0997399019543082,779.1682062039617,None,779.1682062039617,None,,,778.0023334969301,None,,,,,1,2022_Apr_14_1116,Real-fake-judgement-flashing-group1,2021.1.2,59.94443721065973,
238,Trial # 86,Group1-stimuli/group1-block2/fake-group2-b2/encoded_Group2_IMG_0195.jpg,0,encoded_Group2_IMG_0195.jpg,,,,,,,,,0.0,85.0,85.0,85.0,,,,,,,,,,,,,,,780.2852588149253,None,,,1,0.3227554750628769,782.7531929360703,None,782.7531929360703,None,,,781.5867153441068,None,,,,,1,2022_Apr_14_1116,Real-fake-judgement-flashing-group1,2021.1.2,59.94443721065973,
239,Trial # 87,Group1-stimuli/group1-block2/fake-group2-b2/encoded_Group2_IMG_0494.jpg,0,encoded_Group2_IMG_0494.jpg,,,,,,,,,0.0,86.0,86.0,86.0,,,,,,,,,,,,,,,783.1041532249656,None,,,0,0.2649395188782364,785.5870208849665,None,785.5870208849665,None,,,784.4197993441485,None,,,,,1,2022_Apr_14_1116,Real-fake-judgement-flashing-group1,2021.1.2,59.94443721065973,
240,Trial # 88,Group1-stimuli/group1-block2/real-group1-b2/Group1_IMG_0509.jpg,1,Group1_IMG_0509.jpg,,,,,,,,,0.0,87.0,87.0,87.0,,,,,,,,,,,,,,,785.8700070460327,None,,,1,0.185446057934314,788.3545398919377,None,788.3545398919377,None,,,787.17183617712,None,,,,,1,2022_Apr_14_1116,Real-fake-judgement-flashing-group1,2021.1.2,59.94443721065973,
241,Trial # 89,Group1-stimuli/group1-block2/fake-group2-b2/encoded_Group2_IMG_8924.jpg,0,encoded_Group2_IMG_8924.jpg,,,,,,,,,0.0,88.0,88.0,88.0,,,,,,,,,,,,,,,788.5714443740435,None,,,1,0.2693498230073601,791.0386588850524,None,791.0386588850524,None,,,789.8714999849908,None,,,,,1,2022_Apr_14_1116,Real-fake-judgement-flashing-group1,2021.1.2,59.94443721065973,
242,Trial # 90,Group1-stimuli/group1-block2/real-group1-b2/Group1_IMG_0360.jpg,1,Group1_IMG_0360.jpg,,,,,,,,,0.0,89.0,89.0,89.0,,,,,,,,,,,,,,,791.3383120731451,None,,,1,2.269869332900271,793.8061049450189,None,793.8061049450189,None,,,792.6568719339557,None,,,,,1,2022_Apr_14_1116,Real-fake-judgement-flashing-group1,2021.1.2,59.94443721065973,
243,Trial # 91,Group1-stimuli/group1-block2/fake-group2-b2/encoded_Group2_IMG_0523.jpg,0,encoded_Group2_IMG_0523.jpg,,,,,,,,,0.0,90.0,90.0,90.0,,,,,,,,,,,,,,,796.106652176939,None,,,1,0.1003617690876126,798.575551554095,None,798.575551554095,None,,,797.3916797521524,None,,,,,1,2022_Apr_14_1116,Real-fake-judgement-flashing-group1,2021.1.2,59.94443721065973,
244,Trial # 92,Group1-stimuli/group1-block2/real-group1-b2/Group1_IMG_0518.jpg,1,Group1_IMG_0518.jpg,,,,,,,,,0.0,91.0,91.0,91.0,,,,,,,,,,,,,,,798.7076365349349,None,,,1,0.2449578549712896,801.1749987299554,None,801.1749987299554,None,,,800.0086756621022,None,,,,,1,2022_Apr_14_1116,Real-fake-judgement-flashing-group1,2021.1.2,59.94443721065973,
245,Trial # 93,Group1-stimuli/group1-block2/fake-group2-b2/encoded_Group2_IMG_0372.jpg,0,encoded_Group2_IMG_0372.jpg,,,,,,,,,0.0,92.0,92.0,92.0,,,,,,,,,,,,,,,801.4422569039743,None,,,0,0.2714005399029702,803.8925494540017,None,803.8925494540017,None,,,802.7266493029892,None,,,,,1,2022_Apr_14_1116,Real-fake-judgement-flashing-group1,2021.1.2,59.94443721065973,
246,Trial # 94,Group1-stimuli/group1-block2/fake-group2-b2/encoded_Group2_IMG_9761.jpg,0,encoded_Group2_IMG_9761.jpg,,,,,,,,,0.0,93.0,93.0,93.0,,,,,,,,,,,,,,,804.1933710959274,None,,,1,0.3914604389574379,806.6604871179443,None,806.6604871179443,None,,,805.4932014269289,None,,,,,1,2022_Apr_14_1116,Real-fake-judgement-flashing-group1,2021.1.2,59.94443721065973,
247,Trial # 95,Group1-stimuli/group1-block2/real-group1-b2/Group1_IMG_2690.jpg,1,Group1_IMG_2690.jpg,,,,,,,,,0.0,94.0,94.0,94.0,,,,,,,,,,,,,,,807.0778977770824,None,,,1,0.2987403110601008,809.5610972291324,None,809.5610972291324,None,,,808.3940250559244,None,,,,,1,2022_Apr_14_1116,Real-fake-judgement-flashing-group1,2021.1.2,59.94443721065973,
248,Trial # 96,Group1-stimuli/group1-block2/real-group1-b2/Group1_IMG_9855.jpg,1,Group1_IMG_9855.jpg,,,,,,,,,0.0,95.0,95.0,95.0,,,,,,,,,,,,,,,809.8773309350945,None,,,1,0.2185098892077803,812.3454385790974,None,812.3454385790974,None,,,811.1947946629953,None,,,,,1,2022_Apr_14_1116,Real-fake-judgement-flashing-group1,2021.1.2,59.94443721065973,
249,Trial # 97,Group1-stimuli/group1-block2/fake-group2-b2/encoded_Group2_IMG_0470.jpg,0,encoded_Group2_IMG_0470.jpg,,,,,,,,,0.0,96.0,96.0,96.0,,,,,,,,,,,,,,,812.5968273370527,None,,,1,0.3172552559990436,815.0626281241421,None,815.0626281241421,None,,,813.8955198910553,None,,,,,1,2022_Apr_14_1116,Real-fake-judgement-flashing-group1,2021.1.2,59.94443721065973,
250,Trial # 98,Group1-stimuli/group1-block2/fake-group2-b2/encoded_Group2_IMG_1191.jpg,0,encoded_Group2_IMG_1191.jpg,,,,,,,,,0.0,97.0,97.0,97.0,,,,,,,,,,,,,,,815.4126888150349,None,,,1,0.3231686160434037,817.8648063871078,None,817.8648063871078,None,,,816.6967991441488,None,,,,,1,2022_Apr_14_1116,Real-fake-judgement-flashing-group1,2021.1.2,59.94443721065973,
251,Trial # 99,Group1-stimuli/group1-block2/real-group1-b2/Group1_IMG_9937.jpg,1,Group1_IMG_9937.jpg,,,,,,,,,0.0,98.0,98.0,98.0,,,,,,,,,,,,,,,818.2149897541385,None,,,1,0.3700626860372722,820.6978942861315,None,820.6978942861315,None,,,819.5307102990337,None,,,,,1,2022_Apr_14_1116,Real-fake-judgement-flashing-group1,2021.1.2,59.94443721065973,
252,Trial # 100,Group1-stimuli/group1-block2/fake-group2-b2/encoded_Group2_IMG_0106.jpg,0,encoded_Group2_IMG_0106.jpg,,,,,,,,,0.0,99.0,99.0,99.0,,,,,,,,,,,,,,,821.0985168749467,None,,,1,0.4139850321225822,823.565891860053,None,823.565891860053,None,,,822.399370693136,None,,,,,1,2022_Apr_14_1116,Real-fake-judgement-flashing-group1,2021.1.2,59.94443721065973,
253,Trial # 101,Group1-stimuli/group1-block2/real-group1-b2/Group1_IMG_2790.jpg,1,Group1_IMG_2790.jpg,,,,,,,,,0.0,100.0,100.0,100.0,,,,,,,,,,,,,,,823.9986847219989,None,,,1,0.4333511509466916,826.4666083911434,None,826.4666083911434,None,,,825.2990958839655,None,,,,,1,2022_Apr_14_1116,Real-fake-judgement-flashing-group1,2021.1.2,59.94443721065973,
254,Trial # 102,Group1-stimuli/group1-block2/real-group1-b2/Group1_IMG_9792.jpg,1,Group1_IMG_9792.jpg,,,,,,,,,0.0,101.0,101.0,101.0,,,,,,,,,,,,,,,826.9168897760101,None,,,1,0.2433546159882098,829.400642212946,None,829.400642212946,None,,,828.2333593601361,None,,,,,1,2022_Apr_14_1116,Real-fake-judgement-flashing-group1,2021.1.2,59.94443721065973,
255,Trial # 103,Group1-stimuli/group1-block2/real-group1-b2/Group1_IMG_1640.jpg,1,Group1_IMG_1640.jpg,,,,,,,,,0.0,102.0,102.0,102.0,,,,,,,,,,,,,,,829.6670220559463,None,,,1,0.1714713990222662,832.1524223061278,None,832.1524223061278,None,,,830.967565454077,None,,,,,1,2022_Apr_14_1116,Real-fake-judgement-flashing-group1,2021.1.2,59.94443721065973,
256,Trial # 104,Group1-stimuli/group1-block2/real-group1-b2/Group1_IMG_0033.jpg,1,Group1_IMG_0033.jpg,,,,,,,,,0.0,103.0,103.0,103.0,,,,,,,,,,,,,,,832.3514753610361,None,,,1,0.4887686388101429,834.8352439180017,None,834.8352439180017,None,,,833.6683337080758,None,,,,,1,2022_Apr_14_1116,Real-fake-judgement-flashing-group1,2021.1.2,59.94443721065973,
257,Trial # 105,Group1-stimuli/group1-block2/real-group1-b2/Group1_IMG_0079.jpg,1,Group1_IMG_0079.jpg,,,,,,,,,0.0,104.0,104.0,104.0,,,,,,,,,,,,,,,835.3520892269444,None,,,1,0.3832805489655584,837.8206844320521,None,837.8206844320521,None,,,836.670500857057,None,,,,,1,2022_Apr_14_1116,Real-fake-judgement-flashing-group1,2021.1.2,59.94443721065973,
258,Trial # 106,Group1-stimuli/group1-block2/fake-group2-b2/encoded_Group2_IMG_9909.jpg,0,encoded_Group2_IMG_9909.jpg,,,,,,,,,0.0,105.0,105.0,105.0,,,,,,,,,,,,,,,838.2209835590329,None,,,1,0.5244344959501177,840.6875105861109,None,840.6875105861109,None,,,839.5202141781338,None,,,,,1,2022_Apr_14_1116,Real-fake-judgement-flashing-group1,2021.1.2,59.94443721065973,
259,Trial # 107,Group1-stimuli/group1-block2/fake-group2-b2/encoded_Group2_IMG_0398.jpg,0,encoded_Group2_IMG_0398.jpg,,,,,,,,,0.0,106.0,106.0,106.0,,,,,,,,,,,,,,,841.2373700351454,None,,,0,0.2987704379484057,843.7051910611335,None,843.7051910611335,None,,,842.5219495419879,None,,,,,1,2022_Apr_14_1116,Real-fake-judgement-flashing-group1,2021.1.2,59.94443721065973,
260,Trial # 108,Group1-stimuli/group1-block2/real-group1-b2/Group1_IMG_4268.jpg,1,Group1_IMG_4268.jpg,,,,,,,,,0.0,107.0,107.0,107.0,,,,,,,,,,,,,,,844.0218587471172,None,,,0,0.5297250349540263,846.4902377580293,None,846.4902377580293,None,,,845.3224476161413,None,,,,,1,2022_Apr_14_1116,Real-fake-judgement-flashing-group1,2021.1.2,59.94443721065973,
261,Trial # 109,Group1-stimuli/group1-block2/fake-group2-b2/encoded_Group2_IMG_9321.jpg,0,encoded_Group2_IMG_9321.jpg,,,,,,,,,0.0,108.0,108.0,108.0,,,,,,,,,,,,,,,847.0395836120006,None,,,0,0.2565108409617096,849.5234469701536,None,849.5234469701536,None,,,848.3395953939762,None,,,,,1,2022_Apr_14_1116,Real-fake-judgement-flashing-group1,2021.1.2,59.94443721065973,
262,Trial # 110,Group1-stimuli/group1-block2/fake-group2-b2/encoded_Group2_IMG_9964.jpg,0,encoded_Group2_IMG_9964.jpg,,,,,,,,,0.0,109.0,109.0,109.0,,,,,,,,,,,,,,,849.8072848401498,None,,,1,0.5205987468361855,852.2753565600142,None,852.2753565600142,None,,,851.1068030421156,None,,,,,1,2022_Apr_14_1116,Real-fake-judgement-flashing-group1,2021.1.2,59.94443721065973,
263,Trial # 111,Group1-stimuli/group1-block2/real-group1-b2/Group1_IMG_0329.jpg,1,Group1_IMG_0329.jpg,,,,,,,,,0.0,110.0,110.0,110.0,,,,,,,,,,,,,,,852.8256175359711,None,,,0,0.4392707981169224,855.3086784479674,None,855.3086784479674,None,,,854.1413417549338,None,,,,,1,2022_Apr_14_1116,Real-fake-judgement-flashing-group1,2021.1.2,59.94443721065973,
264,Trial # 112,Group1-stimuli/group1-block2/fake-group2-b2/encoded_Group2_IMG_0534.jpg,0,encoded_Group2_IMG_0534.jpg,,,,,,,,,0.0,111.0,111.0,111.0,,,,,,,,,,,,,,,855.7747456701472,None,,,1,0.3039845761377364,858.243965622969,None,858.243965622969,None,,,857.1268019559793,None,,,,,1,2022_Apr_14_1116,Real-fake-judgement-flashing-group1,2021.1.2,59.94443721065973,
265,Trial # 113,Group1-stimuli/group1-block2/fake-group2-b2/encoded_Group2_IMG_0054.jpg,0,encoded_Group2_IMG_0054.jpg,,,,,,,,,0.0,112.0,112.0,112.0,,,,,,,,,,,,,,,858.5768856180366,None,,,1,0.3923277168069035,861.0436206469312,None,861.0436206469312,None,,,859.8764908991288,None,,,,,1,2022_Apr_14_1116,Real-fake-judgement-flashing-group1,2021.1.2,59.94443721065973,
266,Trial # 114,Group1-stimuli/group1-block2/real-group1-b2/Group1_IMG_9979.jpg,1,Group1_IMG_9979.jpg,,,,,,,,,0.0,113.0,113.0,113.0,,,,,,,,,,,,,,,861.4611429120414,None,,,1,0.2842092688661068,863.9277866480406,None,863.9277866480406,None,,,862.7616215550806,None,,,,,1,2022_Apr_14_1116,Real-fake-judgement-flashing-group1,2021.1.2,59.94443721065973,
267,Trial # 115,Group1-stimuli/group1-block2/real-group1-b2/Group1_IMG_0170.jpg,1,Group1_IMG_0170.jpg,,,,,,,,,0.0,114.0,114.0,114.0,,,,,,,,,,,,,,,864.2278306470253,None,,,1,0.2665361070539802,866.7133698430844,None,866.7133698430844,None,,,865.5451993211173,None,,,,,1,2022_Apr_14_1116,Real-fake-judgement-flashing-group1,2021.1.2,59.94443721065973,
268,Trial # 116,Group1-stimuli/group1-block2/fake-group2-b2/encoded_Group2_IMG_0007.jpg,0,encoded_Group2_IMG_0007.jpg,,,,,,,,,0.0,115.0,115.0,115.0,,,,,,,,,,,,,,,866.9968258230947,None,,,0,0.2210421601776033,869.4629085271154,None,869.4629085271154,None,,,868.2957018481102,None,,,,,1,2022_Apr_14_1116,Real-fake-judgement-flashing-group1,2021.1.2,59.94443721065973,
269,Trial # 117,Group1-stimuli/group1-block2/real-group1-b2/Group1_IMG_0192.jpg,1,Group1_IMG_0192.jpg,,,,,,,,,0.0,116.0,116.0,116.0,,,,,,,,,,,,,,,869.71308288211,None,,,1,0.1663481569848954,872.1816314680036,None,872.1816314680036,None,,,871.0966116311029,None,,,,,1,2022_Apr_14_1116,Real-fake-judgement-flashing-group1,2021.1.2,59.94443721065973,
270,Trial # 118,Group1-stimuli/group1-block2/real-group1-b2/Group1_IMG_9786.jpg,1,Group1_IMG_9786.jpg,,,,,,,,,0.0,117.0,117.0,117.0,,,,,,,,,,,,,,,872.3654084110167,None,,,1,0.2997373761609196,874.8642081951257,None,874.8642081951257,None,,,873.6807302951347,None,,,,,1,2022_Apr_14_1116,Real-fake-judgement-flashing-group1,2021.1.2,59.94443721065973,
271,Trial # 119,Group1-stimuli/group1-block2/real-group1-b2/Group1_IMG_0187.jpg,1,Group1_IMG_0187.jpg,,,,,,,,,0.0,118.0,118.0,118.0,,,,,,,,,,,,,,,875.1816528700292,None,,,1,0.3539777330588549,877.6499791410752,None,877.6499791410752,None,,,876.499059420079,None,,,,,1,2022_Apr_14_1116,Real-fake-judgement-flashing-group1,2021.1.2,59.94443721065973,
272,Trial # 120,Group1-stimuli/group1-block2/fake-group2-b2/encoded_Group2_IMG_0249.jpg,0,encoded_Group2_IMG_0249.jpg,,,,,,,,,0.0,119.0,119.0,119.0,,,,,,,,,,,,,,,878.0320868680719,None,,,1,0.2804021958727389,880.4995618041139,None,880.4995618041139,None,,,879.332527494058,None,,,,,1,2022_Apr_14_1116,Real-fake-judgement-flashing-group1,2021.1.2,59.94443721065973,
273,Trial # 121,Group1-stimuli/group1-block2/fake-group2-b2/encoded_Group2_IMG_0074.jpg,0,encoded_Group2_IMG_0074.jpg,,,,,,,,,0.0,120.0,120.0,120.0,,,,,,,,,,,,,,,880.7998451930471,None,,,0,0.2806760070379823,883.2673235121183,None,883.2673235121183,None,,,882.1178664800245,None,,,,,1,2022_Apr_14_1116,Real-fake-judgement-flashing-group1,2021.1.2,59.94443721065973,
274,Trial # 122,Group1-stimuli/group1-block2/real-group1-b2/Group1_IMG_0243.jpg,1,Group1_IMG_0243.jpg,,,,,,,,,0.0,121.0,121.0,121.0,,,,,,,,,,,,,,,883.567165259039,None,,,0,0.3285127859562635,886.0514340139925,None,886.0514340139925,None,,,884.8841394730844,None,,,,,1,2022_Apr_14_1116,Real-fake-judgement-flashing-group1,2021.1.2,59.94443721065973,
275,Trial # 123,Group1-stimuli/group1-block2/real-group1-b2/Group1_IMG_0130.jpg,1,Group1_IMG_0130.jpg,,,,,,,,,0.0,122.0,122.0,122.0,,,,,,,,,,,,,,,886.4026451280806,None,,,1,0.317578312009573,888.9023030351382,None,888.9023030351382,None,,,887.719674437074,None,,,,,1,2022_Apr_14_1116,Real-fake-judgement-flashing-group1,2021.1.2,59.94443721065973,
276,Trial # 124,Group1-stimuli/group1-block2/real-group1-b2/Group1_IMG_0298.jpg,1,Group1_IMG_0298.jpg,,,,,,,,,0.0,123.0,123.0,123.0,,,,,,,,,,,,,,,889.2523711239919,None,,,1,0.0912105289753526,891.7207848010585,None,891.7207848010585,None,,,890.5525675979443,None,,,,,1,2022_Apr_14_1116,Real-fake-judgement-flashing-group1,2021.1.2,59.94443721065973,
277,Trial # 125,Group1-stimuli/group1-block2/real-group1-b2/Group1_IMG_5871.jpg,1,Group1_IMG_5871.jpg,,,,,,,,,0.0,124.0,124.0,124.0,,,,,,,,,,,,,,,891.8378501739353,None,,,1,0.5003137830644846,894.3036792229395,None,894.3036792229395,None,,,893.137934666127,None,,,,,1,2022_Apr_14_1116,Real-fake-judgement-flashing-group1,2021.1.2,59.94443721065973,
278,Trial # 126,Group1-stimuli/group1-block2/fake-group2-b2/encoded_Group2_IMG_0479.jpg,0,encoded_Group2_IMG_0479.jpg,,,,,,,,,0.0,125.0,125.0,125.0,,,,,,,,,,,,,,,894.8212177059613,None,,,0,0.1067832319531589,897.2891729900148,None,897.2891729900148,None,,,896.1210936680436,None,,,,,1,2022_Apr_14_1116,Real-fake-judgement-flashing-group1,2021.1.2,59.94443721065973,
