,Trial_num,image_path,ground_truth,image_name,demos.thisRepN,demos.thisTrialN,demos.thisN,demos.thisIndex,block1.thisRepN,block1.thisTrialN,block1.thisN,block1.thisIndex,block2.thisRepN,block2.thisTrialN,block2.thisN,block2.thisIndex,block1_rep2.thisRepN,block1_rep2.thisTrialN,block1_rep2.thisN,block1_rep2.thisIndex,block2_rep.thisRepN,block2_rep.thisTrialN,block2_rep.thisN,block2_rep.thisIndex,text_3.started,text_3.stopped,text_4.started,text_4.stopped,text.started,text.stopped,trail_num.started,trail_num.stopped,image_6.started,image_6.stopped,Judgement.keys,Judgement.rt,Judgement.started,Judgement.stopped,text_19.started,text_19.stopped,text_12.started,text_12.stopped,image.started,image.stopped,text_2.started,text_2.stopped,text_13.started,text_13.stopped,session,date,expName,psychopyVersion,frameRate,Unnamed: 54
0,Demo 1,demo/Demo_IMG_0974.jpg,demo,Demo_IMG_0974.jpg,0.0,0.0,0.0,0.0,,,,,,,,,,,,,,,,,12.1160719669424,None,19.99541731597856,None,28.581669559935108,None,30.76436747401021,None,32.11481226189062,None,1,3.529180660843849,33.21546729793772,None,33.21546729793772,None,,,,,,,,,1,2022_Apr_12_1419,Real-fake-judgement-flashing-group1,2021.1.2,59.82985993973882,
1,Demo 2,demo/Demo_IMG_1024.jpg,demo,Demo_IMG_1024.jpg,0.0,1.0,1.0,1.0,,,,,,,,,,,,,,,,,,,,,,,36.76654770388268,None,38.11743209185079,None,1,4.044779699994251,39.25180286099203,None,39.25180286099203,None,,,,,,,,,1,2022_Apr_12_1419,Real-fake-judgement-flashing-group1,2021.1.2,59.82985993973882,
2,Demo 3,demo/Demo_seed_80003.png,demo,Demo_seed_80003.png,0.0,2.0,2.0,2.0,,,,,,,,,,,,,,,,,,,,,,,43.319096131948754,None,44.66939126583748,None,1,1.190602642018348,45.786058778874576,None,45.786058778874576,None,,,,,,,,,1,2022_Apr_12_1419,Real-fake-judgement-flashing-group1,2021.1.2,59.82985993973882,
3,Trial # 1,Group1-stimuli/group1-block1/real-group1-b1/Group1_IMG_0022.jpg,1,Group1_IMG_0022.jpg,,,,,0.0,0.0,0.0,0.0,,,,,,,,,,,,,,,,,,,56.30548054096289,None,,,0,1.051527355099097,58.75704797799699,None,58.75704797799699,None,47.48651626799256,None,57.58948118099943,None,,,,,1,2022_Apr_12_1419,Real-fake-judgement-flashing-group1,2021.1.2,59.82985993973882,
4,Trial # 2,Group1-stimuli/group1-block1/fake-group2-b1/encoded_Group2_IMG_0386.jpg,0,encoded_Group2_IMG_0386.jpg,,,,,0.0,1.0,1.0,1.0,,,,,,,,,,,,,,,,,,,59.841068314854056,None,,,1,0.884281856007874,62.30831547896378,None,62.30831547896378,None,,,61.141182373976335,None,,,,,1,2022_Apr_12_1419,Real-fake-judgement-flashing-group1,2021.1.2,59.82985993973882,
5,Trial # 3,Group1-stimuli/group1-block1/real-group1-b1/Group1_IMG_9704.jpg,1,Group1_IMG_9704.jpg,,,,,0.0,2.0,2.0,2.0,,,,,,,,,,,,,,,,,,,63.22496311389841,None,,,0,1.6846922931727022,65.69189145904966,None,65.69189145904966,None,,,64.52546429401264,None,,,,,1,2022_Apr_12_1419,Real-fake-judgement-flashing-group1,2021.1.2,59.82985993973882,
6,Trial # 4,Group1-stimuli/group1-block1/real-group1-b1/Group1_IMG_0406.jpg,1,Group1_IMG_0406.jpg,,,,,0.0,3.0,3.0,3.0,,,,,,,,,,,,,,,,,,,67.40942942397669,None,,,1,0.995339005952701,69.8933092940133,None,69.8933092940133,None,,,68.71021020389162,None,,,,,1,2022_Apr_12_1419,Real-fake-judgement-flashing-group1,2021.1.2,59.82985993973882,
7,Trial # 5,Group1-stimuli/group1-block1/fake-group2-b1/encoded_Group2_IMG_0364.jpg,0,encoded_Group2_IMG_0364.jpg,,,,,0.0,4.0,4.0,4.0,,,,,,,,,,,,,,,,,,,70.91065733204596,None,,,0,1.262323979055509,73.36225730599836,None,73.36225730599836,None,,,72.19435454090126,None,,,,,1,2022_Apr_12_1419,Real-fake-judgement-flashing-group1,2021.1.2,59.82985993973882,
8,Trial # 6,Group1-stimuli/group1-block1/fake-group2-b1/encoded_Group2_IMG_0407.jpg,0,encoded_Group2_IMG_0407.jpg,,,,,0.0,5.0,5.0,5.0,,,,,,,,,,,,,,,,,,,74.64546264195815,None,,,1,0.9196120300330222,77.11294551100582,None,77.11294551100582,None,,,75.94583072396927,None,,,,,1,2022_Apr_12_1419,Real-fake-judgement-flashing-group1,2021.1.2,59.82985993973882,
9,Trial # 7,Group1-stimuli/group1-block1/real-group1-b1/Group1_IMG_0428.jpg,1,Group1_IMG_0428.jpg,,,,,0.0,6.0,6.0,6.0,,,,,,,,,,,,,,,,,,,78.06346564204432,None,,,0,1.4064174781087786,80.53016666695476,None,80.53016666695476,None,,,79.3630298988428,None,,,,,1,2022_Apr_12_1419,Real-fake-judgement-flashing-group1,2021.1.2,59.82985993973882,
10,Trial # 8,Group1-stimuli/group1-block1/fake-group2-b1/encoded_Group2_IMG_0474.jpg,0,encoded_Group2_IMG_0474.jpg,,,,,0.0,7.0,7.0,7.0,,,,,,,,,,,,,,,,,,,81.96289758989587,None,,,0,1.0323458591010422,84.43223600205965,None,84.43223600205965,None,,,83.2643892490305,None,,,,,1,2022_Apr_12_1419,Real-fake-judgement-flashing-group1,2021.1.2,59.82985993973882,
11,Trial # 9,Group1-stimuli/group1-block1/fake-group2-b1/encoded_Group2_IMG_1506.jpg,0,encoded_Group2_IMG_1506.jpg,,,,,0.0,8.0,8.0,8.0,,,,,,,,,,,,,,,,,,,85.48280765302479,None,,,1,1.4583680739160627,87.9502726639621,None,87.9502726639621,None,,,86.78185908985324,None,,,,,1,2022_Apr_12_1419,Real-fake-judgement-flashing-group1,2021.1.2,59.82985993973882,
12,Trial # 10,Group1-stimuli/group1-block1/real-group1-b1/Group1_IMG_9789.jpg,1,Group1_IMG_9789.jpg,,,,,0.0,9.0,9.0,9.0,,,,,,,,,,,,,,,,,,,89.43354653893039,None,,,1,2.7169107091613114,91.89974009105936,None,91.89974009105936,None,,,90.7327247869689,None,,,,,1,2022_Apr_12_1419,Real-fake-judgement-flashing-group1,2021.1.2,59.82985993973882,
13,Trial # 11,Group1-stimuli/group1-block1/real-group1-b1/Group1_IMG_9778.jpg,1,Group1_IMG_9778.jpg,,,,,0.0,10.0,10.0,10.0,,,,,,,,,,,,,,,,,,,94.63446371885948,None,,,1,2.2911581790540367,97.10142994089983,None,97.10142994089983,None,,,95.93438146985136,None,,,,,1,2022_Apr_12_1419,Real-fake-judgement-flashing-group1,2021.1.2,59.82985993973882,
14,Trial # 12,Group1-stimuli/group1-block1/real-group1-b1/Group1_IMG_9813.jpg,1,Group1_IMG_9813.jpg,,,,,0.0,11.0,11.0,11.0,,,,,,,,,,,,,,,,,,,99.42052417388186,None,,,1,1.60190966213122,101.88666820595972,None,101.88666820595972,None,,,100.71976175997406,None,,,,,1,2022_Apr_12_1419,Real-fake-judgement-flashing-group1,2021.1.2,59.82985993973882,
15,Trial # 13,Group1-stimuli/group1-block1/real-group1-b1/Group1_IMG_0516.jpg,1,Group1_IMG_0516.jpg,,,,,0.0,12.0,12.0,12.0,,,,,,,,,,,,,,,,,,,103.52090445091017,None,,,1,1.1723712738603354,106.00428576185368,None,106.00428576185368,None,,,104.8208560559433,None,,,,,1,2022_Apr_12_1419,Real-fake-judgement-flashing-group1,2021.1.2,59.82985993973882,
16,Trial # 14,Group1-stimuli/group1-block1/fake-group2-b1/encoded_Group2_IMG_0038.jpg,0,encoded_Group2_IMG_0038.jpg,,,,,0.0,13.0,13.0,13.0,,,,,,,,,,,,,,,,,,,107.20533523196356,None,,,1,1.5353249160107223,109.67334375996144,None,109.67334375996144,None,,,108.50612988695502,None,,,,,1,2022_Apr_12_1419,Real-fake-judgement-flashing-group1,2021.1.2,59.82985993973882,
17,Trial # 15,Group1-stimuli/group1-block1/real-group1-b1/Group1_IMG_5984.jpg,1,Group1_IMG_5984.jpg,,,,,0.0,14.0,14.0,14.0,,,,,,,,,,,,,,,,,,,111.23999828496017,None,,,1,1.2446326881181449,113.70802097488196,None,113.70802097488196,None,,,112.53939338284545,None,,,,,1,2022_Apr_12_1419,Real-fake-judgement-flashing-group1,2021.1.2,59.82985993973882,
18,Trial # 16,Group1-stimuli/group1-block1/real-group1-b1/Group1_IMG_0383.jpg,1,Group1_IMG_0383.jpg,,,,,0.0,15.0,15.0,15.0,,,,,,,,,,,,,,,,,,,114.9750210850034,None,,,0,1.0712763129267842,117.44139812095092,None,117.44139812095092,None,,,116.2745931900572,None,,,,,1,2022_Apr_12_1419,Real-fake-judgement-flashing-group1,2021.1.2,59.82985993973882,
19,Trial # 17,Group1-stimuli/group1-block1/fake-group2-b1/encoded_Group2_IMG_0456.jpg,0,encoded_Group2_IMG_0456.jpg,,,,,0.0,16.0,16.0,16.0,,,,,,,,,,,,,,,,,,,118.54225151287392,None,,,0,0.5355516679119319,121.00909807393327,None,121.00909807393327,None,,,119.84209017688408,None,,,,,1,2022_Apr_12_1419,Real-fake-judgement-flashing-group1,2021.1.2,59.82985993973882,
20,Trial # 18,Group1-stimuli/group1-block1/fake-group2-b1/encoded_Group2_IMG_8390.jpg,0,encoded_Group2_IMG_8390.jpg,,,,,0.0,17.0,17.0,17.0,,,,,,,,,,,,,,,,,,,121.57636729301883,None,,,0,1.2193446138408035,124.06132798385806,None,124.06132798385806,None,,,122.87742065894416,None,,,,,1,2022_Apr_12_1419,Real-fake-judgement-flashing-group1,2021.1.2,59.82985993973882,
21,Trial # 19,Group1-stimuli/group1-block1/real-group1-b1/Group1_IMG_0011.jpg,1,Group1_IMG_0011.jpg,,,,,0.0,18.0,18.0,18.0,,,,,,,,,,,,,,,,,,,125.31056671100669,None,,,1,0.7946086928714067,127.78203792404383,None,127.78203792404383,None,,,126.61076509184204,None,,,,,1,2022_Apr_12_1419,Real-fake-judgement-flashing-group1,2021.1.2,59.82985993973882,
22,Trial # 20,Group1-stimuli/group1-block1/fake-group2-b1/encoded_Group2_IMG_0328.jpg,0,encoded_Group2_IMG_0328.jpg,,,,,0.0,19.0,19.0,19.0,,,,,,,,,,,,,,,,,,,128.60011996584944,None,,,0,1.8652592089492828,131.07938731298782,None,131.07938731298782,None,,,129.9122799509205,None,,,,,1,2022_Apr_12_1419,Real-fake-judgement-flashing-group1,2021.1.2,59.82985993973882,
23,Trial # 21,Group1-stimuli/group1-block1/fake-group2-b1/encoded_Group2_IMG_0163.jpg,0,encoded_Group2_IMG_0163.jpg,,,,,0.0,20.0,20.0,20.0,,,,,,,,,,,,,,,,,,,132.9633997818455,None,,,0,0.7709861199837178,135.41366313700564,None,135.41366313700564,None,,,134.24768604896963,None,,,,,1,2022_Apr_12_1419,Real-fake-judgement-flashing-group1,2021.1.2,59.82985993973882,
24,Trial # 22,Group1-stimuli/group1-block1/real-group1-b1/Group1_IMG_9862.jpg,1,Group1_IMG_9862.jpg,,,,,0.0,21.0,21.0,21.0,,,,,,,,,,,,,,,,,,,136.2137460738886,None,,,1,0.7908518011681736,138.68179521802813,None,138.68179521802813,None,,,137.51422462402843,None,,,,,1,2022_Apr_12_1419,Real-fake-judgement-flashing-group1,2021.1.2,59.82985993973882,
25,Trial # 23,Group1-stimuli/group1-block1/fake-group2-b1/encoded_Group2_IMG_0296.jpg,0,encoded_Group2_IMG_0296.jpg,,,,,0.0,22.0,22.0,22.0,,,,,,,,,,,,,,,,,,,139.49959059106186,None,,,0,2.7069647249300037,141.96568431402557,None,141.96568431402557,None,,,140.79860964696854,None,,,,,1,2022_Apr_12_1419,Real-fake-judgement-flashing-group1,2021.1.2,59.82985993973882,
26,Trial # 24,Group1-stimuli/group1-block1/fake-group2-b1/encoded_Group2_IMG_0503.jpg,0,encoded_Group2_IMG_0503.jpg,,,,,0.0,23.0,23.0,23.0,,,,,,,,,,,,,,,,,,,144.69990635104477,None,,,0,0.4814266408793628,147.16715591796674,None,147.16715591796674,None,,,146.00013922597282,None,,,,,1,2022_Apr_12_1419,Real-fake-judgement-flashing-group1,2021.1.2,59.82985993973882,
27,Trial # 25,Group1-stimuli/group1-block1/fake-group2-b1/encoded_Group2_IMG_9804.jpg,0,encoded_Group2_IMG_9804.jpg,,,,,0.0,24.0,24.0,24.0,,,,,,,,,,,,,,,,,,,147.6677294059191,None,,,0,0.4496211188379675,150.1350211298559,None,150.1350211298559,None,,,148.9689951739274,None,,,,,1,2022_Apr_12_1419,Real-fake-judgement-flashing-group1,2021.1.2,59.82985993973882,
28,Trial # 26,Group1-stimuli/group1-block1/real-group1-b1/Group1_IMG_0391.jpg,1,Group1_IMG_0391.jpg,,,,,0.0,25.0,25.0,25.0,,,,,,,,,,,,,,,,,,,150.6015711450018,None,,,1,0.1310356329195201,153.06957691488788,None,153.06957691488788,None,,,151.90212770784274,None,,,,,1,2022_Apr_12_1419,Real-fake-judgement-flashing-group1,2021.1.2,59.82985993973882,
29,Trial # 27,Group1-stimuli/group1-block1/fake-group2-b1/encoded_Group2_IMG_3584.jpg,0,encoded_Group2_IMG_3584.jpg,,,,,0.0,26.0,26.0,26.0,,,,,,,,,,,,,,,,,,,153.22012879303657,None,,,0,0.4261075560934841,155.68654103786685,None,155.68654103786685,None,,,154.52040470484644,None,,,,,1,2022_Apr_12_1419,Real-fake-judgement-flashing-group1,2021.1.2,59.82985993973882,
30,Trial # 28,Group1-stimuli/group1-block1/fake-group2-b1/encoded_Group2_IMG_0434.jpg,0,encoded_Group2_IMG_0434.jpg,,,,,0.0,27.0,27.0,27.0,,,,,,,,,,,,,,,,,,,156.13739769300446,None,,,0,0.3631523840595037,158.60545646003447,None,158.60545646003447,None,,,157.43658573995344,None,,,,,1,2022_Apr_12_1419,Real-fake-judgement-flashing-group1,2021.1.2,59.82985993973882,
31,Trial # 29,Group1-stimuli/group1-block1/fake-group2-b1/encoded_Group2_IMG_9575.jpg,0,encoded_Group2_IMG_9575.jpg,,,,,0.0,28.0,28.0,28.0,,,,,,,,,,,,,,,,,,,158.9888816489838,None,,,0,0.3928877590224147,161.47176126693375,None,161.47176126693375,None,,,160.30460374592803,None,,,,,1,2022_Apr_12_1419,Real-fake-judgement-flashing-group1,2021.1.2,59.82985993973882,
32,Trial # 30,Group1-stimuli/group1-block1/fake-group2-b1/encoded_Group2_IMG_1025.jpg,0,encoded_Group2_IMG_1025.jpg,,,,,0.0,29.0,29.0,29.0,,,,,,,,,,,,,,,,,,,161.88882783590816,None,,,0,0.8355121640488505,164.3571640320588,None,164.3571640320588,None,,,163.19008047902025,None,,,,,1,2022_Apr_12_1419,Real-fake-judgement-flashing-group1,2021.1.2,59.82985993973882,
33,Trial # 31,Group1-stimuli/group1-block1/real-group1-b1/Group1_IMG_0502.jpg,1,Group1_IMG_0502.jpg,,,,,0.0,30.0,30.0,30.0,,,,,,,,,,,,,,,,,,,165.22312344796956,None,,,1,1.6866640178486705,167.69001522101462,None,167.69001522101462,None,,,166.5230964240618,None,,,,,1,2022_Apr_12_1419,Real-fake-judgement-flashing-group1,2021.1.2,59.82985993973882,
34,Trial # 32,Group1-stimuli/group1-block1/real-group1-b1/Group1_IMG_0182.jpg,1,Group1_IMG_0182.jpg,,,,,0.0,31.0,31.0,31.0,,,,,,,,,,,,,,,,,,,169.4088118779473,None,,,0,0.6056841688696295,171.8749647459481,None,171.8749647459481,None,,,170.70783084188588,None,,,,,1,2022_Apr_12_1419,Real-fake-judgement-flashing-group1,2021.1.2,59.82985993973882,
35,Trial # 33,Group1-stimuli/group1-block1/fake-group2-b1/encoded_Group2_IMG_2728.jpg,0,encoded_Group2_IMG_2728.jpg,,,,,0.0,32.0,32.0,32.0,,,,,,,,,,,,,,,,,,,172.50828800094314,None,,,0,0.5287818510551006,174.97586372005753,None,174.97586372005753,None,,,173.81000223685987,None,,,,,1,2022_Apr_12_1419,Real-fake-judgement-flashing-group1,2021.1.2,59.82985993973882,
36,Trial # 34,Group1-stimuli/group1-block1/fake-group2-b1/encoded_Group2_IMG_4867.jpg,0,encoded_Group2_IMG_4867.jpg,,,,,0.0,33.0,33.0,33.0,,,,,,,,,,,,,,,,,,,175.52618888299912,None,,,0,0.3827786569017917,177.9938614659477,None,177.9938614659477,None,,,176.82639171206392,None,,,,,1,2022_Apr_12_1419,Real-fake-judgement-flashing-group1,2021.1.2,59.82985993973882,
37,Trial # 35,Group1-stimuli/group1-block1/real-group1-b1/Group1_IMG_9894.jpg,1,Group1_IMG_9894.jpg,,,,,0.0,34.0,34.0,34.0,,,,,,,,,,,,,,,,,,,178.39484302792698,None,,,1,0.4108891158830374,180.87776698987,None,180.87776698987,None,,,179.71153505705297,None,,,,,1,2022_Apr_12_1419,Real-fake-judgement-flashing-group1,2021.1.2,59.82985993973882,
38,Trial # 36,Group1-stimuli/group1-block1/fake-group2-b1/encoded_Group2_IMG_0444.jpg,0,encoded_Group2_IMG_0444.jpg,,,,,0.0,35.0,35.0,35.0,,,,,,,,,,,,,,,,,,,181.31169102992865,None,,,0,0.5097248970996588,183.77896854584105,None,183.77896854584105,None,,,182.6108217719011,None,,,,,1,2022_Apr_12_1419,Real-fake-judgement-flashing-group1,2021.1.2,59.82985993973882,
39,Trial # 37,Group1-stimuli/group1-block1/real-group1-b1/Group1_IMG_2656.jpg,1,Group1_IMG_2656.jpg,,,,,0.0,36.0,36.0,36.0,,,,,,,,,,,,,,,,,,,184.31259756884535,None,,,1,0.4690506991464644,186.7795156070497,None,186.7795156070497,None,,,185.61244415701367,None,,,,,1,2022_Apr_12_1419,Real-fake-judgement-flashing-group1,2021.1.2,59.82985993973882,
40,Trial # 38,Group1-stimuli/group1-block1/real-group1-b1/Group1_IMG_0207.jpg,1,Group1_IMG_0207.jpg,,,,,0.0,37.0,37.0,37.0,,,,,,,,,,,,,,,,,,,187.27975396090187,None,,,1,0.6689682442229241,189.74763399898077,None,189.74763399898077,None,,,188.58054229989648,None,,,,,1,2022_Apr_12_1419,Real-fake-judgement-flashing-group1,2021.1.2,59.82985993973882,
41,Trial # 39,Group1-stimuli/group1-block1/real-group1-b1/Group1_IMG_9638.jpg,1,Group1_IMG_9638.jpg,,,,,0.0,38.0,38.0,38.0,,,,,,,,,,,,,,,,,,,190.4475052380003,None,,,0,0.7173961868975312,192.9152637529187,None,192.9152637529187,None,,,191.74771053204316,None,,,,,1,2022_Apr_12_1419,Real-fake-judgement-flashing-group1,2021.1.2,59.82985993973882,
42,Trial # 40,Group1-stimuli/group1-block1/real-group1-b1/Group1_IMG_0148.jpg,1,Group1_IMG_0148.jpg,,,,,0.0,39.0,39.0,39.0,,,,,,,,,,,,,,,,,,,193.64893346303143,None,,,1,0.6848019307944924,196.11584567604584,None,196.11584567604584,None,,,194.9486236020457,None,,,,,1,2022_Apr_12_1419,Real-fake-judgement-flashing-group1,2021.1.2,59.82985993973882,
43,Trial # 41,Group1-stimuli/group1-block1/real-group1-b1/Group1_IMG_2891.jpg,1,Group1_IMG_2891.jpg,,,,,0.0,40.0,40.0,40.0,,,,,,,,,,,,,,,,,,,196.83232198795304,None,,,1,0.979312454117462,199.30134174483828,None,199.30134174483828,None,,,198.1343321008608,None,,,,,1,2022_Apr_12_1419,Real-fake-judgement-flashing-group1,2021.1.2,59.82985993973882,
44,Trial # 42,Group1-stimuli/group1-block1/real-group1-b1/Group1_IMG_0157.jpg,1,Group1_IMG_0157.jpg,,,,,0.0,41.0,41.0,41.0,,,,,,,,,,,,,,,,,,,200.30152080603875,None,,,1,0.3441288468893617,202.7845205399208,None,202.7845205399208,None,,,201.6006937008351,None,,,,,1,2022_Apr_12_1419,Real-fake-judgement-flashing-group1,2021.1.2,59.82985993973882,
45,Trial # 43,Group1-stimuli/group1-block1/real-group1-b1/Group1_IMG_9833.jpg,1,Group1_IMG_9833.jpg,,,,,0.0,42.0,42.0,42.0,,,,,,,,,,,,,,,,,,,203.1524084398989,None,,,0,1.5580785991623998,205.6185658278409,None,205.6185658278409,None,,,204.45222552283667,None,,,,,1,2022_Apr_12_1419,Real-fake-judgement-flashing-group1,2021.1.2,59.82985993973882,
46,Trial # 44,Group1-stimuli/group1-block1/fake-group2-b1/encoded_Group2_IMG_2230.jpg,0,encoded_Group2_IMG_2230.jpg,,,,,0.0,43.0,43.0,43.0,,,,,,,,,,,,,,,,,,,207.20210628886707,None,,,0,1.73755159904249,209.67109809000976,None,209.67109809000976,None,,,208.5039894999936,None,,,,,1,2022_Apr_12_1419,Real-fake-judgement-flashing-group1,2021.1.2,59.82985993973882,
47,Trial # 45,Group1-stimuli/group1-block1/real-group1-b1/Group1_IMG_9966.jpg,1,Group1_IMG_9966.jpg,,,,,0.0,44.0,44.0,44.0,,,,,,,,,,,,,,,,,,,211.4373199059628,None,,,0,0.7587984469719231,213.9058454448823,None,213.9058454448823,None,,,212.73748830286783,None,,,,,1,2022_Apr_12_1419,Real-fake-judgement-flashing-group1,2021.1.2,59.82985993973882,
48,Trial # 46,Group1-stimuli/group1-block1/real-group1-b1/Group1_IMG_0239.jpg,1,Group1_IMG_0239.jpg,,,,,0.0,45.0,45.0,45.0,,,,,,,,,,,,,,,,,,,214.6881934069097,None,,,1,1.1815807158127427,217.15506699006076,None,217.15506699006076,None,,,215.98849232983773,None,,,,,1,2022_Apr_12_1419,Real-fake-judgement-flashing-group1,2021.1.2,59.82985993973882,
49,Trial # 47,Group1-stimuli/group1-block1/fake-group2-b1/encoded_Group2_IMG_0536.jpg,0,encoded_Group2_IMG_0536.jpg,,,,,0.0,46.0,46.0,46.0,,,,,,,,,,,,,,,,,,,218.35727330599912,None,,,1,0.7132125000935048,220.8234845858533,None,220.8234845858533,None,,,219.65750203304924,None,,,,,1,2022_Apr_12_1419,Real-fake-judgement-flashing-group1,2021.1.2,59.82985993973882,
50,Trial # 48,Group1-stimuli/group1-block1/fake-group2-b1/encoded_Group2_IMG_0521.jpg,0,encoded_Group2_IMG_0521.jpg,,,,,0.0,47.0,47.0,47.0,,,,,,,,,,,,,,,,,,,221.55716212606055,None,,,1,1.055053764954209,224.02559484005903,None,224.02559484005903,None,,,222.8567025510129,None,,,,,1,2022_Apr_12_1419,Real-fake-judgement-flashing-group1,2021.1.2,59.82985993973882,
51,Trial # 49,Group1-stimuli/group1-block1/fake-group2-b1/encoded_Group2_IMG_9924.jpg,0,encoded_Group2_IMG_9924.jpg,,,,,0.0,48.0,48.0,48.0,,,,,,,,,,,,,,,,,,,225.1082560189534,None,,,1,1.7217900489922613,227.5588838979602,None,227.5588838979602,None,,,226.39171454194,None,,,,,1,2022_Apr_12_1419,Real-fake-judgement-flashing-group1,2021.1.2,59.82985993973882,
52,Trial # 50,Group1-stimuli/group1-block1/real-group1-b1/Group1_IMG_9730.jpg,1,Group1_IMG_9730.jpg,,,,,0.0,49.0,49.0,49.0,,,,,,,,,,,,,,,,,,,229.310489904834,None,,,0,0.592012143926695,231.77663561794907,None,231.77663561794907,None,,,230.6096683179494,None,,,,,1,2022_Apr_12_1419,Real-fake-judgement-flashing-group1,2021.1.2,59.82985993973882,
53,Trial # 51,Group1-stimuli/group1-block1/real-group1-b1/Group1_IMG_0053.jpg,1,Group1_IMG_0053.jpg,,,,,0.0,50.0,50.0,50.0,,,,,,,,,,,,,,,,,,,232.3934525719378,None,,,1,1.371499656001106,234.8611480470281,None,234.8611480470281,None,,,233.69521406083368,None,,,,,1,2022_Apr_12_1419,Real-fake-judgement-flashing-group1,2021.1.2,59.82985993973882,
54,Trial # 52,Group1-stimuli/group1-block1/real-group1-b1/Group1_IMG_9698.jpg,1,Group1_IMG_9698.jpg,,,,,0.0,51.0,51.0,51.0,,,,,,,,,,,,,,,,,,,236.26139132399112,None,,,0,1.3833641291130334,238.72928560897708,None,238.72928560897708,None,,,237.56169124599543,None,,,,,1,2022_Apr_12_1419,Real-fake-judgement-flashing-group1,2021.1.2,59.82985993973882,
55,Trial # 53,Group1-stimuli/group1-block1/fake-group2-b1/encoded_Group2_IMG_0553.jpg,0,encoded_Group2_IMG_0553.jpg,,,,,0.0,52.0,52.0,52.0,,,,,,,,,,,,,,,,,,,240.1292828859296,None,,,0,4.067421789979562,242.61323694395836,None,242.61323694395836,None,,,241.4296611649916,None,,,,,1,2022_Apr_12_1419,Real-fake-judgement-flashing-group1,2021.1.2,59.82985993973882,
56,Trial # 54,Group1-stimuli/group1-block1/fake-group2-b1/encoded_Group2_IMG_9758.jpg,0,encoded_Group2_IMG_9758.jpg,,,,,0.0,53.0,53.0,53.0,,,,,,,,,,,,,,,,,,,246.6981424698606,None,,,0,0.8980654750484973,249.16659113694917,None,249.16659113694917,None,,,247.99964224197905,None,,,,,1,2022_Apr_12_1419,Real-fake-judgement-flashing-group1,2021.1.2,59.82985993973882,
57,Trial # 55,Group1-stimuli/group1-block1/fake-group2-b1/encoded_Group2_IMG_0339.jpg,0,encoded_Group2_IMG_0339.jpg,,,,,0.0,54.0,54.0,54.0,,,,,,,,,,,,,,,,,,,250.08280548499897,None,,,1,0.7707889450248331,252.54985989397392,None,252.54985989397392,None,,,251.38282350101508,None,,,,,1,2022_Apr_12_1419,Real-fake-judgement-flashing-group1,2021.1.2,59.82985993973882,
58,Trial # 56,Group1-stimuli/group1-block1/real-group1-b1/Group1_IMG_0314.jpg,1,Group1_IMG_0314.jpg,,,,,0.0,55.0,55.0,55.0,,,,,,,,,,,,,,,,,,,253.35143794189207,None,,,1,0.5990590818691999,255.81758741103116,None,255.81758741103116,None,,,254.6506171128713,None,,,,,1,2022_Apr_12_1419,Real-fake-judgement-flashing-group1,2021.1.2,59.82985993973882,
59,Trial # 57,Group1-stimuli/group1-block1/fake-group2-b1/encoded_Group2_IMG_0532.jpg,0,encoded_Group2_IMG_0532.jpg,,,,,0.0,56.0,56.0,56.0,,,,,,,,,,,,,,,,,,,256.4345088340342,None,,,1,0.7936317869462073,258.90301691088825,None,258.90301691088825,None,,,257.7341618509963,None,,,,,1,2022_Apr_12_1419,Real-fake-judgement-flashing-group1,2021.1.2,59.82985993973882,
60,Trial # 58,Group1-stimuli/group1-block1/fake-group2-b1/encoded_Group2_IMG_0462.jpg,0,encoded_Group2_IMG_0462.jpg,,,,,0.0,57.0,57.0,57.0,,,,,,,,,,,,,,,,,,,259.7192115839571,None,,,0,0.534733803011477,262.1858485129196,None,262.1858485129196,None,,,261.01902360492386,None,,,,,1,2022_Apr_12_1419,Real-fake-judgement-flashing-group1,2021.1.2,59.82985993973882,
61,Trial # 59,Group1-stimuli/group1-block1/real-group1-b1/Group1_IMG_0172.jpg,1,Group1_IMG_0172.jpg,,,,,0.0,58.0,58.0,58.0,,,,,,,,,,,,,,,,,,,262.7527737519704,None,,,1,2.500044074840844,265.2206052299589,None,265.2206052299589,None,,,264.05458116088994,None,,,,,1,2022_Apr_12_1419,Real-fake-judgement-flashing-group1,2021.1.2,59.82985993973882,
62,Trial # 60,Group1-stimuli/group1-block1/real-group1-b1/Group1_IMG_4841.jpg,1,Group1_IMG_4841.jpg,,,,,0.0,59.0,59.0,59.0,,,,,,,,,,,,,,,,,,,267.7380767459981,None,,,0,0.7631903800647706,270.20545785687864,None,270.20545785687864,None,,,269.0394390828442,None,,,,,1,2022_Apr_12_1419,Real-fake-judgement-flashing-group1,2021.1.2,59.82985993973882,
63,Trial # 61,Group1-stimuli/group1-block1/fake-group2-b1/encoded_Group2_IMG_0352.jpg,0,encoded_Group2_IMG_0352.jpg,,,,,0.0,60.0,60.0,60.0,,,,,,,,,,,,,,,,,,,270.9898106160108,None,,,0,0.4878225799184292,273.45684398990124,None,273.45684398990124,None,,,272.2892677769996,None,,,,,1,2022_Apr_12_1419,Real-fake-judgement-flashing-group1,2021.1.2,59.82985993973882,
64,Trial # 62,Group1-stimuli/group1-block1/fake-group2-b1/encoded_Group2_IMG_9726.jpg,0,encoded_Group2_IMG_9726.jpg,,,,,0.0,61.0,61.0,61.0,,,,,,,,,,,,,,,,,,,273.97434341791086,None,,,1,1.2239139471203089,276.44073397899047,None,276.44073397899047,None,,,275.27358779893257,None,,,,,1,2022_Apr_12_1419,Real-fake-judgement-flashing-group1,2021.1.2,59.82985993973882,
65,Trial # 63,Group1-stimuli/group1-block1/fake-group2-b1/encoded_Group2_IMG_9785.jpg,0,encoded_Group2_IMG_9785.jpg,,,,,0.0,62.0,62.0,62.0,,,,,,,,,,,,,,,,,,,277.691161905881,None,,,1,0.8336349800229073,280.15894467104226,None,280.15894467104226,None,,,278.99252790305763,None,,,,,1,2022_Apr_12_1419,Real-fake-judgement-flashing-group1,2021.1.2,59.82985993973882,
66,Trial # 64,Group1-stimuli/group1-block1/fake-group2-b1/encoded_Group2_IMG_0440.jpg,0,encoded_Group2_IMG_0440.jpg,,,,,0.0,63.0,63.0,63.0,,,,,,,,,,,,,,,,,,,281.02541200094856,None,,,0,2.642620101105422,283.49405424506404,None,283.49405424506404,None,,,282.325657309033,None,,,,,1,2022_Apr_12_1419,Real-fake-judgement-flashing-group1,2021.1.2,59.82985993973882,
67,Trial # 65,Group1-stimuli/group1-block1/fake-group2-b1/encoded_Group2_IMG_1695.jpg,0,encoded_Group2_IMG_1695.jpg,,,,,0.0,64.0,64.0,64.0,,,,,,,,,,,,,,,,,,,286.161182402866,None,,,0,0.6516379751265049,288.6289653258864,None,288.6289653258864,None,,,287.4600434228778,None,,,,,1,2022_Apr_12_1419,Real-fake-judgement-flashing-group1,2021.1.2,59.82985993973882,
68,Trial # 66,Group1-stimuli/group1-block1/real-group1-b1/Group1_IMG_0552.jpg,1,Group1_IMG_0552.jpg,,,,,0.0,65.0,65.0,65.0,,,,,,,,,,,,,,,,,,,289.3123057009652,None,,,1,0.8618622969370335,291.7787823409308,None,291.7787823409308,None,,,290.61188671388663,None,,,,,1,2022_Apr_12_1419,Real-fake-judgement-flashing-group1,2021.1.2,59.82985993973882,
69,Trial # 67,Group1-stimuli/group1-block1/real-group1-b1/Group1_IMG_1029.jpg,1,Group1_IMG_1029.jpg,,,,,0.0,66.0,66.0,66.0,,,,,,,,,,,,,,,,,,,292.66234455886297,None,,,0,1.2470933820586652,295.1295682608616,None,295.1295682608616,None,,,293.96381495893,None,,,,,1,2022_Apr_12_1419,Real-fake-judgement-flashing-group1,2021.1.2,59.82985993973882,
70,Trial # 68,Group1-stimuli/group1-block1/fake-group2-b1/encoded_Group2_IMG_6517.jpg,0,encoded_Group2_IMG_6517.jpg,,,,,0.0,67.0,67.0,67.0,,,,,,,,,,,,,,,,,,,296.396873626858,None,,,0,1.6719640272203833,298.8646836448461,None,298.8646836448461,None,,,297.6965108308941,None,,,,,1,2022_Apr_12_1419,Real-fake-judgement-flashing-group1,2021.1.2,59.82985993973882,
71,Trial # 69,Group1-stimuli/group1-block1/fake-group2-b1/encoded_Group2_IMG_0002.jpg,0,encoded_Group2_IMG_0002.jpg,,,,,0.0,68.0,68.0,68.0,,,,,,,,,,,,,,,,,,,300.5645662068855,None,,,1,0.7834366769529879,303.03322242293507,None,303.03322242293507,None,,,301.86505308095366,None,,,,,1,2022_Apr_12_1419,Real-fake-judgement-flashing-group1,2021.1.2,59.82985993973882,
72,Trial # 70,Group1-stimuli/group1-block1/real-group1-b1/Group1_IMG_0495.jpg,1,Group1_IMG_0495.jpg,,,,,0.0,69.0,69.0,69.0,,,,,,,,,,,,,,,,,,,303.8337027649395,None,,,0,1.556013016961515,306.3166353988927,None,306.3166353988927,None,,,305.14933879487216,None,,,,,1,2022_Apr_12_1419,Real-fake-judgement-flashing-group1,2021.1.2,59.82985993973882,
73,Trial # 71,Group1-stimuli/group1-block1/real-group1-b1/Group1_IMG_1391.jpg,1,Group1_IMG_1391.jpg,,,,,0.0,70.0,70.0,70.0,,,,,,,,,,,,,,,,,,,307.89961458486505,None,,,0,0.8328441309276968,310.36781368986703,None,310.36781368986703,None,,,309.2017932960298,None,,,,,1,2022_Apr_12_1419,Real-fake-judgement-flashing-group1,2021.1.2,59.82985993973882,
74,Trial # 72,Group1-stimuli/group1-block1/real-group1-b1/Group1_IMG_0343.jpg,1,Group1_IMG_0343.jpg,,,,,0.0,71.0,71.0,71.0,,,,,,,,,,,,,,,,,,,311.21809954894707,None,,,1,1.218646668130532,313.68600337789394,None,313.68600337789394,None,,,312.5179464388639,None,,,,,1,2022_Apr_12_1419,Real-fake-judgement-flashing-group1,2021.1.2,59.82985993973882,
75,Trial # 73,Group1-stimuli/group1-block1/fake-group2-b1/encoded_Group2_IMG_9810.jpg,0,encoded_Group2_IMG_9810.jpg,,,,,0.0,72.0,72.0,72.0,,,,,,,,,,,,,,,,,,,314.9358831469435,None,,,0,1.485301150009036,317.4032920869068,None,317.4032920869068,None,,,316.2361700378824,None,,,,,1,2022_Apr_12_1419,Real-fake-judgement-flashing-group1,2021.1.2,59.82985993973882,
76,Trial # 74,Group1-stimuli/group1-block1/fake-group2-b1/encoded_Group2_IMG_5900.jpg,0,encoded_Group2_IMG_5900.jpg,,,,,0.0,73.0,73.0,73.0,,,,,,,,,,,,,,,,,,,318.9211833609734,None,,,1,1.1488769249990582,321.3877810209524,None,321.3877810209524,None,,,320.22069425694644,None,,,,,1,2022_Apr_12_1419,Real-fake-judgement-flashing-group1,2021.1.2,59.82985993973882,
77,Trial # 75,Group1-stimuli/group1-block1/real-group1-b1/Group1_IMG_9679.jpg,1,Group1_IMG_9679.jpg,,,,,0.0,74.0,74.0,74.0,,,,,,,,,,,,,,,,,,,322.55454686190933,None,,,1,1.7302966709248722,325.0223505569156,None,325.0223505569156,None,,,323.8563193080481,None,,,,,1,2022_Apr_12_1419,Real-fake-judgement-flashing-group1,2021.1.2,59.82985993973882,
78,Trial # 76,Group1-stimuli/group1-block1/fake-group2-b1/encoded_Group2_IMG_4249.jpg,0,encoded_Group2_IMG_4249.jpg,,,,,0.0,75.0,75.0,75.0,,,,,,,,,,,,,,,,,,,326.7733365248423,None,,,0,1.543121588183567,329.241536259884,None,329.241536259884,None,,,328.091195540037,None,,,,,1,2022_Apr_12_1419,Real-fake-judgement-flashing-group1,2021.1.2,59.82985993973882,
79,Trial # 77,Group1-stimuli/group1-block1/fake-group2-b1/encoded_Group2_IMG_0174.jpg,0,encoded_Group2_IMG_0174.jpg,,,,,0.0,76.0,76.0,76.0,,,,,,,,,,,,,,,,,,,330.8076975089498,None,,,0,0.5646186450030655,333.2919747259002,None,333.2919747259002,None,,,332.10780551703647,None,,,,,1,2022_Apr_12_1419,Real-fake-judgement-flashing-group1,2021.1.2,59.82985993973882,
80,Trial # 78,Group1-stimuli/group1-block1/fake-group2-b1/encoded_Group2_IMG_0475.jpg,0,encoded_Group2_IMG_0475.jpg,,,,,0.0,77.0,77.0,77.0,,,,,,,,,,,,,,,,,,,333.87638103193603,None,,,1,1.194098218111321,336.3425114538986,None,336.3425114538986,None,,,335.1765110560227,None,,,,,1,2022_Apr_12_1419,Real-fake-judgement-flashing-group1,2021.1.2,59.82985993973882,
81,Trial # 79,Group1-stimuli/group1-block1/fake-group2-b1/encoded_Group2_IMG_9751.jpg,0,encoded_Group2_IMG_9751.jpg,,,,,0.0,78.0,78.0,78.0,,,,,,,,,,,,,,,,,,,337.5590824158862,None,,,0,0.8296730220317841,340.0269797388464,None,340.0269797388464,None,,,338.86096777487546,None,,,,,1,2022_Apr_12_1419,Real-fake-judgement-flashing-group1,2021.1.2,59.82985993973882,
82,Trial # 80,Group1-stimuli/group1-block1/fake-group2-b1/encoded_Group2_IMG_0492.jpg,0,encoded_Group2_IMG_0492.jpg,,,,,0.0,79.0,79.0,79.0,,,,,,,,,,,,,,,,,,,340.8772526248358,None,,,0,0.5196528930682689,343.3449966548942,None,343.3449966548942,None,,,342.17801685188897,None,,,,,1,2022_Apr_12_1419,Real-fake-judgement-flashing-group1,2021.1.2,59.82985993973882,
83,Trial # 81,Group1-stimuli/group1-block1/real-group1-b1/Group1_IMG_0535.jpg,1,Group1_IMG_0535.jpg,,,,,0.0,80.0,80.0,80.0,,,,,,,,,,,,,,,,,,,343.8959401939064,None,,,1,1.4464239140506834,346.36221870291047,None,346.36221870291047,None,,,345.19604711490683,None,,,,,1,2022_Apr_12_1419,Real-fake-judgement-flashing-group1,2021.1.2,59.82985993973882,
84,Trial # 82,Group1-stimuli/group1-block1/real-group1-b1/Group1_IMG_0077.jpg,1,Group1_IMG_0077.jpg,,,,,0.0,81.0,81.0,81.0,,,,,,,,,,,,,,,,,,,347.8293316778727,None,,,1,1.2957765879109502,350.2968720109202,None,350.2968720109202,None,,,349.13087489805184,None,,,,,1,2022_Apr_12_1419,Real-fake-judgement-flashing-group1,2021.1.2,59.82985993973882,
85,Trial # 83,Group1-stimuli/group1-block1/fake-group2-b1/encoded_Group2_IMG_9702.jpg,0,encoded_Group2_IMG_9702.jpg,,,,,0.0,82.0,82.0,82.0,,,,,,,,,,,,,,,,,,,351.61399682890624,None,,,0,1.1189919461030513,354.0817115530372,None,354.0817115530372,None,,,352.91358640487306,None,,,,,1,2022_Apr_12_1419,Real-fake-judgement-flashing-group1,2021.1.2,59.82985993973882,
86,Trial # 84,Group1-stimuli/group1-block1/real-group1-b1/Group1_IMG_0357.jpg,1,Group1_IMG_0357.jpg,,,,,0.0,83.0,83.0,83.0,,,,,,,,,,,,,,,,,,,355.2314948460553,None,,,1,0.917633610079065,357.6989127518609,None,357.6989127518609,None,,,356.53198860702105,None,,,,,1,2022_Apr_12_1419,Real-fake-judgement-flashing-group1,2021.1.2,59.82985993973882,
87,Trial # 85,Group1-stimuli/group1-block1/real-group1-b1/Group1_IMG_9772.jpg,1,Group1_IMG_9772.jpg,,,,,0.0,84.0,84.0,84.0,,,,,,,,,,,,,,,,,,,358.64991992292926,None,,,1,1.619823717046529,361.1168510299176,None,361.1168510299176,None,,,359.9497171880212,None,,,,,1,2022_Apr_12_1419,Real-fake-judgement-flashing-group1,2021.1.2,59.82985993973882,
88,Trial # 86,Group1-stimuli/group1-block1/real-group1-b1/Group1_IMG_0482.jpg,1,Group1_IMG_0482.jpg,,,,,0.0,85.0,85.0,85.0,,,,,,,,,,,,,,,,,,,362.7667021579109,None,,,1,1.2296081779059025,365.2350509469397,None,365.2350509469397,None,,,364.068851942895,None,,,,,1,2022_Apr_12_1419,Real-fake-judgement-flashing-group1,2021.1.2,59.82985993973882,
89,Trial # 87,Group1-stimuli/group1-block1/real-group1-b1/Group1_IMG_0299.jpg,1,Group1_IMG_0299.jpg,,,,,0.0,86.0,86.0,86.0,,,,,,,,,,,,,,,,,,,366.4850551348645,None,,,1,1.1180400648154318,368.9705433899071,None,368.9705433899071,None,,,367.7848643078469,None,,,,,1,2022_Apr_12_1419,Real-fake-judgement-flashing-group1,2021.1.2,59.82985993973882,
90,Trial # 88,Group1-stimuli/group1-block1/fake-group2-b1/encoded_Group2_IMG_0301.jpg,0,encoded_Group2_IMG_0301.jpg,,,,,0.0,87.0,87.0,87.0,,,,,,,,,,,,,,,,,,,370.1194876569789,None,,,0,0.4783247457817197,372.5703219869174,None,372.5703219869174,None,,,371.4030936460477,None,,,,,1,2022_Apr_12_1419,Real-fake-judgement-flashing-group1,2021.1.2,59.82985993973882,
91,Trial # 89,Group1-stimuli/group1-block1/fake-group2-b1/encoded_Group2_IMG_5136.jpg,0,encoded_Group2_IMG_5136.jpg,,,,,0.0,88.0,88.0,88.0,,,,,,,,,,,,,,,,,,,373.0720150058624,None,,,1,0.9269368210807444,375.5376916918904,None,375.5376916918904,None,,,374.3720145449042,None,,,,,1,2022_Apr_12_1419,Real-fake-judgement-flashing-group1,2021.1.2,59.82985993973882,
92,Trial # 90,Group1-stimuli/group1-block1/real-group1-b1/Group1_IMG_0460.jpg,1,Group1_IMG_0460.jpg,,,,,0.0,89.0,89.0,89.0,,,,,,,,,,,,,,,,,,,376.48831484885886,None,,,1,0.596558759920299,378.9560874700546,None,378.9560874700546,None,,,377.7884402379859,None,,,,,1,2022_Apr_12_1419,Real-fake-judgement-flashing-group1,2021.1.2,59.82985993973882,
93,Trial # 91,Group1-stimuli/group1-block1/fake-group2-b1/encoded_Group2_IMG_0068.jpg,0,encoded_Group2_IMG_0068.jpg,,,,,0.0,90.0,90.0,90.0,,,,,,,,,,,,,,,,,,,379.5739391788375,None,,,1,1.0246562720276415,382.0399923319928,None,382.0399923319928,None,,,380.8728256209288,None,,,,,1,2022_Apr_12_1419,Real-fake-judgement-flashing-group1,2021.1.2,59.82985993973882,
94,Trial # 92,Group1-stimuli/group1-block1/real-group1-b1/Group1_IMG_0337.jpg,1,Group1_IMG_0337.jpg,,,,,0.0,91.0,91.0,91.0,,,,,,,,,,,,,,,,,,,383.0906868348829,None,,,0,0.5389350149780512,385.5577129749581,None,385.5577129749581,None,,,384.3917810888961,None,,,,,1,2022_Apr_12_1419,Real-fake-judgement-flashing-group1,2021.1.2,59.82985993973882,
95,Trial # 93,Group1-stimuli/group1-block1/fake-group2-b1/encoded_Group2_IMG_0346.jpg,0,encoded_Group2_IMG_0346.jpg,,,,,0.0,92.0,92.0,92.0,,,,,,,,,,,,,,,,,,,386.1245832820423,None,,,0,0.4162426560651511,388.59243265888654,None,388.59243265888654,None,,,387.4248372048605,None,,,,,1,2022_Apr_12_1419,Real-fake-judgement-flashing-group1,2021.1.2,59.82985993973882,
96,Trial # 94,Group1-stimuli/group1-block1/real-group1-b1/Group1_IMG_4253.jpg,1,Group1_IMG_4253.jpg,,,,,0.0,93.0,93.0,93.0,,,,,,,,,,,,,,,,,,,389.0268102488481,None,,,1,0.899130379082635,391.5094463659916,None,391.5094463659916,None,,,390.3422928689979,None,,,,,1,2022_Apr_12_1419,Real-fake-judgement-flashing-group1,2021.1.2,59.82985993973882,
97,Trial # 95,Group1-stimuli/group1-block1/fake-group2-b1/encoded_Group2_IMG_9280.jpg,0,encoded_Group2_IMG_9280.jpg,,,,,0.0,94.0,94.0,94.0,,,,,,,,,,,,,,,,,,,392.42709157289937,None,,,1,0.4900436550378799,394.9106036110316,None,394.9106036110316,None,,,393.72791646886617,None,,,,,1,2022_Apr_12_1419,Real-fake-judgement-flashing-group1,2021.1.2,59.82985993973882,
98,Trial # 96,Group1-stimuli/group1-block1/real-group1-b1/Group1_IMG_0417.jpg,1,Group1_IMG_0417.jpg,,,,,0.0,95.0,95.0,95.0,,,,,,,,,,,,,,,,,,,395.4274843588937,None,,,1,0.8052410110831261,397.89940578490496,None,397.89940578490496,None,,,396.72772184200585,None,,,,,1,2022_Apr_12_1419,Real-fake-judgement-flashing-group1,2021.1.2,59.82985993973882,
99,Trial # 97,Group1-stimuli/group1-block1/fake-group2-b1/encoded_Group2_IMG_9695.jpg,0,encoded_Group2_IMG_9695.jpg,,,,,0.0,96.0,96.0,96.0,,,,,,,,,,,,,,,,,,,398.7292924518697,None,,,0,0.6122482349164784,401.21243887301534,None,401.21243887301534,None,,,400.02914000302553,None,,,,,1,2022_Apr_12_1419,Real-fake-judgement-flashing-group1,2021.1.2,59.82985993973882,
100,Trial # 98,Group1-stimuli/group1-block1/real-group1-b1/Group1_IMG_1160.jpg,1,Group1_IMG_1160.jpg,,,,,0.0,97.0,97.0,97.0,,,,,,,,,,,,,,,,,,,401.8459364438895,None,,,1,0.5819219998084009,404.31473819795065,None,404.31473819795065,None,,,403.1477651069872,None,,,,,1,2022_Apr_12_1419,Real-fake-judgement-flashing-group1,2021.1.2,59.82985993973882,
101,Trial # 99,Group1-stimuli/group1-block1/real-group1-b1/Group1_IMG_0448.jpg,1,Group1_IMG_0448.jpg,,,,,0.0,98.0,98.0,98.0,,,,,,,,,,,,,,,,,,,404.9137502799276,None,,,0,1.0114868190139532,407.381176852854,None,407.381176852854,None,,,406.2140744118951,None,,,,,1,2022_Apr_12_1419,Real-fake-judgement-flashing-group1,2021.1.2,59.82985993973882,
102,Trial # 100,Group1-stimuli/group1-block1/fake-group2-b1/encoded_Group2_IMG_0393.jpg,0,encoded_Group2_IMG_0393.jpg,,,,,0.0,99.0,99.0,99.0,,,,,,,,,,,,,,,,,,,408.41598898591474,None,,,0,0.734041010029614,410.8825640939176,None,410.8825640939176,None,,,409.7150990208611,None,,,,,1,2022_Apr_12_1419,Real-fake-judgement-flashing-group1,2021.1.2,59.82985993973882,
103,Trial # 101,Group1-stimuli/group1-block1/real-group1-b1/Group1_IMG_0090.jpg,1,Group1_IMG_0090.jpg,,,,,0.0,100.0,100.0,100.0,,,,,,,,,,,,,,,,,,,411.6491486430168,None,,,1,0.3949430049397051,414.1177039430477,None,414.1177039430477,None,,,412.9506272398866,None,,,,,1,2022_Apr_12_1419,Real-fake-judgement-flashing-group1,2021.1.2,59.82985993973882,
104,Trial # 102,Group1-stimuli/group1-block1/real-group1-b1/Group1_IMG_0310.jpg,1,Group1_IMG_0310.jpg,,,,,0.0,101.0,101.0,101.0,,,,,,,,,,,,,,,,,,,414.5346050900407,None,,,1,0.4962825698312372,417.0003988388926,None,417.0003988388926,None,,,415.8335785530508,None,,,,,1,2022_Apr_12_1419,Real-fake-judgement-flashing-group1,2021.1.2,59.82985993973882,
105,Trial # 103,Group1-stimuli/group1-block1/fake-group2-b1/encoded_Group2_IMG_0528.jpg,0,encoded_Group2_IMG_0528.jpg,,,,,0.0,102.0,102.0,102.0,,,,,,,,,,,,,,,,,,,417.51769526395947,None,,,0,0.5516883570235223,419.9849604119081,None,419.9849604119081,None,,,418.8190988339484,None,,,,,1,2022_Apr_12_1419,Real-fake-judgement-flashing-group1,2021.1.2,59.82985993973882,
106,Trial # 104,Group1-stimuli/group1-block1/fake-group2-b1/encoded_Group2_IMG_1975.jpg,0,encoded_Group2_IMG_1975.jpg,,,,,0.0,103.0,103.0,103.0,,,,,,,,,,,,,,,,,,,420.5689111710526,None,,,0,0.7401916470844299,423.0364568969235,None,423.0364568969235,None,,,421.8686256848741,None,,,,,1,2022_Apr_12_1419,Real-fake-judgement-flashing-group1,2021.1.2,59.82985993973882,
107,Trial # 105,Group1-stimuli/group1-block1/fake-group2-b1/encoded_Group2_IMG_0052.jpg,0,encoded_Group2_IMG_0052.jpg,,,,,0.0,104.0,104.0,104.0,,,,,,,,,,,,,,,,,,,423.8030203990638,None,,,0,0.314431413076818,426.2702324949205,None,426.2702324949205,None,,,425.1032023539301,None,,,,,1,2022_Apr_12_1419,Real-fake-judgement-flashing-group1,2021.1.2,59.82985993973882,
108,Trial # 106,Group1-stimuli/group1-block1/fake-group2-b1/encoded_Group2_IMG_0225.jpg,0,encoded_Group2_IMG_0225.jpg,,,,,0.0,105.0,105.0,105.0,,,,,,,,,,,,,,,,,,,426.6042628409341,None,,,1,0.3533083230722695,429.0713397439104,None,429.0713397439104,None,,,427.9037054479122,None,,,,,1,2022_Apr_12_1419,Real-fake-judgement-flashing-group1,2021.1.2,59.82985993973882,
109,Trial # 107,Group1-stimuli/group1-block1/real-group1-b1/Group1_IMG_2231.jpg,1,Group1_IMG_2231.jpg,,,,,0.0,106.0,106.0,106.0,,,,,,,,,,,,,,,,,,,429.4558829059824,None,,,1,0.1500660281162709,431.9386207200587,None,431.9386207200587,None,,,430.7716484889388,None,,,,,1,2022_Apr_12_1419,Real-fake-judgement-flashing-group1,2021.1.2,59.82985993973882,
110,Trial # 108,Group1-stimuli/group1-block1/real-group1-b1/Group1_IMG_0217.jpg,1,Group1_IMG_0217.jpg,,,,,0.0,107.0,107.0,107.0,,,,,,,,,,,,,,,,,,,432.1051428669598,None,,,1,0.7316446418408304,434.5730110700242,None,434.5730110700242,None,,,433.4070944439154,None,,,,,1,2022_Apr_12_1419,Real-fake-judgement-flashing-group1,2021.1.2,59.82985993973882,
111,Trial # 109,Group1-stimuli/group1-block1/real-group1-b1/Group1_IMG_0264.jpg,1,Group1_IMG_0264.jpg,,,,,0.0,108.0,108.0,108.0,,,,,,,,,,,,,,,,,,,435.3236626558937,None,,,1,0.4502526430878788,437.7903929539025,None,437.7903929539025,None,,,436.624139288906,None,,,,,1,2022_Apr_12_1419,Real-fake-judgement-flashing-group1,2021.1.2,59.82985993973882,
112,Trial # 110,Group1-stimuli/group1-block1/fake-group2-b1/encoded_Group2_IMG_0254.jpg,0,encoded_Group2_IMG_0254.jpg,,,,,0.0,109.0,109.0,109.0,,,,,,,,,,,,,,,,,,,438.2575669989456,None,,,0,0.9319216450676322,440.72464420693,None,440.72464420693,None,,,439.5588727670256,None,,,,,1,2022_Apr_12_1419,Real-fake-judgement-flashing-group1,2021.1.2,59.82985993973882,
113,Trial # 111,Group1-stimuli/group1-block1/fake-group2-b1/encoded_Group2_IMG_5433.jpg,0,encoded_Group2_IMG_5433.jpg,,,,,0.0,110.0,110.0,110.0,,,,,,,,,,,,,,,,,,,441.6753847589716,None,,,1,1.2249899469316006,444.1436561949085,None,444.1436561949085,None,,,442.9765178640373,None,,,,,1,2022_Apr_12_1419,Real-fake-judgement-flashing-group1,2021.1.2,59.82985993973882,
114,Trial # 112,Group1-stimuli/group1-block1/real-group1-b1/Group1_IMG_0252.jpg,1,Group1_IMG_0252.jpg,,,,,0.0,111.0,111.0,111.0,,,,,,,,,,,,,,,,,,,445.3930474009831,None,,,0,0.6524161410052329,447.8601686039474,None,447.8601686039474,None,,,446.693179073045,None,,,,,1,2022_Apr_12_1419,Real-fake-judgement-flashing-group1,2021.1.2,59.82985993973882,
115,Trial # 113,Group1-stimuli/group1-block1/real-group1-b1/Group1_IMG_9720.jpg,1,Group1_IMG_9720.jpg,,,,,0.0,112.0,112.0,112.0,,,,,,,,,,,,,,,,,,,448.54423644486815,None,,,1,0.5254654651507735,451.0112303360365,None,451.0112303360365,None,,,449.845167129999,None,,,,,1,2022_Apr_12_1419,Real-fake-judgement-flashing-group1,2021.1.2,59.82985993973882,
116,Trial # 114,Group1-stimuli/group1-block1/fake-group2-b1/encoded_Group2_IMG_0550.jpg,0,encoded_Group2_IMG_0550.jpg,,,,,0.0,113.0,113.0,113.0,,,,,,,,,,,,,,,,,,,451.562301866943,None,,,0,0.5064235038589686,454.03022467694245,None,454.03022467694245,None,,,452.8613542020321,None,,,,,1,2022_Apr_12_1419,Real-fake-judgement-flashing-group1,2021.1.2,59.82985993973882,
117,Trial # 115,Group1-stimuli/group1-block1/real-group1-b1/Group1_IMG_9915.jpg,1,Group1_IMG_9915.jpg,,,,,0.0,114.0,114.0,114.0,,,,,,,,,,,,,,,,,,,454.5636238208972,None,,,0,1.4829653138294816,457.0296102899592,None,457.0296102899592,None,,,455.8627236559987,None,,,,,1,2022_Apr_12_1419,Real-fake-judgement-flashing-group1,2021.1.2,59.82985993973882,
118,Trial # 116,Group1-stimuli/group1-block1/real-group1-b1/Group1_IMG_9850.jpg,1,Group1_IMG_9850.jpg,,,,,0.0,115.0,115.0,115.0,,,,,,,,,,,,,,,,,,,458.5315364608541,None,,,1,0.8108773338608444,460.9977708058432,None,460.9977708058432,None,,,459.8306141719222,None,,,,,1,2022_Apr_12_1419,Real-fake-judgement-flashing-group1,2021.1.2,59.82985993973882,
119,Trial # 117,Group1-stimuli/group1-block1/real-group1-b1/Group1_IMG_3579.jpg,1,Group1_IMG_3579.jpg,,,,,0.0,116.0,116.0,116.0,,,,,,,,,,,,,,,,,,,461.8309600800276,None,,,1,1.3408239770215005,464.29982434003614,None,464.29982434003614,None,,,463.1328386978712,None,,,,,1,2022_Apr_12_1419,Real-fake-judgement-flashing-group1,2021.1.2,59.82985993973882,
120,Trial # 118,Group1-stimuli/group1-block1/fake-group2-b1/encoded_Group2_IMG_0377.jpg,0,encoded_Group2_IMG_0377.jpg,,,,,0.0,117.0,117.0,117.0,,,,,,,,,,,,,,,,,,,465.6662641989533,None,,,0,0.8583064051344991,468.1343423088547,None,468.1343423088547,None,,,466.96610465087,None,,,,,1,2022_Apr_12_1419,Real-fake-judgement-flashing-group1,2021.1.2,59.82985993973882,
121,Trial # 119,Group1-stimuli/group1-block1/real-group1-b1/Group1_IMG_0469.jpg,1,Group1_IMG_0469.jpg,,,,,0.0,118.0,118.0,118.0,,,,,,,,,,,,,,,,,,,469.017279420048,None,,,1,1.1404992979951205,471.4841475239955,None,471.4841475239955,None,,,470.3172318360303,None,,,,,1,2022_Apr_12_1419,Real-fake-judgement-flashing-group1,2021.1.2,59.82985993973882,
122,Trial # 120,Group1-stimuli/group1-block1/fake-group2-b1/encoded_Group2_IMG_0100.jpg,0,encoded_Group2_IMG_0100.jpg,,,,,0.0,119.0,119.0,119.0,,,,,,,,,,,,,,,,,,,472.6510509089567,None,,,0,1.4258447021711618,475.1188003330026,None,475.1188003330026,None,,,473.9527833650354,None,,,,,1,2022_Apr_12_1419,Real-fake-judgement-flashing-group1,2021.1.2,59.82985993973882,
123,Trial # 121,Group1-stimuli/group1-block1/real-group1-b1/Group1_IMG_5359.jpg,1,Group1_IMG_5359.jpg,,,,,0.0,120.0,120.0,120.0,,,,,,,,,,,,,,,,,,,476.5689288920257,None,,,0,0.6037900899536908,479.0368705079891,None,479.0368705079891,None,,,477.8698273608461,None,,,,,1,2022_Apr_12_1419,Real-fake-judgement-flashing-group1,2021.1.2,59.82985993973882,
124,Trial # 122,Group1-stimuli/group1-block1/fake-group2-b1/encoded_Group2_IMG_0304.jpg,0,encoded_Group2_IMG_0304.jpg,,,,,0.0,121.0,121.0,121.0,,,,,,,,,,,,,,,,,,,479.6713960620109,None,,,1,1.294069231953472,482.1545788338408,None,482.1545788338408,None,,,480.987276528962,None,,,,,1,2022_Apr_12_1419,Real-fake-judgement-flashing-group1,2021.1.2,59.82985993973882,
125,Trial # 123,Group1-stimuli/group1-block1/real-group1-b1/Group1_IMG_0306.jpg,1,Group1_IMG_0306.jpg,,,,,0.0,122.0,122.0,122.0,,,,,,,,,,,,,,,,,,,483.47252805088647,None,,,1,1.526015748968348,485.9386323199142,None,485.9386323199142,None,,,484.7728294779081,None,,,,,1,2022_Apr_12_1419,Real-fake-judgement-flashing-group1,2021.1.2,59.82985993973882,
126,Trial # 124,Group1-stimuli/group1-block1/real-group1-b1/Group1_IMG_0224.jpg,1,Group1_IMG_0224.jpg,,,,,0.0,123.0,123.0,123.0,,,,,,,,,,,,,,,,,,,487.4890745729208,None,,,1,0.8832879411056638,489.973368949024,None,489.973368949024,None,,,488.7907318570651,None,,,,,1,2022_Apr_12_1419,Real-fake-judgement-flashing-group1,2021.1.2,59.82985993973882,
127,Trial # 125,Group1-stimuli/group1-block1/real-group1-b1/Group1_IMG_9889.jpg,1,Group1_IMG_9889.jpg,,,,,0.0,124.0,124.0,124.0,,,,,,,,,,,,,,,,,,,490.8742242068984,None,,,0,0.6025186108890921,493.34212918998674,None,493.34212918998674,None,,,492.17351969284937,None,,,,,1,2022_Apr_12_1419,Real-fake-judgement-flashing-group1,2021.1.2,59.82985993973882,
128,Trial # 126,Group1-stimuli/group1-block1/real-group1-b1/Group1_IMG_0293.jpg,1,Group1_IMG_0293.jpg,,,,,0.0,125.0,125.0,125.0,,,,,,,,,,,,,,,,,,,493.97590991295874,None,,,1,1.2627438430208713,496.4419039150234,None,496.4419039150234,None,,,495.2747186468914,None,,,,,1,2022_Apr_12_1419,Real-fake-judgement-flashing-group1,2021.1.2,59.82985993973882,
129,Trial # 127,Group1-stimuli/group1-block1/fake-group2-b1/encoded_Group2_IMG_0321.jpg,0,encoded_Group2_IMG_0321.jpg,,,,,0.0,126.0,126.0,126.0,,,,,,,,,,,,,,,,,,,497.7308294840623,None,,,0,0.6388672348111868,500.2097810329869,None,500.2097810329869,None,,,499.0606881598942,None,,,,,1,2022_Apr_12_1419,Real-fake-judgement-flashing-group1,2021.1.2,59.82985993973882,
130,Trial # 128,Group1-stimuli/group1-block1/fake-group2-b1/encoded_Group2_IMG_0400.jpg,0,encoded_Group2_IMG_0400.jpg,,,,,0.0,127.0,127.0,127.0,,,,,,,,,,,,,,,,,,,500.8776940549724,None,,,0,2.6721765799447894,503.3444966999814,None,503.3444966999814,None,,,502.1770419599488,None,,,,,1,2022_Apr_12_1419,Real-fake-judgement-flashing-group1,2021.1.2,59.82985993973882,
131,Trial # 129,Group1-stimuli/group1-block1/fake-group2-b1/encoded_Group2_IMG_0443.jpg,0,encoded_Group2_IMG_0443.jpg,,,,,0.0,128.0,128.0,128.0,,,,,,,,,,,,,,,,,,,506.0451924819499,None,,,0,0.8470873520709574,508.5135732060298,None,508.5135732060298,None,,,507.3453989110421,None,,,,,1,2022_Apr_12_1419,Real-fake-judgement-flashing-group1,2021.1.2,59.82985993973882,
132,Trial # 130,Group1-stimuli/group1-block1/fake-group2-b1/encoded_Group2_IMG_0542.jpg,0,encoded_Group2_IMG_0542.jpg,,,,,0.0,129.0,129.0,129.0,,,,,,,,,,,,,,,,,,,509.37928504101,None,,,0,1.089858700055629,511.8467895330396,None,511.8467895330396,None,,,510.6796616120264,None,,,,,1,2022_Apr_12_1419,Real-fake-judgement-flashing-group1,2021.1.2,59.82985993973882,
133,Trial # 131,Group1-stimuli/group1-block1/real-group1-b1/Group1_IMG_0885.jpg,1,Group1_IMG_0885.jpg,,,,,0.0,130.0,130.0,130.0,,,,,,,,,,,,,,,,,,,512.9635510998778,None,,,1,1.0086450250819323,515.4320022119209,None,515.4320022119209,None,,,514.2652453710325,None,,,,,1,2022_Apr_12_1419,Real-fake-judgement-flashing-group1,2021.1.2,59.82985993973882,
134,Trial # 132,Group1-stimuli/group1-block1/real-group1-b1/Group1_IMG_0375.jpg,1,Group1_IMG_0375.jpg,,,,,0.0,131.0,131.0,131.0,,,,,,,,,,,,,,,,,,,516.4648988798726,None,,,1,0.7319624989759177,518.9326882360037,None,518.9326882360037,None,,,517.7650774719659,None,,,,,1,2022_Apr_12_1419,Real-fake-judgement-flashing-group1,2021.1.2,59.82985993973882,
135,Trial # 133,Group1-stimuli/group1-block1/fake-group2-b1/encoded_Group2_IMG_7351.jpg,0,encoded_Group2_IMG_7351.jpg,,,,,0.0,132.0,132.0,132.0,,,,,,,,,,,,,,,,,,,519.6831010719761,None,,,1,0.8346619820222259,522.1499824048951,None,522.1499824048951,None,,,520.9829283079598,None,,,,,1,2022_Apr_12_1419,Real-fake-judgement-flashing-group1,2021.1.2,59.82985993973882,
136,Trial # 134,Group1-stimuli/group1-block1/fake-group2-b1/encoded_Group2_IMG_0416.jpg,0,encoded_Group2_IMG_0416.jpg,,,,,0.0,133.0,133.0,133.0,,,,,,,,,,,,,,,,,,,523.0015821789857,None,,,0,0.8137519981246442,525.4508953618351,None,525.4508953618351,None,,,524.2849715410266,None,,,,,1,2022_Apr_12_1419,Real-fake-judgement-flashing-group1,2021.1.2,59.82985993973882,
137,Trial # 135,Group1-stimuli/group1-block1/fake-group2-b1/encoded_Group2_IMG_0139.jpg,0,encoded_Group2_IMG_0139.jpg,,,,,0.0,134.0,134.0,134.0,,,,,,,,,,,,,,,,,,,526.2845004168339,None,,,1,1.528249513125047,528.7523982550483,None,528.7523982550483,None,,,527.5848208928946,None,,,,,1,2022_Apr_12_1419,Real-fake-judgement-flashing-group1,2021.1.2,59.82985993973882,
138,Trial # 136,Group1-stimuli/group1-block1/real-group1-b1/Group1_IMG_9677.jpg,1,Group1_IMG_9677.jpg,,,,,0.0,135.0,135.0,135.0,,,,,,,,,,,,,,,,,,,530.3025845519733,None,,,0,1.4547165741678327,532.7699528799858,None,532.7699528799858,None,,,531.6027119669598,None,,,,,1,2022_Apr_12_1419,Real-fake-judgement-flashing-group1,2021.1.2,59.82985993973882,
139,Trial # 137,Group1-stimuli/group1-block1/fake-group2-b1/encoded_Group2_IMG_5982.jpg,0,encoded_Group2_IMG_5982.jpg,,,,,0.0,136.0,136.0,136.0,,,,,,,,,,,,,,,,,,,534.2552529908717,None,,,0,0.5270443090703338,536.7375968589913,None,536.7375968589913,None,,,535.57060042792,None,,,,,1,2022_Apr_12_1419,Real-fake-judgement-flashing-group1,2021.1.2,59.82985993973882,
140,Trial # 138,Group1-stimuli/group1-block1/fake-group2-b1/encoded_Group2_IMG_1144.jpg,0,encoded_Group2_IMG_1144.jpg,,,,,0.0,137.0,137.0,137.0,,,,,,,,,,,,,,,,,,,537.2882292568684,None,,,0,0.6763074591290206,539.7563281068578,None,539.7563281068578,None,,,538.5894737360068,None,,,,,1,2022_Apr_12_1419,Real-fake-judgement-flashing-group1,2021.1.2,59.82985993973882,
141,Trial # 139,Group1-stimuli/group1-block1/fake-group2-b1/encoded_Group2_IMG_0315.jpg,0,encoded_Group2_IMG_0315.jpg,,,,,0.0,138.0,138.0,138.0,,,,,,,,,,,,,,,,,,,540.45549445902,None,,,0,0.5177357022184879,542.9228624978568,None,542.9228624978568,None,,,541.7559212760534,None,,,,,1,2022_Apr_12_1419,Real-fake-judgement-flashing-group1,2021.1.2,59.82985993973882,
142,Trial # 140,Group1-stimuli/group1-block1/real-group1-b1/Group1_IMG_130.jpg,1,Group1_IMG_130.jpg,,,,,0.0,139.0,139.0,139.0,,,,,,,,,,,,,,,,,,,543.4743501578923,None,,,1,0.6999460777733475,545.9407101490069,None,545.9407101490069,None,,,544.7746271069627,None,,,,,1,2022_Apr_12_1419,Real-fake-judgement-flashing-group1,2021.1.2,59.82985993973882,
143,Trial # 141,Group1-stimuli/group1-block1/real-group1-b1/Group1_IMG_0024.jpg,1,Group1_IMG_0024.jpg,,,,,0.0,140.0,140.0,140.0,,,,,,,,,,,,,,,,,,,546.6574500119314,None,,,0,1.266526203835383,549.1260555440094,None,549.1260555440094,None,,,547.9578049930278,None,,,,,1,2022_Apr_12_1419,Real-fake-judgement-flashing-group1,2021.1.2,59.82985993973882,
144,Trial # 142,Group1-stimuli/group1-block1/fake-group2-b1/encoded_Group2_IMG_5012.jpg,0,encoded_Group2_IMG_5012.jpg,,,,,0.0,141.0,141.0,141.0,,,,,,,,,,,,,,,,,,,550.4251583029982,None,,,0,0.7719174299854785,552.8927531880327,None,552.8927531880327,None,,,551.7255723648705,None,,,,,1,2022_Apr_12_1419,Real-fake-judgement-flashing-group1,2021.1.2,59.82985993973882,
145,Trial # 143,Group1-stimuli/group1-block1/fake-group2-b1/encoded_Group2_IMG_0209.jpg,0,encoded_Group2_IMG_0209.jpg,,,,,0.0,142.0,142.0,142.0,,,,,,,,,,,,,,,,,,,553.6943542789668,None,,,0,0.2643042330164462,556.1603660818655,None,556.1603660818655,None,,,554.993348877877,None,,,,,1,2022_Apr_12_1419,Real-fake-judgement-flashing-group1,2021.1.2,59.82985993973882,
146,Trial # 144,Group1-stimuli/group1-block1/real-group1-b1/Group1_IMG_0373.jpg,1,Group1_IMG_0373.jpg,,,,,0.0,143.0,143.0,143.0,,,,,,,,,,,,,,,,,,,556.4436912829988,None,,,1,0.4321822810452431,558.9124505820218,None,558.9124505820218,None,,,557.744046100881,None,,,,,1,2022_Apr_12_1419,Real-fake-judgement-flashing-group1,2021.1.2,59.82985993973882,
147,Trial # 145,Group1-stimuli/group1-block1/real-group1-b1/Group1_IMG_5899.jpg,1,Group1_IMG_5899.jpg,,,,,0.0,144.0,144.0,144.0,,,,,,,,,,,,,,,,,,,559.3626769408584,None,,,1,0.5158185109030455,561.8288397500291,None,561.8288397500291,None,,,560.6618941659108,None,,,,,1,2022_Apr_12_1419,Real-fake-judgement-flashing-group1,2021.1.2,59.82985993973882,
148,Trial # 146,Group1-stimuli/group1-block1/real-group1-b1/Group1_IMG_0162.jpg,1,Group1_IMG_0162.jpg,,,,,0.0,145.0,145.0,145.0,,,,,,,,,,,,,,,,,,,562.3624432829674,None,,,1,0.7468696171417832,564.8297789618373,None,564.8297789618373,None,,,563.6639962040354,None,,,,,1,2022_Apr_12_1419,Real-fake-judgement-flashing-group1,2021.1.2,59.82985993973882,
149,Trial # 147,Group1-stimuli/group1-block1/real-group1-b1/Group1_IMG_0543.jpg,1,Group1_IMG_0543.jpg,,,,,0.0,146.0,146.0,146.0,,,,,,,,,,,,,,,,,,,565.5980246770196,None,,,1,1.8961831599008288,568.0644757410046,None,568.0644757410046,None,,,566.8970448600594,None,,,,,1,2022_Apr_12_1419,Real-fake-judgement-flashing-group1,2021.1.2,59.82985993973882,
150,Trial # 148,Group1-stimuli/group1-block1/fake-group2-b1/encoded_Group2_IMG_0355.jpg,0,encoded_Group2_IMG_0355.jpg,,,,,0.0,147.0,147.0,147.0,,,,,,,,,,,,,,,,,,,569.9812340158969,None,,,0,0.5838023151736706,572.448859635042,None,572.448859635042,None,,,571.2816274929792,None,,,,,1,2022_Apr_12_1419,Real-fake-judgement-flashing-group1,2021.1.2,59.82985993973882,
151,Trial # 149,Group1-stimuli/group1-block1/real-group1-b1/Group1_IMG_9765.jpg,1,Group1_IMG_9765.jpg,,,,,0.0,148.0,148.0,148.0,,,,,,,,,,,,,,,,,,,573.0504220579751,None,,,1,0.379515869775787,575.5331180798821,None,575.5331180798821,None,,,574.3505532189738,None,,,,,1,2022_Apr_12_1419,Real-fake-judgement-flashing-group1,2021.1.2,59.82985993973882,
152,Trial # 150,Group1-stimuli/group1-block1/fake-group2-b1/encoded_Group2_IMG_1378.jpg,0,encoded_Group2_IMG_1378.jpg,,,,,0.0,149.0,149.0,149.0,,,,,,,,,,,,,,,,,,,575.933778065024,None,,,1,0.4710807460360229,578.41756772995,None,578.41756772995,None,,,577.2327773720026,None,,,,,1,2022_Apr_12_1419,Real-fake-judgement-flashing-group1,2021.1.2,59.82985993973882,
153,Trial # 1,Group1-stimuli/group1-block2/fake-group2-b2/encoded_Group2_IMG_0155.jpg,0,encoded_Group2_IMG_0155.jpg,,,,,,,,,0.0,0.0,0.0,0.0,,,,,,,,,,,,,,,588.3972541659605,None,,,0,1.5795809170231223,590.8210786608979,None,590.8210786608979,None,582.9351741869468,None,589.6552574369125,None,578.9180150709581,None,,,1,2022_Apr_12_1419,Real-fake-judgement-flashing-group1,2021.1.2,59.82985993973882,
154,Trial # 2,Group1-stimuli/group1-block2/real-group1-b2/Group1_IMG_0519.jpg,1,Group1_IMG_0519.jpg,,,,,,,,,0.0,1.0,1.0,1.0,,,,,,,,,,,,,,,592.4216531650163,None,,,1,0.4949115288909524,594.905736258952,None,594.905736258952,None,,,593.7232309989631,None,,,,,1,2022_Apr_12_1419,Real-fake-judgement-flashing-group1,2021.1.2,59.82985993973882,
155,Trial # 3,Group1-stimuli/group1-block2/fake-group2-b2/encoded_Group2_IMG_0135.jpg,0,encoded_Group2_IMG_0135.jpg,,,,,,,,,0.0,2.0,2.0,2.0,,,,,,,,,,,,,,,595.4233447678853,None,,,0,0.4626843261066824,597.8899642908946,None,597.8899642908946,None,,,596.7236645079684,None,,,,,1,2022_Apr_12_1419,Real-fake-judgement-flashing-group1,2021.1.2,59.82985993973882,
156,Trial # 4,Group1-stimuli/group1-block2/real-group1-b2/Group1_IMG_5310.jpg,1,Group1_IMG_5310.jpg,,,,,,,,,0.0,3.0,3.0,3.0,,,,,,,,,,,,,,,598.3744176048785,None,,,1,0.9996518820989876,600.8409901058767,None,600.8409901058767,None,,,599.6748088980094,None,,,,,1,2022_Apr_12_1419,Real-fake-judgement-flashing-group1,2021.1.2,59.82985993973882,
157,Trial # 5,Group1-stimuli/group1-block2/real-group1-b2/Group1_IMG_0522.jpg,1,Group1_IMG_0522.jpg,,,,,,,,,0.0,4.0,4.0,4.0,,,,,,,,,,,,,,,601.8581069249194,None,,,1,0.770187672926113,604.3264720230363,None,604.3264720230363,None,,,603.159422583878,None,,,,,1,2022_Apr_12_1419,Real-fake-judgement-flashing-group1,2021.1.2,59.82985993973882,
158,Trial # 6,Group1-stimuli/group1-block2/fake-group2-b2/encoded_Group2_IMG_0484.jpg,0,encoded_Group2_IMG_0484.jpg,,,,,,,,,0.0,5.0,5.0,5.0,,,,,,,,,,,,,,,605.1259058150463,None,,,0,0.8674065771047026,607.5972637978848,None,607.5972637978848,None,,,606.4256879389286,None,,,,,1,2022_Apr_12_1419,Real-fake-judgement-flashing-group1,2021.1.2,59.82985993973882,
159,Trial # 7,Group1-stimuli/group1-block2/fake-group2-b2/encoded_Group2_IMG_5948.jpg,0,encoded_Group2_IMG_5948.jpg,,,,,,,,,0.0,6.0,6.0,6.0,,,,,,,,,,,,,,,608.4985582800582,None,,,0,0.3111692739184946,610.9774765458424,None,610.9774765458424,None,,,609.8112733368762,None,,,,,1,2022_Apr_12_1419,Real-fake-judgement-flashing-group1,2021.1.2,59.82985993973882,
160,Trial # 8,Group1-stimuli/group1-block2/fake-group2-b2/encoded_Group2_IMG_3591.jpg,0,encoded_Group2_IMG_3591.jpg,,,,,,,,,0.0,7.0,7.0,7.0,,,,,,,,,,,,,,,611.3111354049761,None,,,0,0.4379539170768112,613.7786945090629,None,613.7786945090629,None,,,612.6108267758973,None,,,,,1,2022_Apr_12_1419,Real-fake-judgement-flashing-group1,2021.1.2,59.82985993973882,
161,Trial # 9,Group1-stimuli/group1-block2/real-group1-b2/Group1_IMG_9835.jpg,1,Group1_IMG_9835.jpg,,,,,,,,,0.0,8.0,8.0,8.0,,,,,,,,,,,,,,,614.2461396148428,None,,,1,0.5681181841064245,616.7125002818648,None,616.7125002818648,None,,,615.5453587488737,None,,,,,1,2022_Apr_12_1419,Real-fake-judgement-flashing-group1,2021.1.2,59.82985993973882,
162,Trial # 10,Group1-stimuli/group1-block2/real-group1-b2/Group1_IMG_0556.jpg,1,Group1_IMG_0556.jpg,,,,,,,,,0.0,9.0,9.0,9.0,,,,,,,,,,,,,,,617.31229918194,None,,,1,0.4838690708857029,619.7967199869454,None,619.7967199869454,None,,,618.61392547586,None,,,,,1,2022_Apr_12_1419,Real-fake-judgement-flashing-group1,2021.1.2,59.82985993973882,
163,Trial # 11,Group1-stimuli/group1-block2/fake-group2-b2/encoded_Group2_IMG_9736.jpg,0,encoded_Group2_IMG_9736.jpg,,,,,,,,,0.0,10.0,10.0,10.0,,,,,,,,,,,,,,,620.313528742874,None,,,1,0.5557990609668195,622.7808500628453,None,622.7808500628453,None,,,621.6138838790357,None,,,,,1,2022_Apr_12_1419,Real-fake-judgement-flashing-group1,2021.1.2,59.82985993973882,
164,Trial # 12,Group1-stimuli/group1-block2/real-group1-b2/Group1_IMG_9867.jpg,1,Group1_IMG_9867.jpg,,,,,,,,,0.0,11.0,11.0,11.0,,,,,,,,,,,,,,,623.3658910999075,None,,,0,0.5205728909932077,625.8320757858455,None,625.8320757858455,None,,,624.666048710933,None,,,,,1,2022_Apr_12_1419,Real-fake-judgement-flashing-group1,2021.1.2,59.82985993973882,
165,Trial # 13,Group1-stimuli/group1-block2/fake-group2-b2/encoded_Group2_IMG_9886.jpg,0,encoded_Group2_IMG_9886.jpg,,,,,,,,,0.0,12.0,12.0,12.0,,,,,,,,,,,,,,,626.3822037640493,None,,,1,0.6139166310895234,628.850651267916,None,628.850651267916,None,,,627.6826123008505,None,,,,,1,2022_Apr_12_1419,Real-fake-judgement-flashing-group1,2021.1.2,59.82985993973882,
166,Trial # 14,Group1-stimuli/group1-block2/fake-group2-b2/encoded_Group2_IMG_2245.jpg,0,encoded_Group2_IMG_2245.jpg,,,,,,,,,0.0,13.0,13.0,13.0,,,,,,,,,,,,,,,629.4845548269805,None,,,0,0.6173442089930177,631.9672326699365,None,631.9672326699365,None,,,630.7999902209267,None,,,,,1,2022_Apr_12_1419,Real-fake-judgement-flashing-group1,2021.1.2,59.82985993973882,
167,Trial # 15,Group1-stimuli/group1-block2/fake-group2-b2/encoded_Group2_IMG_0507.jpg,0,encoded_Group2_IMG_0507.jpg,,,,,,,,,0.0,14.0,14.0,14.0,,,,,,,,,,,,,,,632.6169707060326,None,,,1,3.163797828834504,635.0848612210248,None,635.0848612210248,None,,,633.9189306490589,None,,,,,1,2022_Apr_12_1419,Real-fake-judgement-flashing-group1,2021.1.2,59.82985993973882,
168,Trial # 16,Group1-stimuli/group1-block2/fake-group2-b2/encoded_Group2_IMG_0338.jpg,0,encoded_Group2_IMG_0338.jpg,,,,,,,,,0.0,15.0,15.0,15.0,,,,,,,,,,,,,,,638.2705540698953,None,,,0,0.4384900738950819,640.7541569918394,None,640.7541569918394,None,,,639.5706910239533,None,,,,,1,2022_Apr_12_1419,Real-fake-judgement-flashing-group1,2021.1.2,59.82985993973882,
169,Trial # 17,Group1-stimuli/group1-block2/real-group1-b2/Group1_IMG_0376.jpg,1,Group1_IMG_0376.jpg,,,,,,,,,0.0,16.0,16.0,16.0,,,,,,,,,,,,,,,641.2201896158513,None,,,1,0.3840902440715581,643.7044842748437,None,643.7044842748437,None,,,642.5200165649876,None,,,,,1,2022_Apr_12_1419,Real-fake-judgement-flashing-group1,2021.1.2,59.82985993973882,
170,Trial # 18,Group1-stimuli/group1-block2/real-group1-b2/Group1_IMG_9821.jpg,1,Group1_IMG_9821.jpg,,,,,,,,,0.0,17.0,17.0,17.0,,,,,,,,,,,,,,,644.1222048080526,None,,,1,0.6202121269889176,646.5884362920187,None,646.5884362920187,None,,,645.4212561978493,None,,,,,1,2022_Apr_12_1419,Real-fake-judgement-flashing-group1,2021.1.2,59.82985993973882,
171,Trial # 19,Group1-stimuli/group1-block2/fake-group2-b2/encoded_Group2_IMG_0388.jpg,0,encoded_Group2_IMG_0388.jpg,,,,,,,,,0.0,18.0,18.0,18.0,,,,,,,,,,,,,,,647.2390382259618,None,,,1,0.6693938390817493,649.7072692159563,None,649.7072692159563,None,,,648.5400715540163,None,,,,,1,2022_Apr_12_1419,Real-fake-judgement-flashing-group1,2021.1.2,59.82985993973882,
172,Trial # 20,Group1-stimuli/group1-block2/fake-group2-b2/encoded_Group2_IMG_0222.jpg,0,encoded_Group2_IMG_0222.jpg,,,,,,,,,0.0,19.0,19.0,19.0,,,,,,,,,,,,,,,650.4068406110164,None,,,0,0.8950096732005477,652.8736365989316,None,652.8736365989316,None,,,651.706487596035,None,,,,,1,2022_Apr_12_1419,Real-fake-judgement-flashing-group1,2021.1.2,59.82985993973882,
173,Trial # 21,Group1-stimuli/group1-block2/fake-group2-b2/encoded_Group2_IMG_2215.jpg,0,encoded_Group2_IMG_2215.jpg,,,,,,,,,0.0,20.0,20.0,20.0,,,,,,,,,,,,,,,653.7908014380373,None,,,0,0.6385810289066285,656.2580671319738,None,656.2580671319738,None,,,655.0921259480529,None,,,,,1,2022_Apr_12_1419,Real-fake-judgement-flashing-group1,2021.1.2,59.82985993973882,
174,Trial # 22,Group1-stimuli/group1-block2/real-group1-b2/Group1_IMG_9760.jpg,1,Group1_IMG_9760.jpg,,,,,,,,,0.0,21.0,21.0,21.0,,,,,,,,,,,,,,,656.9257932710461,None,,,1,1.9757399030495435,659.3928449938539,None,659.3928449938539,None,,,658.2264541999903,None,,,,,1,2022_Apr_12_1419,Real-fake-judgement-flashing-group1,2021.1.2,59.82985993973882,
175,Trial # 23,Group1-stimuli/group1-block2/real-group1-b2/Group1_IMG_9897.jpg,1,Group1_IMG_9897.jpg,,,,,,,,,0.0,22.0,22.0,22.0,,,,,,,,,,,,,,,661.3928917259909,None,,,1,0.6680870510172099,663.8604941000231,None,663.8604941000231,None,,,662.6933178480249,None,,,,,1,2022_Apr_12_1419,Real-fake-judgement-flashing-group1,2021.1.2,59.82985993973882,
176,Trial # 24,Group1-stimuli/group1-block2/real-group1-b2/Group1_IMG_4250.jpg,1,Group1_IMG_4250.jpg,,,,,,,,,0.0,23.0,23.0,23.0,,,,,,,,,,,,,,,664.5617495409679,None,,,1,0.7086070328950882,667.02804125892,None,667.02804125892,None,,,665.8609418899287,None,,,,,1,2022_Apr_12_1419,Real-fake-judgement-flashing-group1,2021.1.2,59.82985993973882,
177,Trial # 25,Group1-stimuli/group1-block2/real-group1-b2/Group1_IMG_2244.jpg,1,Group1_IMG_2244.jpg,,,,,,,,,0.0,24.0,24.0,24.0,,,,,,,,,,,,,,,667.7661144959275,None,,,1,0.4429508929606527,670.2456978519913,None,670.2456978519913,None,,,669.0631708959118,None,,,,,1,2022_Apr_12_1419,Real-fake-judgement-flashing-group1,2021.1.2,59.82985993973882,
178,Trial # 26,Group1-stimuli/group1-block2/fake-group2-b2/encoded_Group2_IMG_0501.jpg,0,encoded_Group2_IMG_0501.jpg,,,,,,,,,0.0,25.0,25.0,25.0,,,,,,,,,,,,,,,670.7125072940253,None,,,0,0.476271390914917,673.1803760689218,None,673.1803760689218,None,,,672.0128935258836,None,,,,,1,2022_Apr_12_1419,Real-fake-judgement-flashing-group1,2021.1.2,59.82985993973882,
179,Trial # 27,Group1-stimuli/group1-block2/real-group1-b2/Group1_IMG_9684.jpg,1,Group1_IMG_9684.jpg,,,,,,,,,0.0,26.0,26.0,26.0,,,,,,,,,,,,,,,673.6806024699472,None,,,1,0.5330551629886031,676.1475891158916,None,676.1475891158916,None,,,674.9804012719542,None,,,,,1,2022_Apr_12_1419,Real-fake-judgement-flashing-group1,2021.1.2,59.82985993973882,
180,Trial # 28,Group1-stimuli/group1-block2/real-group1-b2/Group1_IMG_1039.jpg,1,Group1_IMG_1039.jpg,,,,,,,,,0.0,27.0,27.0,27.0,,,,,,,,,,,,,,,676.6978585990146,None,,,1,0.4833037259522825,679.1653314679861,None,679.1653314679861,None,,,677.9979931009002,None,,,,,1,2022_Apr_12_1419,Real-fake-judgement-flashing-group1,2021.1.2,59.82985993973882,
181,Trial # 29,Group1-stimuli/group1-block2/fake-group2-b2/encoded_Group2_IMG_0251.jpg,0,encoded_Group2_IMG_0251.jpg,,,,,,,,,0.0,28.0,28.0,28.0,,,,,,,,,,,,,,,679.6653676270507,None,,,0,0.2913541209418326,682.1493272089865,None,682.1493272089865,None,,,680.965905433055,None,,,,,1,2022_Apr_12_1419,Real-fake-judgement-flashing-group1,2021.1.2,59.82985993973882,
182,Trial # 30,Group1-stimuli/group1-block2/real-group1-b2/Group1_IMG_9692.jpg,1,Group1_IMG_9692.jpg,,,,,,,,,0.0,29.0,29.0,29.0,,,,,,,,,,,,,,,682.4664079109207,None,,,1,0.5458227850031108,684.9348112440202,None,684.9348112440202,None,,,683.767650431022,None,,,,,1,2022_Apr_12_1419,Real-fake-judgement-flashing-group1,2021.1.2,59.82985993973882,
183,Trial # 31,Group1-stimuli/group1-block2/real-group1-b2/Group1_IMG_0512.jpg,1,Group1_IMG_0512.jpg,,,,,,,,,0.0,30.0,30.0,30.0,,,,,,,,,,,,,,,685.5005834458862,None,,,1,1.2087536118924618,687.9678936270066,None,687.9678936270066,None,,,686.8012801278383,None,,,,,1,2022_Apr_12_1419,Real-fake-judgement-flashing-group1,2021.1.2,59.82985993973882,
184,Trial # 32,Group1-stimuli/group1-block2/fake-group2-b2/encoded_Group2_IMG_9673.jpg,0,encoded_Group2_IMG_9673.jpg,,,,,,,,,0.0,31.0,31.0,31.0,,,,,,,,,,,,,,,689.2027575110551,None,,,0,0.3883105830755085,691.6523380868603,None,691.6523380868603,None,,,690.485292411875,None,,,,,1,2022_Apr_12_1419,Real-fake-judgement-flashing-group1,2021.1.2,59.82985993973882,
185,Trial # 33,Group1-stimuli/group1-block2/fake-group2-b2/encoded_Group2_IMG_5135.jpg,0,encoded_Group2_IMG_5135.jpg,,,,,,,,,0.0,32.0,32.0,32.0,,,,,,,,,,,,,,,692.0688616619445,None,,,0,0.7828557309694588,694.5377201200463,None,694.5377201200463,None,,,693.3706229859963,None,,,,,1,2022_Apr_12_1419,Real-fake-judgement-flashing-group1,2021.1.2,59.82985993973882,
186,Trial # 34,Group1-stimuli/group1-block2/real-group1-b2/Group1_IMG_0396.jpg,1,Group1_IMG_0396.jpg,,,,,,,,,0.0,33.0,33.0,33.0,,,,,,,,,,,,,,,695.3537842819933,None,,,1,0.8038020262029022,697.8208461359609,None,697.8208461359609,None,,,696.6537984630559,None,,,,,1,2022_Apr_12_1419,Real-fake-judgement-flashing-group1,2021.1.2,59.82985993973882,
187,Trial # 35,Group1-stimuli/group1-block2/real-group1-b2/Group1_IMG_4919.jpg,1,Group1_IMG_4919.jpg,,,,,,,,,0.0,34.0,34.0,34.0,,,,,,,,,,,,,,,698.6556611259002,None,,,0,2.287006160011515,701.1216693229508,None,701.1216693229508,None,,,699.9551791269332,None,,,,,1,2022_Apr_12_1419,Real-fake-judgement-flashing-group1,2021.1.2,59.82985993973882,
188,Trial # 36,Group1-stimuli/group1-block2/real-group1-b2/Group1_IMG_0449.jpg,1,Group1_IMG_0449.jpg,,,,,,,,,0.0,35.0,35.0,35.0,,,,,,,,,,,,,,,703.4407950078603,None,,,1,0.5098563800565898,705.9068393870257,None,705.9068393870257,None,,,704.740811672993,None,,,,,1,2022_Apr_12_1419,Real-fake-judgement-flashing-group1,2021.1.2,59.82985993973882,
189,Trial # 37,Group1-stimuli/group1-block2/fake-group2-b2/encoded_Group2_IMG_0539.jpg,0,encoded_Group2_IMG_0539.jpg,,,,,,,,,0.0,36.0,36.0,36.0,,,,,,,,,,,,,,,706.4405687728431,None,,,0,1.3165819870773705,708.9080985048786,None,708.9080985048786,None,,,707.7401844840497,None,,,,,1,2022_Apr_12_1419,Real-fake-judgement-flashing-group1,2021.1.2,59.82985993973882,
190,Trial # 38,Group1-stimuli/group1-block2/real-group1-b2/Group1_IMG_0453.jpg,1,Group1_IMG_0453.jpg,,,,,,,,,0.0,37.0,37.0,37.0,,,,,,,,,,,,,,,710.241794795962,None,,,1,0.907425815006718,712.7092221388593,None,712.7092221388593,None,,,711.5417111490387,None,,,,,1,2022_Apr_12_1419,Real-fake-judgement-flashing-group1,2021.1.2,59.82985993973882,
191,Trial # 39,Group1-stimuli/group1-block2/fake-group2-b2/encoded_Group2_IMG_0318.jpg,0,encoded_Group2_IMG_0318.jpg,,,,,,,,,0.0,38.0,38.0,38.0,,,,,,,,,,,,,,,713.6436134260148,None,,,1,0.5699697029776871,716.1106779919937,None,716.1106779919937,None,,,714.9427911129314,None,,,,,1,2022_Apr_12_1419,Real-fake-judgement-flashing-group1,2021.1.2,59.82985993973882,
192,Trial # 40,Group1-stimuli/group1-block2/real-group1-b2/Group1_IMG_1678.jpg,1,Group1_IMG_1678.jpg,,,,,,,,,0.0,39.0,39.0,39.0,,,,,,,,,,,,,,,716.7099079850595,None,,,1,0.3907353898975998,719.1779109549243,None,719.1779109549243,None,,,718.0097698918544,None,,,,,1,2022_Apr_12_1419,Real-fake-judgement-flashing-group1,2021.1.2,59.82985993973882,
193,Trial # 41,Group1-stimuli/group1-block2/fake-group2-b2/encoded_Group2_IMG_0325.jpg,0,encoded_Group2_IMG_0325.jpg,,,,,,,,,0.0,40.0,40.0,40.0,,,,,,,,,,,,,,,719.5946727320552,None,,,0,0.6270248789805919,722.0616204410326,None,722.0616204410326,None,,,720.8945772938896,None,,,,,1,2022_Apr_12_1419,Real-fake-judgement-flashing-group1,2021.1.2,59.82985993973882,
194,Trial # 42,Group1-stimuli/group1-block2/fake-group2-b2/encoded_Group2_IMG_9935.jpg,0,encoded_Group2_IMG_9935.jpg,,,,,,,,,0.0,41.0,41.0,41.0,,,,,,,,,,,,,,,722.7119010319002,None,,,1,0.7332737960387021,725.1793802268803,None,725.1793802268803,None,,,724.0136332118418,None,,,,,1,2022_Apr_12_1419,Real-fake-judgement-flashing-group1,2021.1.2,59.82985993973882,
195,Trial # 43,Group1-stimuli/group1-block2/fake-group2-b2/encoded_Group2_IMG_0308.jpg,0,encoded_Group2_IMG_0308.jpg,,,,,,,,,0.0,42.0,42.0,42.0,,,,,,,,,,,,,,,725.9297955208458,None,,,0,0.4594281951431185,728.3972581289709,None,728.3972581289709,None,,,727.2295267160516,None,,,,,1,2022_Apr_12_1419,Real-fake-judgement-flashing-group1,2021.1.2,59.82985993973882,
196,Trial # 44,Group1-stimuli/group1-block2/real-group1-b2/Group1_IMG_0467.jpg,1,Group1_IMG_0467.jpg,,,,,,,,,0.0,43.0,43.0,43.0,,,,,,,,,,,,,,,728.8815925798845,None,,,1,0.4607661128975451,731.3478809900116,None,731.3478809900116,None,,,730.1820101628546,None,,,,,1,2022_Apr_12_1419,Real-fake-judgement-flashing-group1,2021.1.2,59.82985993973882,
197,Trial # 45,Group1-stimuli/group1-block2/fake-group2-b2/encoded_Group2_IMG_9839.jpg,0,encoded_Group2_IMG_9839.jpg,,,,,,,,,0.0,44.0,44.0,44.0,,,,,,,,,,,,,,,731.8314448108431,None,,,1,1.4855948048643768,734.2990534179844,None,734.2990534179844,None,,,733.1323452258948,None,,,,,1,2022_Apr_12_1419,Real-fake-judgement-flashing-group1,2021.1.2,59.82985993973882,
198,Trial # 46,Group1-stimuli/group1-block2/fake-group2-b2/encoded_Group2_IMG_9681.jpg,0,encoded_Group2_IMG_9681.jpg,,,,,,,,,0.0,45.0,45.0,45.0,,,,,,,,,,,,,,,735.815835194895,None,,,0,0.8209450130816549,738.2837030298542,None,738.2837030298542,None,,,737.1157971669454,None,,,,,1,2022_Apr_12_1419,Real-fake-judgement-flashing-group1,2021.1.2,59.82985993973882,
199,Trial # 47,Group1-stimuli/group1-block2/fake-group2-b2/encoded_Group2_IMG_0458.jpg,0,encoded_Group2_IMG_0458.jpg,,,,,,,,,0.0,46.0,46.0,46.0,,,,,,,,,,,,,,,739.1346942998935,None,,,1,0.7275168050546199,741.6011307139415,None,741.6011307139415,None,,,740.4339022368658,None,,,,,1,2022_Apr_12_1419,Real-fake-judgement-flashing-group1,2021.1.2,59.82985993973882,
200,Trial # 48,Group1-stimuli/group1-block2/real-group1-b2/Group1_IMG_1095.jpg,1,Group1_IMG_1095.jpg,,,,,,,,,0.0,47.0,47.0,47.0,,,,,,,,,,,,,,,742.3512586359866,None,,,0,1.461488245986402,744.8191791910212,None,744.8191791910212,None,,,743.6527624810115,None,,,,,1,2022_Apr_12_1419,Real-fake-judgement-flashing-group1,2021.1.2,59.82985993973882,
201,Trial # 49,Group1-stimuli/group1-block2/fake-group2-b2/encoded_Group2_IMG_9710.jpg,0,encoded_Group2_IMG_9710.jpg,,,,,,,,,0.0,48.0,48.0,48.0,,,,,,,,,,,,,,,746.3026428059675,None,,,0,0.5409611200448126,748.787734186044,None,748.787734186044,None,,,747.6023334418423,None,,,,,1,2022_Apr_12_1419,Real-fake-judgement-flashing-group1,2021.1.2,59.82985993973882,
202,Trial # 50,Group1-stimuli/group1-block2/fake-group2-b2/encoded_Group2_IMG_9819.jpg,0,encoded_Group2_IMG_9819.jpg,,,,,,,,,0.0,49.0,49.0,49.0,,,,,,,,,,,,,,,749.3547266419046,None,,,0,0.4037437960505485,751.8209034679458,None,751.8209034679458,None,,,750.6538072398398,None,,,,,1,2022_Apr_12_1419,Real-fake-judgement-flashing-group1,2021.1.2,59.82985993973882,
203,Trial # 51,Group1-stimuli/group1-block2/real-group1-b2/Group1_IMG_0064.jpg,1,Group1_IMG_0064.jpg,,,,,,,,,0.0,50.0,50.0,50.0,,,,,,,,,,,,,,,752.2543058339506,None,,,1,0.4450815480668098,754.7395658649039,None,754.7395658649039,None,,,753.5558027159423,None,,,,,1,2022_Apr_12_1419,Real-fake-judgement-flashing-group1,2021.1.2,59.82985993973882,
204,Trial # 52,Group1-stimuli/group1-block2/fake-group2-b2/encoded_Group2_IMG_9756.jpg,0,encoded_Group2_IMG_9756.jpg,,,,,,,,,0.0,51.0,51.0,51.0,,,,,,,,,,,,,,,755.2052526269108,None,,,1,0.5679686439689249,757.6726381620392,None,757.6726381620392,None,,,756.5055620030034,None,,,,,1,2022_Apr_12_1419,Real-fake-judgement-flashing-group1,2021.1.2,59.82985993973882,
205,Trial # 53,Group1-stimuli/group1-block2/fake-group2-b2/encoded_Group2_IMG_5888.jpg,0,encoded_Group2_IMG_5888.jpg,,,,,,,,,0.0,52.0,52.0,52.0,,,,,,,,,,,,,,,758.257459111046,None,,,1,0.9563576939981432,760.7403270818759,None,760.7403270818759,None,,,759.5577778089792,None,,,,,1,2022_Apr_12_1419,Real-fake-judgement-flashing-group1,2021.1.2,59.82985993973882,
206,Trial # 54,Group1-stimuli/group1-block2/real-group1-b2/Group1_IMG_1476.jpg,1,Group1_IMG_1476.jpg,,,,,,,,,0.0,53.0,53.0,53.0,,,,,,,,,,,,,,,761.7240056260489,None,,,1,0.8560210820287466,764.1926257289015,None,764.1926257289015,None,,,763.024130082922,None,,,,,1,2022_Apr_12_1419,Real-fake-judgement-flashing-group1,2021.1.2,59.82985993973882,
207,Trial # 55,Group1-stimuli/group1-block2/real-group1-b2/Group1_IMG_1917.jpg,1,Group1_IMG_1917.jpg,,,,,,,,,0.0,54.0,54.0,54.0,,,,,,,,,,,,,,,765.0761915170588,None,,,1,0.9534101258032024,767.559236112982,None,767.559236112982,None,,,766.3919979389757,None,,,,,1,2022_Apr_12_1419,Real-fake-judgement-flashing-group1,2021.1.2,59.82985993973882,
208,Trial # 56,Group1-stimuli/group1-block2/real-group1-b2/Group1_IMG_0413.jpg,1,Group1_IMG_0413.jpg,,,,,,,,,0.0,55.0,55.0,55.0,,,,,,,,,,,,,,,768.5439839349128,None,,,1,0.7343952311202884,771.0101908668876,None,771.0101908668876,None,,,769.8442209910136,None,,,,,1,2022_Apr_12_1419,Real-fake-judgement-flashing-group1,2021.1.2,59.82985993973882,
209,Trial # 57,Group1-stimuli/group1-block2/real-group1-b2/Group1_IMG_1001.jpg,1,Group1_IMG_1001.jpg,,,,,,,,,0.0,56.0,56.0,56.0,,,,,,,,,,,,,,,771.7773348998744,None,,,1,0.3467685529030859,774.245833654888,None,774.245833654888,None,,,773.077829523012,None,,,,,1,2022_Apr_12_1419,Real-fake-judgement-flashing-group1,2021.1.2,59.82985993973882,
210,Trial # 58,Group1-stimuli/group1-block2/fake-group2-b2/encoded_Group2_IMG_0441.jpg,0,encoded_Group2_IMG_0441.jpg,,,,,,,,,0.0,57.0,57.0,57.0,,,,,,,,,,,,,,,774.6126971698832,None,,,1,0.4740940339397639,777.0786005340051,None,777.0786005340051,None,,,775.9115752528887,None,,,,,1,2022_Apr_12_1419,Real-fake-judgement-flashing-group1,2021.1.2,59.82985993973882,
211,Trial # 59,Group1-stimuli/group1-block2/real-group1-b2/Group1_IMG_9774.jpg,1,Group1_IMG_9774.jpg,,,,,,,,,0.0,58.0,58.0,58.0,,,,,,,,,,,,,,,777.5788931169081,None,,,0,0.5445353188551962,780.0641130409203,None,780.0641130409203,None,,,778.8805938239675,None,,,,,1,2022_Apr_12_1419,Real-fake-judgement-flashing-group1,2021.1.2,59.82985993973882,
212,Trial # 60,Group1-stimuli/group1-block2/fake-group2-b2/encoded_Group2_IMG_2751.jpg,0,encoded_Group2_IMG_2751.jpg,,,,,,,,,0.0,59.0,59.0,59.0,,,,,,,,,,,,,,,780.6298290770501,None,,,0,1.0556422928348184,783.0810049958527,None,783.0810049958527,None,,,781.9134089699946,None,,,,,1,2022_Apr_12_1419,Real-fake-judgement-flashing-group1,2021.1.2,59.82985993973882,
213,Trial # 61,Group1-stimuli/group1-block2/fake-group2-b2/encoded_Group2_IMG_0409.jpg,0,encoded_Group2_IMG_0409.jpg,,,,,,,,,0.0,60.0,60.0,60.0,,,,,,,,,,,,,,,784.1658069209661,None,,,1,0.4323061490431428,786.6482693129219,None,786.6482693129219,None,,,785.4812003448606,None,,,,,1,2022_Apr_12_1419,Real-fake-judgement-flashing-group1,2021.1.2,59.82985993973882,
214,Trial # 62,Group1-stimuli/group1-block2/real-group1-b2/Group1_IMG_1346.jpg,1,Group1_IMG_1346.jpg,,,,,,,,,0.0,61.0,61.0,61.0,,,,,,,,,,,,,,,787.0985284359194,None,,,1,0.6168858108576387,789.5836957900319,None,789.5836957900319,None,,,788.3998430659994,None,,,,,1,2022_Apr_12_1419,Real-fake-judgement-flashing-group1,2021.1.2,59.82985993973882,
215,Trial # 63,Group1-stimuli/group1-block2/real-group1-b2/Group1_IMG_0481.jpg,1,Group1_IMG_0481.jpg,,,,,,,,,0.0,62.0,62.0,62.0,,,,,,,,,,,,,,,790.2328375359066,None,,,1,0.8604199541732669,792.7002274019178,None,792.7002274019178,None,,,791.5330821508542,None,,,,,1,2022_Apr_12_1419,Real-fake-judgement-flashing-group1,2021.1.2,59.82985993973882,
216,Trial # 64,Group1-stimuli/group1-block2/fake-group2-b2/encoded_Group2_IMG_4718.jpg,0,encoded_Group2_IMG_4718.jpg,,,,,,,,,0.0,63.0,63.0,63.0,,,,,,,,,,,,,,,793.5852110148408,None,,,0,0.5093767608050257,796.0512813429814,None,796.0512813429814,None,,,794.8841043580323,None,,,,,1,2022_Apr_12_1419,Real-fake-judgement-flashing-group1,2021.1.2,59.82985993973882,
217,Trial # 65,Group1-stimuli/group1-block2/real-group1-b2/Group1_IMG_0540.jpg,1,Group1_IMG_0540.jpg,,,,,,,,,0.0,64.0,64.0,64.0,,,,,,,,,,,,,,,796.5848768870346,None,,,1,0.6363093019463122,799.0523257700261,None,799.0523257700261,None,,,797.8847944028676,None,,,,,1,2022_Apr_12_1419,Real-fake-judgement-flashing-group1,2021.1.2,59.82985993973882,
218,Trial # 66,Group1-stimuli/group1-block2/fake-group2-b2/encoded_Group2_IMG_0166.jpg,0,encoded_Group2_IMG_0166.jpg,,,,,,,,,0.0,65.0,65.0,65.0,,,,,,,,,,,,,,,799.7203261409886,None,,,0,0.4304835661314428,802.1861578039825,None,802.1861578039825,None,,,801.0196135828737,None,,,,,1,2022_Apr_12_1419,Real-fake-judgement-flashing-group1,2021.1.2,59.82985993973882,
219,Trial # 67,Group1-stimuli/group1-block2/fake-group2-b2/encoded_Group2_IMG_0412.jpg,0,encoded_Group2_IMG_0412.jpg,,,,,,,,,0.0,66.0,66.0,66.0,,,,,,,,,,,,,,,802.6364775639959,None,,,0,0.5766528539825231,805.1040059658699,None,805.1040059658699,None,,,803.9380592368543,None,,,,,1,2022_Apr_12_1419,Real-fake-judgement-flashing-group1,2021.1.2,59.82985993973882,
220,Trial # 68,Group1-stimuli/group1-block2/real-group1-b2/Group1_IMG_0485.jpg,1,Group1_IMG_0485.jpg,,,,,,,,,0.0,67.0,67.0,67.0,,,,,,,,,,,,,,,805.7043812070042,None,,,1,0.5798125790897757,808.1728852060623,None,808.1728852060623,None,,,807.0045214779675,None,,,,,1,2022_Apr_12_1419,Real-fake-judgement-flashing-group1,2021.1.2,59.82985993973882,
221,Trial # 69,Group1-stimuli/group1-block2/fake-group2-b2/encoded_Group2_IMG_1495.jpg,0,encoded_Group2_IMG_1495.jpg,,,,,,,,,0.0,68.0,68.0,68.0,,,,,,,,,,,,,,,808.7731185839511,None,,,0,0.5374924810603261,811.239156562835,None,811.239156562835,None,,,810.0733399309684,None,,,,,1,2022_Apr_12_1419,Real-fake-judgement-flashing-group1,2021.1.2,59.82985993973882,
222,Trial # 70,Group1-stimuli/group1-block2/real-group1-b2/Group1_IMG_0426.jpg,1,Group1_IMG_0426.jpg,,,,,,,,,0.0,69.0,69.0,69.0,,,,,,,,,,,,,,,811.805915737059,None,,,1,0.4780251930933445,814.2746321109589,None,814.2746321109589,None,,,813.1076208229642,None,,,,,1,2022_Apr_12_1419,Real-fake-judgement-flashing-group1,2021.1.2,59.82985993973882,
223,Trial # 71,Group1-stimuli/group1-block2/real-group1-b2/Group1_IMG_0349.jpg,1,Group1_IMG_0349.jpg,,,,,,,,,0.0,70.0,70.0,70.0,,,,,,,,,,,,,,,814.7749803918414,None,,,1,0.5748670930042863,817.2577803249005,None,817.2577803249005,None,,,816.0905545658898,None,,,,,1,2022_Apr_12_1419,Real-fake-judgement-flashing-group1,2021.1.2,59.82985993973882,
224,Trial # 72,Group1-stimuli/group1-block2/real-group1-b2/Group1_IMG_0414.jpg,1,Group1_IMG_0414.jpg,,,,,,,,,0.0,71.0,71.0,71.0,,,,,,,,,,,,,,,817.8576863799244,None,,,1,0.8271833499893546,820.3254636430647,None,820.3254636430647,None,,,819.1595375810284,None,,,,,1,2022_Apr_12_1419,Real-fake-judgement-flashing-group1,2021.1.2,59.82985993973882,
225,Trial # 73,Group1-stimuli/group1-block2/fake-group2-b2/encoded_Group2_IMG_9856.jpg,0,encoded_Group2_IMG_9856.jpg,,,,,,,,,0.0,72.0,72.0,72.0,,,,,,,,,,,,,,,821.1757571529597,None,,,0,0.5096816581208259,823.6269662459381,None,823.6269662459381,None,,,822.4593706838787,None,,,,,1,2022_Apr_12_1419,Real-fake-judgement-flashing-group1,2021.1.2,59.82985993973882,
226,Trial # 74,Group1-stimuli/group1-block2/fake-group2-b2/encoded_Group2_IMG_5313.jpg,0,encoded_Group2_IMG_5313.jpg,,,,,,,,,0.0,73.0,73.0,73.0,,,,,,,,,,,,,,,824.1605739980005,None,,,0,0.6615854089614004,826.6270650818478,None,826.6270650818478,None,,,825.4602783028968,None,,,,,1,2022_Apr_12_1419,Real-fake-judgement-flashing-group1,2021.1.2,59.82985993973882,
227,Trial # 75,Group1-stimuli/group1-block2/fake-group2-b2/encoded_Group2_IMG_0421.jpg,0,encoded_Group2_IMG_0421.jpg,,,,,,,,,0.0,74.0,74.0,74.0,,,,,,,,,,,,,,,827.3154119160026,None,,,1,0.9005565971601754,829.7960800288711,None,829.7960800288711,None,,,828.6290934279095,None,,,,,1,2022_Apr_12_1419,Real-fake-judgement-flashing-group1,2021.1.2,59.82985993973882,
228,Trial # 76,Group1-stimuli/group1-block2/fake-group2-b2/encoded_Group2_IMG_0446.jpg,0,encoded_Group2_IMG_0446.jpg,,,,,,,,,0.0,75.0,75.0,75.0,,,,,,,,,,,,,,,830.7290806518868,None,,,0,0.4913987901527434,833.1972488248721,None,833.1972488248721,None,,,832.0289560689125,None,,,,,1,2022_Apr_12_1419,Real-fake-judgement-flashing-group1,2021.1.2,59.82985993973882,
229,Trial # 77,Group1-stimuli/group1-block2/real-group1-b2/Group1_IMG_5999.jpg,1,Group1_IMG_5999.jpg,,,,,,,,,0.0,76.0,76.0,76.0,,,,,,,,,,,,,,,833.7141296318732,None,,,1,0.7324097740929574,836.1801776608918,None,836.1801776608918,None,,,835.013608584879,None,,,,,1,2022_Apr_12_1419,Real-fake-judgement-flashing-group1,2021.1.2,59.82985993973882,
230,Trial # 78,Group1-stimuli/group1-block2/real-group1-b2/Group1_IMG_0107.jpg,1,Group1_IMG_0107.jpg,,,,,,,,,0.0,77.0,77.0,77.0,,,,,,,,,,,,,,,836.931077180896,None,,,1,0.7448480669409037,839.4158057610039,None,839.4158057610039,None,,,838.2320406618528,None,,,,,1,2022_Apr_12_1419,Real-fake-judgement-flashing-group1,2021.1.2,59.82985993973882,
231,Trial # 79,Group1-stimuli/group1-block2/fake-group2-b2/encoded_Group2_IMG_0322.jpg,0,encoded_Group2_IMG_0322.jpg,,,,,,,,,0.0,78.0,78.0,78.0,,,,,,,,,,,,,,,840.1818825639784,None,,,1,0.6551743191666901,842.6654730339069,None,842.6654730339069,None,,,841.4817876429297,None,,,,,1,2022_Apr_12_1419,Real-fake-judgement-flashing-group1,2021.1.2,59.82985993973882,
232,Trial # 80,Group1-stimuli/group1-block2/fake-group2-b2/encoded_Group2_IMG_4255.jpg,0,encoded_Group2_IMG_4255.jpg,,,,,,,,,0.0,79.0,79.0,79.0,,,,,,,,,,,,,,,843.3503666159231,None,,,0,0.4961782400496304,845.8164685959928,None,845.8164685959928,None,,,844.6506739719771,None,,,,,1,2022_Apr_12_1419,Real-fake-judgement-flashing-group1,2021.1.2,59.82985993973882,
233,Trial # 81,Group1-stimuli/group1-block2/fake-group2-b2/encoded_Group2_IMG_0219.jpg,0,encoded_Group2_IMG_0219.jpg,,,,,,,,,0.0,80.0,80.0,80.0,,,,,,,,,,,,,,,846.3334979340434,None,,,1,3.150548074860126,848.8020497518592,None,848.8020497518592,None,,,847.6337627649773,None,,,,,1,2022_Apr_12_1419,Real-fake-judgement-flashing-group1,2021.1.2,59.82985993973882,
234,Trial # 82,Group1-stimuli/group1-block2/real-group1-b2/Group1_IMG_0548.jpg,1,Group1_IMG_0548.jpg,,,,,,,,,0.0,81.0,81.0,81.0,,,,,,,,,,,,,,,851.9849233459681,None,,,1,0.5068167399149388,854.4538469889667,None,854.4538469889667,None,,,853.2863973788917,None,,,,,1,2022_Apr_12_1419,Real-fake-judgement-flashing-group1,2021.1.2,59.82985993973882,
235,Trial # 83,Group1-stimuli/group1-block2/real-group1-b2/Group1_IMG_0229.jpg,1,Group1_IMG_0229.jpg,,,,,,,,,0.0,82.0,82.0,82.0,,,,,,,,,,,,,,,854.9872586240526,None,,,0,0.8830331889912486,857.4536273039412,None,857.4536273039412,None,,,856.286409902852,None,,,,,1,2022_Apr_12_1419,Real-fake-judgement-flashing-group1,2021.1.2,59.82985993973882,
236,Trial # 84,Group1-stimuli/group1-block2/fake-group2-b2/encoded_Group2_IMG_0365.jpg,0,encoded_Group2_IMG_0365.jpg,,,,,,,,,0.0,83.0,83.0,83.0,,,,,,,,,,,,,,,858.355126327835,None,,,0,0.8112960599828511,860.8213504350279,None,860.8213504350279,None,,,859.6552713098936,None,,,,,1,2022_Apr_12_1419,Real-fake-judgement-flashing-group1,2021.1.2,59.82985993973882,
237,Trial # 85,Group1-stimuli/group1-block2/real-group1-b2/Group1_IMG_9822.jpg,1,Group1_IMG_9822.jpg,,,,,,,,,0.0,84.0,84.0,84.0,,,,,,,,,,,,,,,861.6549292700365,None,,,1,0.6692223590798676,864.1234259370249,None,864.1234259370249,None,,,862.9550961488858,None,,,,,1,2022_Apr_12_1419,Real-fake-judgement-flashing-group1,2021.1.2,59.82985993973882,
238,Trial # 86,Group1-stimuli/group1-block2/fake-group2-b2/encoded_Group2_IMG_0195.jpg,0,encoded_Group2_IMG_0195.jpg,,,,,,,,,0.0,85.0,85.0,85.0,,,,,,,,,,,,,,,864.8238391650375,None,,,0,1.422205574112013,867.306442553876,None,867.306442553876,None,,,866.1396605209447,None,,,,,1,2022_Apr_12_1419,Real-fake-judgement-flashing-group1,2021.1.2,59.82985993973882,
239,Trial # 87,Group1-stimuli/group1-block2/fake-group2-b2/encoded_Group2_IMG_0494.jpg,0,encoded_Group2_IMG_0494.jpg,,,,,,,,,0.0,86.0,86.0,86.0,,,,,,,,,,,,,,,868.7585052370559,None,,,0,0.6483122070785612,871.2242672469001,None,871.2242672469001,None,,,870.0585865620524,None,,,,,1,2022_Apr_12_1419,Real-fake-judgement-flashing-group1,2021.1.2,59.82985993973882,
240,Trial # 88,Group1-stimuli/group1-block2/real-group1-b2/Group1_IMG_0509.jpg,1,Group1_IMG_0509.jpg,,,,,,,,,0.0,87.0,87.0,87.0,,,,,,,,,,,,,,,871.8909376808442,None,,,1,0.4487651521340012,874.3598925629631,None,874.3598925629631,None,,,873.1928482879885,None,,,,,1,2022_Apr_12_1419,Real-fake-judgement-flashing-group1,2021.1.2,59.82985993973882,
241,Trial # 89,Group1-stimuli/group1-block2/fake-group2-b2/encoded_Group2_IMG_8924.jpg,0,encoded_Group2_IMG_8924.jpg,,,,,,,,,0.0,88.0,88.0,88.0,,,,,,,,,,,,,,,874.825700606918,None,,,0,0.5994222781155258,877.2972002478782,None,877.2972002478782,None,,,876.1258909518365,None,,,,,1,2022_Apr_12_1419,Real-fake-judgement-flashing-group1,2021.1.2,59.82985993973882,
242,Trial # 90,Group1-stimuli/group1-block2/real-group1-b2/Group1_IMG_0360.jpg,1,Group1_IMG_0360.jpg,,,,,,,,,0.0,89.0,89.0,89.0,,,,,,,,,,,,,,,877.9141050148755,None,,,0,0.3821861480828374,880.4104817239568,None,880.4104817239568,None,,,879.2280149778817,None,,,,,1,2022_Apr_12_1419,Real-fake-judgement-flashing-group1,2021.1.2,59.82985993973882,
243,Trial # 91,Group1-stimuli/group1-block2/fake-group2-b2/encoded_Group2_IMG_0523.jpg,0,encoded_Group2_IMG_0523.jpg,,,,,,,,,0.0,90.0,90.0,90.0,,,,,,,,,,,,,,,880.8118055509403,None,,,1,0.3458817179780453,883.2787644108757,None,883.2787644108757,None,,,882.111115491949,None,,,,,1,2022_Apr_12_1419,Real-fake-judgement-flashing-group1,2021.1.2,59.82985993973882,
244,Trial # 92,Group1-stimuli/group1-block2/real-group1-b2/Group1_IMG_0518.jpg,1,Group1_IMG_0518.jpg,,,,,,,,,0.0,91.0,91.0,91.0,,,,,,,,,,,,,,,883.6456850599498,None,,,1,0.50426523713395,886.1124043490272,None,886.1124043490272,None,,,884.9453109169845,None,,,,,1,2022_Apr_12_1419,Real-fake-judgement-flashing-group1,2021.1.2,59.82985993973882,
245,Trial # 93,Group1-stimuli/group1-block2/fake-group2-b2/encoded_Group2_IMG_0372.jpg,0,encoded_Group2_IMG_0372.jpg,,,,,,,,,0.0,92.0,92.0,92.0,,,,,,,,,,,,,,,886.64596019499,None,,,1,0.3590107262134552,889.1136874989606,None,889.1136874989606,None,,,887.9461960669141,None,,,,,1,2022_Apr_12_1419,Real-fake-judgement-flashing-group1,2021.1.2,59.82985993973882,
246,Trial # 94,Group1-stimuli/group1-block2/fake-group2-b2/encoded_Group2_IMG_9761.jpg,0,encoded_Group2_IMG_9761.jpg,,,,,,,,,0.0,93.0,93.0,93.0,,,,,,,,,,,,,,,889.4980182079598,None,,,0,0.4603255919646472,891.9642935129814,None,891.9642935129814,None,,,890.7970991500188,None,,,,,1,2022_Apr_12_1419,Real-fake-judgement-flashing-group1,2021.1.2,59.82985993973882,
247,Trial # 95,Group1-stimuli/group1-block2/real-group1-b2/Group1_IMG_2690.jpg,1,Group1_IMG_2690.jpg,,,,,,,,,0.0,94.0,94.0,94.0,,,,,,,,,,,,,,,892.447584538022,None,,,1,0.4128525729756802,894.9317950899713,None,894.9317950899713,None,,,893.7491987398826,None,,,,,1,2022_Apr_12_1419,Real-fake-judgement-flashing-group1,2021.1.2,59.82985993973882,
248,Trial # 96,Group1-stimuli/group1-block2/real-group1-b2/Group1_IMG_9855.jpg,1,Group1_IMG_9855.jpg,,,,,,,,,0.0,95.0,95.0,95.0,,,,,,,,,,,,,,,895.3651755489409,None,,,0,0.4151243979576975,897.8495192339178,None,897.8495192339178,None,,,896.6655724269804,None,,,,,1,2022_Apr_12_1419,Real-fake-judgement-flashing-group1,2021.1.2,59.82985993973882,
249,Trial # 97,Group1-stimuli/group1-block2/fake-group2-b2/encoded_Group2_IMG_0470.jpg,0,encoded_Group2_IMG_0470.jpg,,,,,,,,,0.0,96.0,96.0,96.0,,,,,,,,,,,,,,,898.2843179430347,None,,,0,0.4822907987982034,900.7503501269966,None,900.7503501269966,None,,,899.5832025299314,None,,,,,1,2022_Apr_12_1419,Real-fake-judgement-flashing-group1,2021.1.2,59.82985993973882,
250,Trial # 98,Group1-stimuli/group1-block2/fake-group2-b2/encoded_Group2_IMG_1191.jpg,0,encoded_Group2_IMG_1191.jpg,,,,,,,,,0.0,97.0,97.0,97.0,,,,,,,,,,,,,,,901.2502289258408,None,,,1,0.4335307409055531,903.7190699628554,None,903.7190699628554,None,,,902.5507027138956,None,,,,,1,2022_Apr_12_1419,Real-fake-judgement-flashing-group1,2021.1.2,59.82985993973882,
251,Trial # 99,Group1-stimuli/group1-block2/real-group1-b2/Group1_IMG_9937.jpg,1,Group1_IMG_9937.jpg,,,,,,,,,0.0,98.0,98.0,98.0,,,,,,,,,,,,,,,904.1682653520256,None,,,1,0.4767206809483468,906.6519262338988,None,906.6519262338988,None,,,905.4683389898856,None,,,,,1,2022_Apr_12_1419,Real-fake-judgement-flashing-group1,2021.1.2,59.82985993973882,
252,Trial # 100,Group1-stimuli/group1-block2/fake-group2-b2/encoded_Group2_IMG_0106.jpg,0,encoded_Group2_IMG_0106.jpg,,,,,,,,,0.0,99.0,99.0,99.0,,,,,,,,,,,,,,,907.1521717270372,None,,,0,0.2437143600545823,909.620927992044,None,909.620927992044,None,,,908.4537583859636,None,,,,,1,2022_Apr_12_1419,Real-fake-judgement-flashing-group1,2021.1.2,59.82985993973882,
253,Trial # 101,Group1-stimuli/group1-block2/real-group1-b2/Group1_IMG_2790.jpg,1,Group1_IMG_2790.jpg,,,,,,,,,0.0,100.0,100.0,100.0,,,,,,,,,,,,,,,909.8864220038522,None,,,1,0.8229193789884448,912.3537520328535,None,912.3537520328535,None,,,911.1870185909792,None,,,,,1,2022_Apr_12_1419,Real-fake-judgement-flashing-group1,2021.1.2,59.82985993973882,
254,Trial # 102,Group1-stimuli/group1-block2/real-group1-b2/Group1_IMG_9792.jpg,1,Group1_IMG_9792.jpg,,,,,,,,,0.0,101.0,101.0,101.0,,,,,,,,,,,,,,,913.204836532008,None,,,1,0.6811112659052014,915.671545452904,None,915.671545452904,None,,,914.5056018359028,None,,,,,1,2022_Apr_12_1419,Real-fake-judgement-flashing-group1,2021.1.2,59.82985993973882,
255,Trial # 103,Group1-stimuli/group1-block2/real-group1-b2/Group1_IMG_1640.jpg,1,Group1_IMG_1640.jpg,,,,,,,,,0.0,102.0,102.0,102.0,,,,,,,,,,,,,,,916.3727654188406,None,,,1,0.5124136200174689,918.8402457388584,None,918.8402457388584,None,,,917.6721098129638,None,,,,,1,2022_Apr_12_1419,Real-fake-judgement-flashing-group1,2021.1.2,59.82985993973882,
256,Trial # 104,Group1-stimuli/group1-block2/real-group1-b2/Group1_IMG_0033.jpg,1,Group1_IMG_0033.jpg,,,,,,,,,0.0,103.0,103.0,103.0,,,,,,,,,,,,,,,919.374086607946,None,,,1,0.8719915049150586,921.856655906886,None,921.856655906886,None,,,920.6896599668544,None,,,,,1,2022_Apr_12_1419,Real-fake-judgement-flashing-group1,2021.1.2,59.82985993973882,
257,Trial # 105,Group1-stimuli/group1-block2/real-group1-b2/Group1_IMG_0079.jpg,1,Group1_IMG_0079.jpg,,,,,,,,,0.0,104.0,104.0,104.0,,,,,,,,,,,,,,,922.7564164488576,None,,,1,0.4001430789940059,925.2244738000444,None,925.2244738000444,None,,,924.0585722678808,None,,,,,1,2022_Apr_12_1419,Real-fake-judgement-flashing-group1,2021.1.2,59.82985993973882,
258,Trial # 106,Group1-stimuli/group1-block2/fake-group2-b2/encoded_Group2_IMG_9909.jpg,0,encoded_Group2_IMG_9909.jpg,,,,,,,,,0.0,105.0,105.0,105.0,,,,,,,,,,,,,,,925.6423207509796,None,,,1,0.3228902749251574,928.1257580029778,None,928.1257580029778,None,,,926.9416265299078,None,,,,,1,2022_Apr_12_1419,Real-fake-judgement-flashing-group1,2021.1.2,59.82985993973882,
259,Trial # 107,Group1-stimuli/group1-block2/fake-group2-b2/encoded_Group2_IMG_0398.jpg,0,encoded_Group2_IMG_0398.jpg,,,,,,,,,0.0,106.0,106.0,106.0,,,,,,,,,,,,,,,928.476676163962,None,,,0,0.3696666550822556,930.943018713966,None,930.943018713966,None,,,929.7770313639194,None,,,,,1,2022_Apr_12_1419,Real-fake-judgement-flashing-group1,2021.1.2,59.82985993973882,
260,Trial # 108,Group1-stimuli/group1-block2/real-group1-b2/Group1_IMG_4268.jpg,1,Group1_IMG_4268.jpg,,,,,,,,,0.0,107.0,107.0,107.0,,,,,,,,,,,,,,,931.343109240057,None,,,1,0.957808371866122,933.8108692229724,None,933.8108692229724,None,,,932.6428539159242,None,,,,,1,2022_Apr_12_1419,Real-fake-judgement-flashing-group1,2021.1.2,59.82985993973882,
261,Trial # 109,Group1-stimuli/group1-block2/fake-group2-b2/encoded_Group2_IMG_9321.jpg,0,encoded_Group2_IMG_9321.jpg,,,,,,,,,0.0,108.0,108.0,108.0,,,,,,,,,,,,,,,934.7950173220596,None,,,1,0.9988565458916128,937.265821033856,None,937.265821033856,None,,,936.0945063568652,None,,,,,1,2022_Apr_12_1419,Real-fake-judgement-flashing-group1,2021.1.2,59.82985993973882,
262,Trial # 110,Group1-stimuli/group1-block2/fake-group2-b2/encoded_Group2_IMG_9964.jpg,0,encoded_Group2_IMG_9964.jpg,,,,,,,,,0.0,109.0,109.0,109.0,,,,,,,,,,,,,,,938.283616857836,None,,,0,0.3979350531008094,940.7626491759438,None,940.7626491759438,None,,,939.5959385279566,None,,,,,1,2022_Apr_12_1419,Real-fake-judgement-flashing-group1,2021.1.2,59.82985993973882,
263,Trial # 111,Group1-stimuli/group1-block2/real-group1-b2/Group1_IMG_0329.jpg,1,Group1_IMG_0329.jpg,,,,,,,,,0.0,110.0,110.0,110.0,,,,,,,,,,,,,,,941.1801206979436,None,,,0,0.3926799988839775,943.647968113888,None,943.647968113888,None,,,942.479803897906,None,,,,,1,2022_Apr_12_1419,Real-fake-judgement-flashing-group1,2021.1.2,59.82985993973882,
264,Trial # 112,Group1-stimuli/group1-block2/fake-group2-b2/encoded_Group2_IMG_0534.jpg,0,encoded_Group2_IMG_0534.jpg,,,,,,,,,0.0,111.0,111.0,111.0,,,,,,,,,,,,,,,944.0649943419266,None,,,0,3.2376877330243587,946.5309627249372,None,946.5309627249372,None,,,945.3651522439905,None,,,,,1,2022_Apr_12_1419,Real-fake-judgement-flashing-group1,2021.1.2,59.82985993973882,
265,Trial # 113,Group1-stimuli/group1-block2/fake-group2-b2/encoded_Group2_IMG_0054.jpg,0,encoded_Group2_IMG_0054.jpg,,,,,,,,,0.0,112.0,112.0,112.0,,,,,,,,,,,,,,,949.7999685800168,None,,,0,0.6144997430965304,952.2661211099476,None,952.2661211099476,None,,,951.0990030989052,None,,,,,1,2022_Apr_12_1419,Real-fake-judgement-flashing-group1,2021.1.2,59.82985993973882,
266,Trial # 114,Group1-stimuli/group1-block2/real-group1-b2/Group1_IMG_9979.jpg,1,Group1_IMG_9979.jpg,,,,,,,,,0.0,113.0,113.0,113.0,,,,,,,,,,,,,,,952.8992799699772,None,,,1,1.92141108494252,955.3672365339008,None,955.3672365339008,None,,,954.200481815962,None,,,,,1,2022_Apr_12_1419,Real-fake-judgement-flashing-group1,2021.1.2,59.82985993973882,
267,Trial # 115,Group1-stimuli/group1-block2/real-group1-b2/Group1_IMG_0170.jpg,1,Group1_IMG_0170.jpg,,,,,,,,,0.0,114.0,114.0,114.0,,,,,,,,,,,,,,,957.3183120188768,None,,,1,0.6623245589435101,959.7863328228703,None,959.7863328228703,None,,,958.6192245420534,None,,,,,1,2022_Apr_12_1419,Real-fake-judgement-flashing-group1,2021.1.2,59.82985993973882,
268,Trial # 116,Group1-stimuli/group1-block2/fake-group2-b2/encoded_Group2_IMG_0007.jpg,0,encoded_Group2_IMG_0007.jpg,,,,,,,,,0.0,115.0,115.0,115.0,,,,,,,,,,,,,,,960.4687854270452,None,,,0,0.1845852299593389,962.9360718738752,None,962.9360718738752,None,,,961.7690084818752,None,,,,,1,2022_Apr_12_1419,Real-fake-judgement-flashing-group1,2021.1.2,59.82985993973882,
269,Trial # 117,Group1-stimuli/group1-block2/real-group1-b2/Group1_IMG_0192.jpg,1,Group1_IMG_0192.jpg,,,,,,,,,0.0,116.0,116.0,116.0,,,,,,,,,,,,,,,963.1372183228376,None,,,1,1.532845856854692,965.6038121080492,None,965.6038121080492,None,,,964.4377208619844,None,,,,,1,2022_Apr_12_1419,Real-fake-judgement-flashing-group1,2021.1.2,59.82985993973882,
270,Trial # 118,Group1-stimuli/group1-block2/real-group1-b2/Group1_IMG_9786.jpg,1,Group1_IMG_9786.jpg,,,,,,,,,0.0,117.0,117.0,117.0,,,,,,,,,,,,,,,967.1536186330486,None,,,1,0.689853539923206,969.622793196002,None,969.622793196002,None,,,968.4556371320504,None,,,,,1,2022_Apr_12_1419,Real-fake-judgement-flashing-group1,2021.1.2,59.82985993973882,
271,Trial # 119,Group1-stimuli/group1-block2/real-group1-b2/Group1_IMG_0187.jpg,1,Group1_IMG_0187.jpg,,,,,,,,,0.0,118.0,118.0,118.0,,,,,,,,,,,,,,,970.33848884888,None,,,1,0.6346367630176246,972.8059588100296,None,972.8059588100296,None,,,971.638408518862,None,,,,,1,2022_Apr_12_1419,Real-fake-judgement-flashing-group1,2021.1.2,59.82985993973882,
272,Trial # 120,Group1-stimuli/group1-block2/fake-group2-b2/encoded_Group2_IMG_0249.jpg,0,encoded_Group2_IMG_0249.jpg,,,,,,,,,0.0,119.0,119.0,119.0,,,,,,,,,,,,,,,973.456401200965,None,,,0,0.773174474015832,975.9234731469768,None,975.9234731469768,None,,,974.7574558840132,None,,,,,1,2022_Apr_12_1419,Real-fake-judgement-flashing-group1,2021.1.2,59.82985993973882,
273,Trial # 121,Group1-stimuli/group1-block2/fake-group2-b2/encoded_Group2_IMG_0074.jpg,0,encoded_Group2_IMG_0074.jpg,,,,,,,,,0.0,120.0,120.0,120.0,,,,,,,,,,,,,,,976.7234673688654,None,,,1,0.3843674098607152,979.192226083018,None,979.192226083018,None,,,978.0235551740044,None,,,,,1,2022_Apr_12_1419,Real-fake-judgement-flashing-group1,2021.1.2,59.82985993973882,
274,Trial # 122,Group1-stimuli/group1-block2/real-group1-b2/Group1_IMG_0243.jpg,1,Group1_IMG_0243.jpg,,,,,,,,,0.0,121.0,121.0,121.0,,,,,,,,,,,,,,,979.609118056018,None,,,0,0.5564362730365247,982.0761998828966,None,982.0761998828966,None,,,980.9082496059128,None,,,,,1,2022_Apr_12_1419,Real-fake-judgement-flashing-group1,2021.1.2,59.82985993973882,
275,Trial # 123,Group1-stimuli/group1-block2/real-group1-b2/Group1_IMG_0130.jpg,1,Group1_IMG_0130.jpg,,,,,,,,,0.0,122.0,122.0,122.0,,,,,,,,,,,,,,,982.6597224578728,None,,,1,0.4502189338672906,985.1263242978604,None,985.1263242978604,None,,,983.9603130640462,None,,,,,1,2022_Apr_12_1419,Real-fake-judgement-flashing-group1,2021.1.2,59.82985993973882,
276,Trial # 124,Group1-stimuli/group1-block2/real-group1-b2/Group1_IMG_0298.jpg,1,Group1_IMG_0298.jpg,,,,,,,,,0.0,123.0,123.0,123.0,,,,,,,,,,,,,,,985.6097317580134,None,,,1,0.5992919199634343,988.081283402862,None,988.081283402862,None,,,986.9100985878612,None,,,,,1,2022_Apr_12_1419,Real-fake-judgement-flashing-group1,2021.1.2,59.82985993973882,
277,Trial # 125,Group1-stimuli/group1-block2/real-group1-b2/Group1_IMG_5871.jpg,1,Group1_IMG_5871.jpg,,,,,,,,,0.0,124.0,124.0,124.0,,,,,,,,,,,,,,,988.6950011120643,None,,,1,0.7590335600543767,991.1616127260496,None,991.1616127260496,None,,,989.9955753609538,None,,,,,1,2022_Apr_12_1419,Real-fake-judgement-flashing-group1,2021.1.2,59.82985993973882,
278,Trial # 126,Group1-stimuli/group1-block2/fake-group2-b2/encoded_Group2_IMG_0479.jpg,0,encoded_Group2_IMG_0479.jpg,,,,,,,,,0.0,125.0,125.0,125.0,,,,,,,,,,,,,,,991.9453996268568,None,,,0,0.4988715630024671,994.413737735944,None,994.413737735944,None,,,993.24667231692,None,,,,,1,2022_Apr_12_1419,Real-fake-judgement-flashing-group1,2021.1.2,59.82985993973882,
