,Trial_num,image_path,ground_truth,image_name,demos.thisRepN,demos.thisTrialN,demos.thisN,demos.thisIndex,block1.thisRepN,block1.thisTrialN,block1.thisN,block1.thisIndex,block2.thisRepN,block2.thisTrialN,block2.thisN,block2.thisIndex,block1_rep2.thisRepN,block1_rep2.thisTrialN,block1_rep2.thisN,block1_rep2.thisIndex,block2_rep.thisRepN,block2_rep.thisTrialN,block2_rep.thisN,block2_rep.thisIndex,text_3.started,text_3.stopped,text_4.started,text_4.stopped,text.started,text.stopped,trail_num.started,trail_num.stopped,image_6.started,image_6.stopped,Judgement.keys,Judgement.rt,Judgement.started,Judgement.stopped,text_19.started,text_19.stopped,text_12.started,text_12.stopped,image.started,image.stopped,text_2.started,text_2.stopped,text_13.started,text_13.stopped,session,date,expName,psychopyVersion,frameRate,Unnamed: 54
0,Demo 1,demo/Demo_IMG_0974.jpg,demo,Demo_IMG_0974.jpg,0.0,0.0,0.0,0.0,,,,,,,,,,,,,,,,,79.24034980591387,None,181.79294942878187,None,195.5472996328026,None,197.59452535770836,None,198.97819016128776,None,1,19.660175337456167,200.0106291687116,None,200.0106291687116,None,,,,,,,,,1,2022_May_27_0903,Real-fake-judgement-flashing-group1,2021.1.2,59.7875214098726,
1,Demo 2,demo/Demo_IMG_1024.jpg,demo,Demo_IMG_1024.jpg,0.0,1.0,1.0,1.0,,,,,,,,,,,,,,,,,,,,,,,219.7012323392555,None,221.06683035101744,None,1,0.8144913027063012,222.1843410367146,None,222.1843410367146,None,,,,,,,,,1,2022_May_27_0903,Real-fake-judgement-flashing-group1,2021.1.2,59.7875214098726,
2,Demo 3,demo/Demo_seed_80003.png,demo,Demo_seed_80003.png,0.0,2.0,2.0,2.0,,,,,,,,,,,,,,,,,,,,,,,223.0193328289315,None,224.4015149762854,None,1,1.5609910730272532,225.50182000733912,None,225.50182000733912,None,,,,,,,,,1,2022_May_27_0903,Real-fake-judgement-flashing-group1,2021.1.2,59.7875214098726,
3,Trial # 1,Group1-stimuli/group1-block1/real-group1-b1/Group1_IMG_0022.jpg,1,Group1_IMG_0022.jpg,,,,,0.0,0.0,0.0,0.0,,,,,,,,,,,,,,,,,,,235.187905035913,None,,,1,1.2310298886150122,237.6238141125068,None,237.6238141125068,None,227.55386847723275,None,236.47191937547177,None,,,,,1,2022_May_27_0903,Real-fake-judgement-flashing-group1,2021.1.2,59.7875214098726,
4,Trial # 2,Group1-stimuli/group1-block1/fake-group2-b1/encoded_Group2_IMG_0386.jpg,0,encoded_Group2_IMG_0386.jpg,,,,,0.0,1.0,1.0,1.0,,,,,,,,,,,,,,,,,,,238.8737492924556,None,,,1,0.3937043845653534,241.3571002483368,None,241.3571002483368,None,,,240.1899357773364,None,,,,,1,2022_May_27_0903,Real-fake-judgement-flashing-group1,2021.1.2,59.7875214098726,
5,Trial # 3,Group1-stimuli/group1-block1/real-group1-b1/Group1_IMG_9704.jpg,1,Group1_IMG_9704.jpg,,,,,0.0,2.0,2.0,2.0,,,,,,,,,,,,,,,,,,,241.77397142816332,None,,,1,3.155704255215824,244.25911299232396,None,244.25911299232396,None,,,243.09210057277232,None,,,,,1,2022_May_27_0903,Real-fake-judgement-flashing-group1,2021.1.2,59.7875214098726,
6,Trial # 4,Group1-stimuli/group1-block1/real-group1-b1/Group1_IMG_0406.jpg,1,Group1_IMG_0406.jpg,,,,,0.0,3.0,3.0,3.0,,,,,,,,,,,,,,,,,,,247.4425827153027,None,,,1,0.6566055566072464,249.9262231234461,None,249.9262231234461,None,,,248.77679028734565,None,,,,,1,2022_May_27_0903,Real-fake-judgement-flashing-group1,2021.1.2,59.7875214098726,
7,Trial # 5,Group1-stimuli/group1-block1/fake-group2-b1/encoded_Group2_IMG_0364.jpg,0,encoded_Group2_IMG_0364.jpg,,,,,0.0,4.0,4.0,4.0,,,,,,,,,,,,,,,,,,,250.60969185084105,None,,,0,4.176982169039547,253.07783298473805,None,253.07783298473805,None,,,251.91027642507103,None,,,,,1,2022_May_27_0903,Real-fake-judgement-flashing-group1,2021.1.2,59.7875214098726,
8,Trial # 6,Group1-stimuli/group1-block1/fake-group2-b1/encoded_Group2_IMG_0407.jpg,0,encoded_Group2_IMG_0407.jpg,,,,,0.0,5.0,5.0,5.0,,,,,,,,,,,,,,,,,,,257.27850739844143,None,,,1,0.3158754985779524,259.7629464576021,None,259.7629464576021,None,,,258.5968618793413,None,,,,,1,2022_May_27_0903,Real-fake-judgement-flashing-group1,2021.1.2,59.7875214098726,
9,Trial # 7,Group1-stimuli/group1-block1/real-group1-b1/Group1_IMG_0428.jpg,1,Group1_IMG_0428.jpg,,,,,0.0,6.0,6.0,6.0,,,,,,,,,,,,,,,,,,,260.0958185233176,None,,,1,0.2506936630234122,262.56404609419405,None,262.56404609419405,None,,,261.3963984018192,None,,,,,1,2022_May_27_0903,Real-fake-judgement-flashing-group1,2021.1.2,59.7875214098726,
10,Trial # 8,Group1-stimuli/group1-block1/fake-group2-b1/encoded_Group2_IMG_0474.jpg,0,encoded_Group2_IMG_0474.jpg,,,,,0.0,7.0,7.0,7.0,,,,,,,,,,,,,,,,,,,262.8480818066746,None,,,1,0.4998425971716642,265.3309706207365,None,265.3309706207365,None,,,264.1653213351965,None,,,,,1,2022_May_27_0903,Real-fake-judgement-flashing-group1,2021.1.2,59.7875214098726,
11,Trial # 9,Group1-stimuli/group1-block1/fake-group2-b1/encoded_Group2_IMG_1506.jpg,0,encoded_Group2_IMG_1506.jpg,,,,,0.0,8.0,8.0,8.0,,,,,,,,,,,,,,,,,,,265.8475356400013,None,,,0,0.346276244148612,268.31652411073446,None,268.31652411073446,None,,,267.1650768974796,None,,,,,1,2022_May_27_0903,Real-fake-judgement-flashing-group1,2021.1.2,59.7875214098726,
12,Trial # 10,Group1-stimuli/group1-block1/real-group1-b1/Group1_IMG_9789.jpg,1,Group1_IMG_9789.jpg,,,,,0.0,9.0,9.0,9.0,,,,,,,,,,,,,,,,,,,268.6823278116062,None,,,1,0.0006402628496289,271.1661008605733,None,271.1661008605733,None,,,269.9993311073631,None,,,,,1,2022_May_27_0903,Real-fake-judgement-flashing-group1,2021.1.2,59.7875214098726,
13,Trial # 11,Group1-stimuli/group1-block1/real-group1-b1/Group1_IMG_9778.jpg,1,Group1_IMG_9778.jpg,,,,,0.0,10.0,10.0,10.0,,,,,,,,,,,,,,,,,,,271.19997467286885,None,,,1,0.7467091428115964,273.6681154379621,None,273.6681154379621,None,,,272.5160005129874,None,,,,,1,2022_May_27_0903,Real-fake-judgement-flashing-group1,2021.1.2,59.7875214098726,
14,Trial # 12,Group1-stimuli/group1-block1/real-group1-b1/Group1_IMG_9813.jpg,1,Group1_IMG_9813.jpg,,,,,0.0,11.0,11.0,11.0,,,,,,,,,,,,,,,,,,,274.4342329725623,None,,,1,0.4088642578572035,276.917847039178,None,276.917847039178,None,,,275.7510421955958,None,,,,,1,2022_May_27_0903,Real-fake-judgement-flashing-group1,2021.1.2,59.7875214098726,
15,Trial # 13,Group1-stimuli/group1-block1/real-group1-b1/Group1_IMG_0516.jpg,1,Group1_IMG_0516.jpg,,,,,0.0,12.0,12.0,12.0,,,,,,,,,,,,,,,,,,,277.3509782860056,None,,,1,0.2106730611994862,279.8360164500773,None,279.8360164500773,None,,,278.66904294490814,None,,,,,1,2022_May_27_0903,Real-fake-judgement-flashing-group1,2021.1.2,59.7875214098726,
16,Trial # 14,Group1-stimuli/group1-block1/fake-group2-b1/encoded_Group2_IMG_0038.jpg,0,encoded_Group2_IMG_0038.jpg,,,,,0.0,13.0,13.0,13.0,,,,,,,,,,,,,,,,,,,280.0686744507402,None,,,0,1.2532176449894905,282.5535955457017,None,282.5535955457017,None,,,281.3858284894377,None,,,,,1,2022_May_27_0903,Real-fake-judgement-flashing-group1,2021.1.2,59.7875214098726,
17,Trial # 15,Group1-stimuli/group1-block1/real-group1-b1/Group1_IMG_5984.jpg,1,Group1_IMG_5984.jpg,,,,,0.0,14.0,14.0,14.0,,,,,,,,,,,,,,,,,,,283.83809423819184,None,,,1,0.7380490424111485,286.3087664442137,None,286.3087664442137,None,,,285.1537865102291,None,,,,,1,2022_May_27_0903,Real-fake-judgement-flashing-group1,2021.1.2,59.7875214098726,
18,Trial # 16,Group1-stimuli/group1-block1/real-group1-b1/Group1_IMG_0383.jpg,1,Group1_IMG_0383.jpg,,,,,0.0,15.0,15.0,15.0,,,,,,,,,,,,,,,,,,,287.0757686700672,None,,,1,0.3705210043117404,289.5563041307032,None,289.5563041307032,None,,,288.40598381403834,None,,,,,1,2022_May_27_0903,Real-fake-judgement-flashing-group1,2021.1.2,59.7875214098726,
19,Trial # 17,Group1-stimuli/group1-block1/fake-group2-b1/encoded_Group2_IMG_0456.jpg,0,encoded_Group2_IMG_0456.jpg,,,,,0.0,16.0,16.0,16.0,,,,,,,,,,,,,,,,,,,289.9566471138969,None,,,0,0.3435631291940808,292.4392401063815,None,292.4392401063815,None,,,291.2891809158027,None,,,,,1,2022_May_27_0903,Real-fake-judgement-flashing-group1,2021.1.2,59.7875214098726,
20,Trial # 18,Group1-stimuli/group1-block1/fake-group2-b1/encoded_Group2_IMG_8390.jpg,0,encoded_Group2_IMG_8390.jpg,,,,,0.0,17.0,17.0,17.0,,,,,,,,,,,,,,,,,,,292.80668990686536,None,,,1,0.3645377047359943,295.2902740444988,None,295.2902740444988,None,,,294.12427021563053,None,,,,,1,2022_May_27_0903,Real-fake-judgement-flashing-group1,2021.1.2,59.7875214098726,
21,Trial # 19,Group1-stimuli/group1-block1/real-group1-b1/Group1_IMG_0011.jpg,1,Group1_IMG_0011.jpg,,,,,0.0,18.0,18.0,18.0,,,,,,,,,,,,,,,,,,,295.6736743701622,None,,,1,0.3133668368682265,298.1414420315996,None,298.1414420315996,None,,,296.99073150381446,None,,,,,1,2022_May_27_0903,Real-fake-judgement-flashing-group1,2021.1.2,59.7875214098726,
22,Trial # 20,Group1-stimuli/group1-block1/fake-group2-b1/encoded_Group2_IMG_0328.jpg,0,encoded_Group2_IMG_0328.jpg,,,,,0.0,19.0,19.0,19.0,,,,,,,,,,,,,,,,,,,298.47589775919914,None,,,1,0.6878969557583332,300.9589145500213,None,300.9589145500213,None,,,299.7918002028018,None,,,,,1,2022_May_27_0903,Real-fake-judgement-flashing-group1,2021.1.2,59.7875214098726,
23,Trial # 21,Group1-stimuli/group1-block1/fake-group2-b1/encoded_Group2_IMG_0163.jpg,0,encoded_Group2_IMG_0163.jpg,,,,,0.0,20.0,20.0,20.0,,,,,,,,,,,,,,,,,,,301.6757144732401,None,,,0,0.5585599523037672,304.1442439034581,None,304.1442439034581,None,,,302.97739949356765,None,,,,,1,2022_May_27_0903,Real-fake-judgement-flashing-group1,2021.1.2,59.7875214098726,
24,Trial # 22,Group1-stimuli/group1-block1/real-group1-b1/Group1_IMG_9862.jpg,1,Group1_IMG_9862.jpg,,,,,0.0,21.0,21.0,21.0,,,,,,,,,,,,,,,,,,,304.72690275870264,None,,,1,0.3482735091820359,307.2105724522844,None,307.2105724522844,None,,,306.0437355535105,None,,,,,1,2022_May_27_0903,Real-fake-judgement-flashing-group1,2021.1.2,59.7875214098726,
25,Trial # 23,Group1-stimuli/group1-block1/fake-group2-b1/encoded_Group2_IMG_0296.jpg,0,encoded_Group2_IMG_0296.jpg,,,,,0.0,22.0,22.0,22.0,,,,,,,,,,,,,,,,,,,307.5780435651541,None,,,0,1.4572510002180934,310.0615594005212,None,310.0615594005212,None,,,308.89516297355294,None,,,,,1,2022_May_27_0903,Real-fake-judgement-flashing-group1,2021.1.2,59.7875214098726,
26,Trial # 24,Group1-stimuli/group1-block1/fake-group2-b1/encoded_Group2_IMG_0503.jpg,0,encoded_Group2_IMG_0503.jpg,,,,,0.0,23.0,23.0,23.0,,,,,,,,,,,,,,,,,,,311.54511756822467,None,,,0,0.8975677760317922,314.01321113388985,None,314.01321113388985,None,,,312.8633529981598,None,,,,,1,2022_May_27_0903,Real-fake-judgement-flashing-group1,2021.1.2,59.7875214098726,
27,Trial # 25,Group1-stimuli/group1-block1/fake-group2-b1/encoded_Group2_IMG_9804.jpg,0,encoded_Group2_IMG_9804.jpg,,,,,0.0,24.0,24.0,24.0,,,,,,,,,,,,,,,,,,,314.92976169474423,None,,,0,0.5931467451155186,317.41370574664325,None,317.41370574664325,None,,,316.2465794282034,None,,,,,1,2022_May_27_0903,Real-fake-judgement-flashing-group1,2021.1.2,59.7875214098726,
28,Trial # 26,Group1-stimuli/group1-block1/real-group1-b1/Group1_IMG_0391.jpg,1,Group1_IMG_0391.jpg,,,,,0.0,25.0,25.0,25.0,,,,,,,,,,,,,,,,,,,318.0311008831486,None,,,1,0.3242170512676239,320.51458582188934,None,320.51458582188934,None,,,319.34764371532947,None,,,,,1,2022_May_27_0903,Real-fake-judgement-flashing-group1,2021.1.2,59.7875214098726,
29,Trial # 27,Group1-stimuli/group1-block1/fake-group2-b1/encoded_Group2_IMG_3584.jpg,0,encoded_Group2_IMG_3584.jpg,,,,,0.0,26.0,26.0,26.0,,,,,,,,,,,,,,,,,,,320.86535441316664,None,,,0,0.3932320494204759,323.3335717031732,None,323.3335717031732,None,,,322.1656616954133,None,,,,,1,2022_May_27_0903,Real-fake-judgement-flashing-group1,2021.1.2,59.7875214098726,
30,Trial # 28,Group1-stimuli/group1-block1/fake-group2-b1/encoded_Group2_IMG_0434.jpg,0,encoded_Group2_IMG_0434.jpg,,,,,0.0,27.0,27.0,27.0,,,,,,,,,,,,,,,,,,,323.7505956310779,None,,,0,0.5585437901318073,326.2162670828402,None,326.2162670828402,None,,,325.0493208244443,None,,,,,1,2022_May_27_0903,Real-fake-judgement-flashing-group1,2021.1.2,59.7875214098726,
31,Trial # 29,Group1-stimuli/group1-block1/fake-group2-b1/encoded_Group2_IMG_9575.jpg,0,encoded_Group2_IMG_9575.jpg,,,,,0.0,28.0,28.0,28.0,,,,,,,,,,,,,,,,,,,326.79979521688074,None,,,0,0.4424037542194128,329.28441878501326,None,329.28441878501326,None,,,328.1014108164236,None,,,,,1,2022_May_27_0903,Real-fake-judgement-flashing-group1,2021.1.2,59.7875214098726,
32,Trial # 30,Group1-stimuli/group1-block1/fake-group2-b1/encoded_Group2_IMG_1025.jpg,0,encoded_Group2_IMG_1025.jpg,,,,,0.0,29.0,29.0,29.0,,,,,,,,,,,,,,,,,,,329.7508965609595,None,,,0,0.4690256919711828,332.2177154459059,None,332.2177154459059,None,,,331.0511844474822,None,,,,,1,2022_May_27_0903,Real-fake-judgement-flashing-group1,2021.1.2,59.7875214098726,
33,Trial # 31,Group1-stimuli/group1-block1/real-group1-b1/Group1_IMG_0502.jpg,1,Group1_IMG_0502.jpg,,,,,0.0,30.0,30.0,30.0,,,,,,,,,,,,,,,,,,,332.71877159178257,None,,,1,0.6762517793104053,335.20257361698896,None,335.20257361698896,None,,,334.0367795769125,None,,,,,1,2022_May_27_0903,Real-fake-judgement-flashing-group1,2021.1.2,59.7875214098726,
34,Trial # 32,Group1-stimuli/group1-block1/real-group1-b1/Group1_IMG_0182.jpg,1,Group1_IMG_0182.jpg,,,,,0.0,31.0,31.0,31.0,,,,,,,,,,,,,,,,,,,335.9031264260411,None,,,1,0.5714083053171635,338.3714168854058,None,338.3714168854058,None,,,337.2198611795902,None,,,,,1,2022_May_27_0903,Real-fake-judgement-flashing-group1,2021.1.2,59.7875214098726,
35,Trial # 33,Group1-stimuli/group1-block1/fake-group2-b1/encoded_Group2_IMG_2728.jpg,0,encoded_Group2_IMG_2728.jpg,,,,,0.0,32.0,32.0,32.0,,,,,,,,,,,,,,,,,,,338.9719428392127,None,,,1,0.4886445272713899,341.45416056364775,None,341.45416056364775,None,,,340.28777462244034,None,,,,,1,2022_May_27_0903,Real-fake-judgement-flashing-group1,2021.1.2,59.7875214098726,
36,Trial # 34,Group1-stimuli/group1-block1/fake-group2-b1/encoded_Group2_IMG_4867.jpg,0,encoded_Group2_IMG_4867.jpg,,,,,0.0,33.0,33.0,33.0,,,,,,,,,,,,,,,,,,,341.9716849774122,None,,,0,0.3917369497939944,344.4390787379816,None,344.4390787379816,None,,,343.2884464589879,None,,,,,1,2022_May_27_0903,Real-fake-judgement-flashing-group1,2021.1.2,59.7875214098726,
37,Trial # 35,Group1-stimuli/group1-block1/real-group1-b1/Group1_IMG_9894.jpg,1,Group1_IMG_9894.jpg,,,,,0.0,34.0,34.0,34.0,,,,,,,,,,,,,,,,,,,344.8556506121531,None,,,1,0.1788318073377013,347.3399822339416,None,347.3399822339416,None,,,346.17226879671216,None,,,,,1,2022_May_27_0903,Real-fake-judgement-flashing-group1,2021.1.2,59.7875214098726,
38,Trial # 36,Group1-stimuli/group1-block1/fake-group2-b1/encoded_Group2_IMG_0444.jpg,0,encoded_Group2_IMG_0444.jpg,,,,,0.0,35.0,35.0,35.0,,,,,,,,,,,,,,,,,,,347.5391812864691,None,,,0,0.4397574113681912,350.0070477174595,None,350.0070477174595,None,,,348.9248322676867,None,,,,,1,2022_May_27_0903,Real-fake-judgement-flashing-group1,2021.1.2,59.7875214098726,
39,Trial # 37,Group1-stimuli/group1-block1/real-group1-b1/Group1_IMG_2656.jpg,1,Group1_IMG_2656.jpg,,,,,0.0,36.0,36.0,36.0,,,,,,,,,,,,,,,,,,,350.47470094356686,None,,,1,0.4394845776259899,352.95932816993445,None,352.95932816993445,None,,,351.7910686470568,None,,,,,1,2022_May_27_0903,Real-fake-judgement-flashing-group1,2021.1.2,59.7875214098726,
40,Trial # 38,Group1-stimuli/group1-block1/real-group1-b1/Group1_IMG_0207.jpg,1,Group1_IMG_0207.jpg,,,,,0.0,37.0,37.0,37.0,,,,,,,,,,,,,,,,,,,353.42511762771755,None,,,1,0.3298139097169041,355.908998509869,None,355.908998509869,None,,,354.7426300505176,None,,,,,1,2022_May_27_0903,Real-fake-judgement-flashing-group1,2021.1.2,59.7875214098726,
41,Trial # 39,Group1-stimuli/group1-block1/real-group1-b1/Group1_IMG_9638.jpg,1,Group1_IMG_9638.jpg,,,,,0.0,38.0,38.0,38.0,,,,,,,,,,,,,,,,,,,356.25965434033424,None,,,1,0.1590279918164014,358.7277754880488,None,358.7277754880488,None,,,357.5605247123167,None,,,,,1,2022_May_27_0903,Real-fake-judgement-flashing-group1,2021.1.2,59.7875214098726,
42,Trial # 40,Group1-stimuli/group1-block1/real-group1-b1/Group1_IMG_0148.jpg,1,Group1_IMG_0148.jpg,,,,,0.0,39.0,39.0,39.0,,,,,,,,,,,,,,,,,,,358.91104148328304,None,,,0,0.2527460129931569,361.3940588515252,None,361.3940588515252,None,,,360.3101838808507,None,,,,,1,2022_May_27_0903,Real-fake-judgement-flashing-group1,2021.1.2,59.7875214098726,
43,Trial # 41,Group1-stimuli/group1-block1/real-group1-b1/Group1_IMG_2891.jpg,1,Group1_IMG_2891.jpg,,,,,0.0,40.0,40.0,40.0,,,,,,,,,,,,,,,,,,,361.6778366370127,None,,,1,0.1568134529516101,364.1460350770503,None,364.1460350770503,None,,,362.996051187627,None,,,,,1,2022_May_27_0903,Real-fake-judgement-flashing-group1,2021.1.2,59.7875214098726,
44,Trial # 42,Group1-stimuli/group1-block1/real-group1-b1/Group1_IMG_0157.jpg,1,Group1_IMG_0157.jpg,,,,,0.0,41.0,41.0,41.0,,,,,,,,,,,,,,,,,,,364.3287378922105,None,,,1,0.2502620629966259,366.81247788015753,None,366.81247788015753,None,,,365.64549503382295,None,,,,,1,2022_May_27_0903,Real-fake-judgement-flashing-group1,2021.1.2,59.7875214098726,
45,Trial # 43,Group1-stimuli/group1-block1/real-group1-b1/Group1_IMG_9833.jpg,1,Group1_IMG_9833.jpg,,,,,0.0,42.0,42.0,42.0,,,,,,,,,,,,,,,,,,,367.0953514734283,None,,,1,0.5066452464088798,369.5801461031661,None,369.5801461031661,None,,,368.4140167292208,None,,,,,1,2022_May_27_0903,Real-fake-judgement-flashing-group1,2021.1.2,59.7875214098726,
46,Trial # 44,Group1-stimuli/group1-block1/fake-group2-b1/encoded_Group2_IMG_2230.jpg,0,encoded_Group2_IMG_2230.jpg,,,,,0.0,43.0,43.0,43.0,,,,,,,,,,,,,,,,,,,370.1135615250096,None,,,0,0.9046468930318952,372.5981677174568,None,372.5981677174568,None,,,371.4307574685663,None,,,,,1,2022_May_27_0903,Real-fake-judgement-flashing-group1,2021.1.2,59.7875214098726,
47,Trial # 45,Group1-stimuli/group1-block1/real-group1-b1/Group1_IMG_9966.jpg,1,Group1_IMG_9966.jpg,,,,,0.0,44.0,44.0,44.0,,,,,,,,,,,,,,,,,,,373.5326259918511,None,,,1,0.3593242447823286,376.0155130513013,None,376.0155130513013,None,,,374.84850155282766,None,,,,,1,2022_May_27_0903,Real-fake-judgement-flashing-group1,2021.1.2,59.7875214098726,
48,Trial # 46,Group1-stimuli/group1-block1/real-group1-b1/Group1_IMG_0239.jpg,1,Group1_IMG_0239.jpg,,,,,0.0,45.0,45.0,45.0,,,,,,,,,,,,,,,,,,,376.3990856697783,None,,,1,0.4031800786033273,378.867635528557,None,378.867635528557,None,,,377.7003872599453,None,,,,,1,2022_May_27_0903,Real-fake-judgement-flashing-group1,2021.1.2,59.7875214098726,
49,Trial # 47,Group1-stimuli/group1-block1/fake-group2-b1/encoded_Group2_IMG_0536.jpg,0,encoded_Group2_IMG_0536.jpg,,,,,0.0,46.0,46.0,46.0,,,,,,,,,,,,,,,,,,,379.2997466735542,None,,,0,0.3678479120135307,381.7668908461928,None,381.7668908461928,None,,,380.6002465011552,None,,,,,1,2022_May_27_0903,Real-fake-judgement-flashing-group1,2021.1.2,59.7875214098726,
50,Trial # 48,Group1-stimuli/group1-block1/fake-group2-b1/encoded_Group2_IMG_0521.jpg,0,encoded_Group2_IMG_0521.jpg,,,,,0.0,47.0,47.0,47.0,,,,,,,,,,,,,,,,,,,382.16741364635527,None,,,0,0.3388314498588443,384.6359812654555,None,384.6359812654555,None,,,383.4854098726064,None,,,,,1,2022_May_27_0903,Real-fake-judgement-flashing-group1,2021.1.2,59.7875214098726,
51,Trial # 49,Group1-stimuli/group1-block1/fake-group2-b1/encoded_Group2_IMG_9924.jpg,0,encoded_Group2_IMG_9924.jpg,,,,,0.0,48.0,48.0,48.0,,,,,,,,,,,,,,,,,,,385.0015193810687,None,,,0,0.3055472616106272,387.48526573739946,None,387.48526573739946,None,,,386.3183290986344,None,,,,,1,2022_May_27_0903,Real-fake-judgement-flashing-group1,2021.1.2,59.7875214098726,
52,Trial # 50,Group1-stimuli/group1-block1/real-group1-b1/Group1_IMG_9730.jpg,1,Group1_IMG_9730.jpg,,,,,0.0,49.0,49.0,49.0,,,,,,,,,,,,,,,,,,,387.82067457586527,None,,,1,0.327715934254229,390.30309494026005,None,390.30309494026005,None,,,389.1374431373552,None,,,,,1,2022_May_27_0903,Real-fake-judgement-flashing-group1,2021.1.2,59.7875214098726,
53,Trial # 51,Group1-stimuli/group1-block1/real-group1-b1/Group1_IMG_0053.jpg,1,Group1_IMG_0053.jpg,,,,,0.0,50.0,50.0,50.0,,,,,,,,,,,,,,,,,,,390.6535373833031,None,,,0,0.4216974452137947,393.1211159452796,None,393.1211159452796,None,,,391.9695198787376,None,,,,,1,2022_May_27_0903,Real-fake-judgement-flashing-group1,2021.1.2,59.7875214098726,
54,Trial # 52,Group1-stimuli/group1-block1/real-group1-b1/Group1_IMG_9698.jpg,1,Group1_IMG_9698.jpg,,,,,0.0,51.0,51.0,51.0,,,,,,,,,,,,,,,,,,,393.57123528327793,None,,,1,0.447920479811728,396.0547991329804,None,396.0547991329804,None,,,394.8878659987822,None,,,,,1,2022_May_27_0903,Real-fake-judgement-flashing-group1,2021.1.2,59.7875214098726,
55,Trial # 53,Group1-stimuli/group1-block1/fake-group2-b1/encoded_Group2_IMG_0553.jpg,0,encoded_Group2_IMG_0553.jpg,,,,,0.0,52.0,52.0,52.0,,,,,,,,,,,,,,,,,,,396.5220403727144,None,,,0,0.552375677973032,398.9904375197366,None,398.9904375197366,None,,,397.8232787027955,None,,,,,1,2022_May_27_0903,Real-fake-judgement-flashing-group1,2021.1.2,59.7875214098726,
56,Trial # 54,Group1-stimuli/group1-block1/fake-group2-b1/encoded_Group2_IMG_9758.jpg,0,encoded_Group2_IMG_9758.jpg,,,,,0.0,53.0,53.0,53.0,,,,,,,,,,,,,,,,,,,399.5728709027171,None,,,0,0.7108506532385945,402.03997408784926,None,402.03997408784926,None,,,400.87269222550094,None,,,,,1,2022_May_27_0903,Real-fake-judgement-flashing-group1,2021.1.2,59.7875214098726,
57,Trial # 55,Group1-stimuli/group1-block1/fake-group2-b1/encoded_Group2_IMG_0339.jpg,0,encoded_Group2_IMG_0339.jpg,,,,,0.0,54.0,54.0,54.0,,,,,,,,,,,,,,,,,,,402.7747702328488,None,,,0,0.3091200506314635,405.2576900897548,None,405.2576900897548,None,,,404.09163341578096,None,,,,,1,2022_May_27_0903,Real-fake-judgement-flashing-group1,2021.1.2,59.7875214098726,
58,Trial # 56,Group1-stimuli/group1-block1/real-group1-b1/Group1_IMG_0314.jpg,1,Group1_IMG_0314.jpg,,,,,0.0,55.0,55.0,55.0,,,,,,,,,,,,,,,,,,,405.5913035040721,None,,,1,2.3223851323127747,408.0924192862585,None,408.0924192862585,None,,,406.9914434263482,None,,,,,1,2022_May_27_0903,Real-fake-judgement-flashing-group1,2021.1.2,59.7875214098726,
59,Trial # 57,Group1-stimuli/group1-block1/fake-group2-b1/encoded_Group2_IMG_0532.jpg,0,encoded_Group2_IMG_0532.jpg,,,,,0.0,56.0,56.0,56.0,,,,,,,,,,,,,,,,,,,410.4427541662008,None,,,0,0.527468360029161,412.91138038598,None,412.91138038598,None,,,411.7429018085823,None,,,,,1,2022_May_27_0903,Real-fake-judgement-flashing-group1,2021.1.2,59.7875214098726,
60,Trial # 58,Group1-stimuli/group1-block1/fake-group2-b1/encoded_Group2_IMG_0462.jpg,0,encoded_Group2_IMG_0462.jpg,,,,,0.0,57.0,57.0,57.0,,,,,,,,,,,,,,,,,,,413.4613710604608,None,,,0,0.5750032216310501,415.9278194140643,None,415.9278194140643,None,,,414.7608303660527,None,,,,,1,2022_May_27_0903,Real-fake-judgement-flashing-group1,2021.1.2,59.7875214098726,
61,Trial # 59,Group1-stimuli/group1-block1/real-group1-b1/Group1_IMG_0172.jpg,1,Group1_IMG_0172.jpg,,,,,0.0,58.0,58.0,58.0,,,,,,,,,,,,,,,,,,,416.5277360500768,None,,,1,0.3472039848566055,418.99561198428273,None,418.99561198428273,None,,,417.8462510854006,None,,,,,1,2022_May_27_0903,Real-fake-judgement-flashing-group1,2021.1.2,59.7875214098726,
62,Trial # 60,Group1-stimuli/group1-block1/real-group1-b1/Group1_IMG_4841.jpg,1,Group1_IMG_4841.jpg,,,,,0.0,59.0,59.0,59.0,,,,,,,,,,,,,,,,,,,419.3626206219196,None,,,1,0.5129639199003577,421.8458424089477,None,421.8458424089477,None,,,420.6790602989495,None,,,,,1,2022_May_27_0903,Real-fake-judgement-flashing-group1,2021.1.2,59.7875214098726,
63,Trial # 61,Group1-stimuli/group1-block1/fake-group2-b1/encoded_Group2_IMG_0352.jpg,0,encoded_Group2_IMG_0352.jpg,,,,,0.0,60.0,60.0,60.0,,,,,,,,,,,,,,,,,,,422.3795514553785,None,,,0,0.5676887491717935,424.8470482900739,None,424.8470482900739,None,,,423.68142494000494,None,,,,,1,2022_May_27_0903,Real-fake-judgement-flashing-group1,2021.1.2,59.7875214098726,
64,Trial # 62,Group1-stimuli/group1-block1/fake-group2-b1/encoded_Group2_IMG_9726.jpg,0,encoded_Group2_IMG_9726.jpg,,,,,0.0,61.0,61.0,61.0,,,,,,,,,,,,,,,,,,,425.4472852097824,None,,,0,0.3395332209765911,427.9152707522735,None,427.9152707522735,None,,,426.7811250500381,None,,,,,1,2022_May_27_0903,Real-fake-judgement-flashing-group1,2021.1.2,59.7875214098726,
65,Trial # 63,Group1-stimuli/group1-block1/fake-group2-b1/encoded_Group2_IMG_9785.jpg,0,encoded_Group2_IMG_9785.jpg,,,,,0.0,62.0,62.0,62.0,,,,,,,,,,,,,,,,,,,428.28297580592334,None,,,0,1.1290975734591484,430.7657239334658,None,430.7657239334658,None,,,429.5983330635354,None,,,,,1,2022_May_27_0903,Real-fake-judgement-flashing-group1,2021.1.2,59.7875214098726,
66,Trial # 64,Group1-stimuli/group1-block1/fake-group2-b1/encoded_Group2_IMG_0440.jpg,0,encoded_Group2_IMG_0440.jpg,,,,,0.0,63.0,63.0,63.0,,,,,,,,,,,,,,,,,,,431.9155559679493,None,,,0,0.510053395293653,434.3847612226382,None,434.3847612226382,None,,,433.21766323037446,None,,,,,1,2022_May_27_0903,Real-fake-judgement-flashing-group1,2021.1.2,59.7875214098726,
67,Trial # 65,Group1-stimuli/group1-block1/fake-group2-b1/encoded_Group2_IMG_1695.jpg,0,encoded_Group2_IMG_1695.jpg,,,,,0.0,64.0,64.0,64.0,,,,,,,,,,,,,,,,,,,434.91719832178205,None,,,0,0.349934546276927,437.384879225865,None,437.384879225865,None,,,436.2170821428299,None,,,,,1,2022_May_27_0903,Real-fake-judgement-flashing-group1,2021.1.2,59.7875214098726,
68,Trial # 66,Group1-stimuli/group1-block1/real-group1-b1/Group1_IMG_0552.jpg,1,Group1_IMG_0552.jpg,,,,,0.0,65.0,65.0,65.0,,,,,,,,,,,,,,,,,,,437.7516683638096,None,,,1,0.2754499698057771,440.2353707067669,None,440.2353707067669,None,,,439.06947794370353,None,,,,,1,2022_May_27_0903,Real-fake-judgement-flashing-group1,2021.1.2,59.7875214098726,
69,Trial # 67,Group1-stimuli/group1-block1/real-group1-b1/Group1_IMG_1029.jpg,1,Group1_IMG_1029.jpg,,,,,0.0,66.0,66.0,66.0,,,,,,,,,,,,,,,,,,,440.5366706075147,None,,,0,0.4265658836811781,443.0042383540422,None,443.0042383540422,None,,,441.8524206243456,None,,,,,1,2022_May_27_0903,Real-fake-judgement-flashing-group1,2021.1.2,59.7875214098726,
70,Trial # 68,Group1-stimuli/group1-block1/fake-group2-b1/encoded_Group2_IMG_6517.jpg,0,encoded_Group2_IMG_6517.jpg,,,,,0.0,67.0,67.0,67.0,,,,,,,,,,,,,,,,,,,443.4542964827269,None,,,0,0.4296801351010799,445.937148260884,None,445.937148260884,None,,,444.7699441444129,None,,,,,1,2022_May_27_0903,Real-fake-judgement-flashing-group1,2021.1.2,59.7875214098726,
71,Trial # 69,Group1-stimuli/group1-block1/fake-group2-b1/encoded_Group2_IMG_0002.jpg,0,encoded_Group2_IMG_0002.jpg,,,,,0.0,68.0,68.0,68.0,,,,,,,,,,,,,,,,,,,446.3869287734851,None,,,0,1.1991982767358422,448.8556239940226,None,448.8556239940226,None,,,447.688734295778,None,,,,,1,2022_May_27_0903,Real-fake-judgement-flashing-group1,2021.1.2,59.7875214098726,
72,Trial # 70,Group1-stimuli/group1-block1/real-group1-b1/Group1_IMG_0495.jpg,1,Group1_IMG_0495.jpg,,,,,0.0,69.0,69.0,69.0,,,,,,,,,,,,,,,,,,,450.0729563701898,None,,,1,0.3712821118533611,452.5555234132335,None,452.5555234132335,None,,,451.40526663325727,None,,,,,1,2022_May_27_0903,Real-fake-judgement-flashing-group1,2021.1.2,59.7875214098726,
73,Trial # 71,Group1-stimuli/group1-block1/real-group1-b1/Group1_IMG_1391.jpg,1,Group1_IMG_1391.jpg,,,,,0.0,70.0,70.0,70.0,,,,,,,,,,,,,,,,,,,452.9563322579488,None,,,1,0.022826069034636,455.4399959007278,None,455.4399959007278,None,,,454.27407571673393,None,,,,,1,2022_May_27_0903,Real-fake-judgement-flashing-group1,2021.1.2,59.7875214098726,
74,Trial # 72,Group1-stimuli/group1-block1/real-group1-b1/Group1_IMG_0343.jpg,1,Group1_IMG_0343.jpg,,,,,0.0,71.0,71.0,71.0,,,,,,,,,,,,,,,,,,,455.4906337680295,None,,,1,0.7688425993546844,457.9579691579565,None,457.9579691579565,None,,,456.807005867362,None,,,,,1,2022_May_27_0903,Real-fake-judgement-flashing-group1,2021.1.2,59.7875214098726,
75,Trial # 73,Group1-stimuli/group1-block1/fake-group2-b1/encoded_Group2_IMG_9810.jpg,0,encoded_Group2_IMG_9810.jpg,,,,,0.0,72.0,72.0,72.0,,,,,,,,,,,,,,,,,,,458.75928944628686,None,,,0,1.2041094517335296,461.2426947243512,None,461.2426947243512,None,,,460.0745411282405,None,,,,,1,2022_May_27_0903,Real-fake-judgement-flashing-group1,2021.1.2,59.7875214098726,
76,Trial # 74,Group1-stimuli/group1-block1/fake-group2-b1/encoded_Group2_IMG_5900.jpg,0,encoded_Group2_IMG_5900.jpg,,,,,0.0,73.0,73.0,73.0,,,,,,,,,,,,,,,,,,,462.4759394247085,None,,,0,0.5045186514034867,464.926286409609,None,464.926286409609,None,,,463.7602472519502,None,,,,,1,2022_May_27_0903,Real-fake-judgement-flashing-group1,2021.1.2,59.7875214098726,
77,Trial # 75,Group1-stimuli/group1-block1/real-group1-b1/Group1_IMG_9679.jpg,1,Group1_IMG_9679.jpg,,,,,0.0,74.0,74.0,74.0,,,,,,,,,,,,,,,,,,,465.4595269123092,None,,,1,0.9112026887014508,467.92759620118886,None,467.92759620118886,None,,,466.7765973499045,None,,,,,1,2022_May_27_0903,Real-fake-judgement-flashing-group1,2021.1.2,59.7875214098726,
78,Trial # 76,Group1-stimuli/group1-block1/fake-group2-b1/encoded_Group2_IMG_4249.jpg,0,encoded_Group2_IMG_4249.jpg,,,,,0.0,75.0,75.0,75.0,,,,,,,,,,,,,,,,,,,468.8621667474508,None,,,0,0.8860750300809741,471.344730370678,None,471.344730370678,None,,,470.1624607052654,None,,,,,1,2022_May_27_0903,Real-fake-judgement-flashing-group1,2021.1.2,59.7875214098726,
79,Trial # 77,Group1-stimuli/group1-block1/fake-group2-b1/encoded_Group2_IMG_0174.jpg,0,encoded_Group2_IMG_0174.jpg,,,,,0.0,76.0,76.0,76.0,,,,,,,,,,,,,,,,,,,472.2617824934423,None,,,0,0.38123794272542,474.7294575506821,None,474.7294575506821,None,,,473.5457356749103,None,,,,,1,2022_May_27_0903,Real-fake-judgement-flashing-group1,2021.1.2,59.7875214098726,
80,Trial # 78,Group1-stimuli/group1-block1/fake-group2-b1/encoded_Group2_IMG_0475.jpg,0,encoded_Group2_IMG_0475.jpg,,,,,0.0,77.0,77.0,77.0,,,,,,,,,,,,,,,,,,,475.12950861733407,None,,,0,0.7602073401212692,477.61460543237627,None,477.61460543237627,None,,,476.4296435387805,None,,,,,1,2022_May_27_0903,Real-fake-judgement-flashing-group1,2021.1.2,59.7875214098726,
81,Trial # 79,Group1-stimuli/group1-block1/fake-group2-b1/encoded_Group2_IMG_9751.jpg,0,encoded_Group2_IMG_9751.jpg,,,,,0.0,78.0,78.0,78.0,,,,,,,,,,,,,,,,,,,478.3984729414806,None,,,0,0.7901166547089815,480.86470730789006,None,480.86470730789006,None,,,479.6978067541495,None,,,,,1,2022_May_27_0903,Real-fake-judgement-flashing-group1,2021.1.2,59.7875214098726,
82,Trial # 80,Group1-stimuli/group1-block1/fake-group2-b1/encoded_Group2_IMG_0492.jpg,0,encoded_Group2_IMG_0492.jpg,,,,,0.0,79.0,79.0,79.0,,,,,,,,,,,,,,,,,,,481.6817507771775,None,,,0,0.4399988362565636,484.16679412219673,None,484.16679412219673,None,,,482.98305260483176,None,,,,,1,2022_May_27_0903,Real-fake-judgement-flashing-group1,2021.1.2,59.7875214098726,
83,Trial # 81,Group1-stimuli/group1-block1/real-group1-b1/Group1_IMG_0535.jpg,1,Group1_IMG_0535.jpg,,,,,0.0,80.0,80.0,80.0,,,,,,,,,,,,,,,,,,,484.6327933277935,None,,,1,0.4586602365598082,487.1161540783942,None,487.1161540783942,None,,,485.9493938423693,None,,,,,1,2022_May_27_0903,Real-fake-judgement-flashing-group1,2021.1.2,59.7875214098726,
84,Trial # 82,Group1-stimuli/group1-block1/real-group1-b1/Group1_IMG_0077.jpg,1,Group1_IMG_0077.jpg,,,,,0.0,81.0,81.0,81.0,,,,,,,,,,,,,,,,,,,487.6012235488743,None,,,1,0.5393502470105886,490.0674057705328,None,490.0674057705328,None,,,488.9011497339234,None,,,,,1,2022_May_27_0903,Real-fake-judgement-flashing-group1,2021.1.2,59.7875214098726,
85,Trial # 83,Group1-stimuli/group1-block1/fake-group2-b1/encoded_Group2_IMG_9702.jpg,0,encoded_Group2_IMG_9702.jpg,,,,,0.0,82.0,82.0,82.0,,,,,,,,,,,,,,,,,,,490.6342911133543,None,,,0,0.5287479506805539,493.1020642789081,None,493.1020642789081,None,,,491.9345529275015,None,,,,,1,2022_May_27_0903,Real-fake-judgement-flashing-group1,2021.1.2,59.7875214098726,
86,Trial # 84,Group1-stimuli/group1-block1/real-group1-b1/Group1_IMG_0357.jpg,1,Group1_IMG_0357.jpg,,,,,0.0,83.0,83.0,83.0,,,,,,,,,,,,,,,,,,,493.6531030507758,None,,,1,0.1833791015669703,496.1193594429642,None,496.1193594429642,None,,,494.9527013963088,None,,,,,1,2022_May_27_0903,Real-fake-judgement-flashing-group1,2021.1.2,59.7875214098726,
87,Trial # 85,Group1-stimuli/group1-block1/real-group1-b1/Group1_IMG_9772.jpg,1,Group1_IMG_9772.jpg,,,,,0.0,84.0,84.0,84.0,,,,,,,,,,,,,,,,,,,496.3359605297446,None,,,1,0.5141771426424384,498.80468784086406,None,498.80468784086406,None,,,497.6540958825499,None,,,,,1,2022_May_27_0903,Real-fake-judgement-flashing-group1,2021.1.2,59.7875214098726,
88,Trial # 86,Group1-stimuli/group1-block1/real-group1-b1/Group1_IMG_0482.jpg,1,Group1_IMG_0482.jpg,,,,,0.0,85.0,85.0,85.0,,,,,,,,,,,,,,,,,,,499.33808732032776,None,,,1,0.3628726229071617,501.8039316572249,None,501.8039316572249,None,,,500.6538132596761,None,,,,,1,2022_May_27_0903,Real-fake-judgement-flashing-group1,2021.1.2,59.7875214098726,
89,Trial # 87,Group1-stimuli/group1-block1/real-group1-b1/Group1_IMG_0299.jpg,1,Group1_IMG_0299.jpg,,,,,0.0,86.0,86.0,86.0,,,,,,,,,,,,,,,,,,,502.18790630064905,None,,,1,0.9754030192270876,504.6553994063288,None,504.6553994063288,None,,,503.4893366070464,None,,,,,1,2022_May_27_0903,Real-fake-judgement-flashing-group1,2021.1.2,59.7875214098726,
90,Trial # 88,Group1-stimuli/group1-block1/fake-group2-b1/encoded_Group2_IMG_0301.jpg,0,encoded_Group2_IMG_0301.jpg,,,,,0.0,87.0,87.0,87.0,,,,,,,,,,,,,,,,,,,505.655600794591,None,,,0,0.6346650514751673,508.1241010334343,None,508.1241010334343,None,,,506.9557799510658,None,,,,,1,2022_May_27_0903,Real-fake-judgement-flashing-group1,2021.1.2,59.7875214098726,
91,Trial # 89,Group1-stimuli/group1-block1/fake-group2-b1/encoded_Group2_IMG_5136.jpg,0,encoded_Group2_IMG_5136.jpg,,,,,0.0,88.0,88.0,88.0,,,,,,,,,,,,,,,,,,,508.7900587320328,None,,,0,0.3729018783196807,511.2739028986544,None,511.2739028986544,None,,,510.0899485088885,None,,,,,1,2022_May_27_0903,Real-fake-judgement-flashing-group1,2021.1.2,59.7875214098726,
92,Trial # 90,Group1-stimuli/group1-block1/real-group1-b1/Group1_IMG_0460.jpg,1,Group1_IMG_0460.jpg,,,,,0.0,89.0,89.0,89.0,,,,,,,,,,,,,,,,,,,511.67428503371775,None,,,1,0.4007112253457308,514.1419983319938,None,514.1419983319938,None,,,512.992183804512,None,,,,,1,2022_May_27_0903,Real-fake-judgement-flashing-group1,2021.1.2,59.7875214098726,
93,Trial # 91,Group1-stimuli/group1-block1/fake-group2-b1/encoded_Group2_IMG_0068.jpg,0,encoded_Group2_IMG_0068.jpg,,,,,0.0,90.0,90.0,90.0,,,,,,,,,,,,,,,,,,,514.575416249223,None,,,0,0.0684543056413531,517.042351745069,None,517.042351745069,None,,,515.8752730702981,None,,,,,1,2022_May_27_0903,Real-fake-judgement-flashing-group1,2021.1.2,59.7875214098726,
94,Trial # 92,Group1-stimuli/group1-block1/real-group1-b1/Group1_IMG_0337.jpg,1,Group1_IMG_0337.jpg,,,,,0.0,91.0,91.0,91.0,,,,,,,,,,,,,,,,,,,517.1424566973001,None,,,1,1.7878252668306231,519.6109802210703,None,519.6109802210703,None,,,518.4604501063004,None,,,,,1,2022_May_27_0903,Real-fake-judgement-flashing-group1,2021.1.2,59.7875214098726,
95,Trial # 93,Group1-stimuli/group1-block1/fake-group2-b1/encoded_Group2_IMG_0346.jpg,0,encoded_Group2_IMG_0346.jpg,,,,,0.0,92.0,92.0,92.0,,,,,,,,,,,,,,,,,,,521.4268323518336,None,,,0,0.9110273644328116,523.8957771155983,None,523.8957771155983,None,,,522.7785020563751,None,,,,,1,2022_May_27_0903,Real-fake-judgement-flashing-group1,2021.1.2,59.7875214098726,
96,Trial # 94,Group1-stimuli/group1-block1/real-group1-b1/Group1_IMG_4253.jpg,1,Group1_IMG_4253.jpg,,,,,0.0,93.0,93.0,93.0,,,,,,,,,,,,,,,,,,,524.82879604958,None,,,0,0.5266860201954842,527.312128232792,None,527.312128232792,None,,,526.1455178074539,None,,,,,1,2022_May_27_0903,Real-fake-judgement-flashing-group1,2021.1.2,59.7875214098726,
97,Trial # 95,Group1-stimuli/group1-block1/fake-group2-b1/encoded_Group2_IMG_9280.jpg,0,encoded_Group2_IMG_9280.jpg,,,,,0.0,94.0,94.0,94.0,,,,,,,,,,,,,,,,,,,527.8629080979154,None,,,0,0.4522933010011911,530.3465111376718,None,530.3465111376718,None,,,529.1805809214711,None,,,,,1,2022_May_27_0903,Real-fake-judgement-flashing-group1,2021.1.2,59.7875214098726,
98,Trial # 96,Group1-stimuli/group1-block1/real-group1-b1/Group1_IMG_0417.jpg,1,Group1_IMG_0417.jpg,,,,,0.0,95.0,95.0,95.0,,,,,,,,,,,,,,,,,,,530.8308897782117,None,,,1,0.4689833763986826,533.2978210896254,None,533.2978210896254,None,,,532.1469466779381,None,,,,,1,2022_May_27_0903,Real-fake-judgement-flashing-group1,2021.1.2,59.7875214098726,
99,Trial # 97,Group1-stimuli/group1-block1/fake-group2-b1/encoded_Group2_IMG_9695.jpg,0,encoded_Group2_IMG_9695.jpg,,,,,0.0,96.0,96.0,96.0,,,,,,,,,,,,,,,,,,,533.7978029614314,None,,,0,1.4859093381091952,536.264895315282,None,536.264895315282,None,,,535.0977845676243,None,,,,,1,2022_May_27_0903,Real-fake-judgement-flashing-group1,2021.1.2,59.7875214098726,
100,Trial # 98,Group1-stimuli/group1-block1/real-group1-b1/Group1_IMG_1160.jpg,1,Group1_IMG_1160.jpg,,,,,0.0,97.0,97.0,97.0,,,,,,,,,,,,,,,,,,,537.7826723689213,None,,,0,0.524724199436605,540.2660796074197,None,540.2660796074197,None,,,539.0993103124201,None,,,,,1,2022_May_27_0903,Real-fake-judgement-flashing-group1,2021.1.2,59.7875214098726,
101,Trial # 99,Group1-stimuli/group1-block1/real-group1-b1/Group1_IMG_0448.jpg,1,Group1_IMG_0448.jpg,,,,,0.0,98.0,98.0,98.0,,,,,,,,,,,,,,,,,,,540.8161819148809,None,,,0,0.8746813405305147,543.2841103645042,None,543.2841103645042,None,,,542.1332131829113,None,,,,,1,2022_May_27_0903,Real-fake-judgement-flashing-group1,2021.1.2,59.7875214098726,
102,Trial # 100,Group1-stimuli/group1-block1/fake-group2-b1/encoded_Group2_IMG_0393.jpg,0,encoded_Group2_IMG_0393.jpg,,,,,0.0,99.0,99.0,99.0,,,,,,,,,,,,,,,,,,,544.1852849675342,None,,,0,0.5870198924094439,546.6677839718759,None,546.6677839718759,None,,,545.5341606065631,None,,,,,1,2022_May_27_0903,Real-fake-judgement-flashing-group1,2021.1.2,59.7875214098726,
103,Trial # 101,Group1-stimuli/group1-block1/real-group1-b1/Group1_IMG_0090.jpg,1,Group1_IMG_0090.jpg,,,,,0.0,100.0,100.0,100.0,,,,,,,,,,,,,,,,,,,547.2854557111859,None,,,1,0.3500882750377059,549.7687262604013,None,549.7687262604013,None,,,548.6033251555637,None,,,,,1,2022_May_27_0903,Real-fake-judgement-flashing-group1,2021.1.2,59.7875214098726,
104,Trial # 102,Group1-stimuli/group1-block1/real-group1-b1/Group1_IMG_0310.jpg,1,Group1_IMG_0310.jpg,,,,,0.0,101.0,101.0,101.0,,,,,,,,,,,,,,,,,,,550.1360595049337,None,,,1,0.0656019654124975,552.6212409008294,None,552.6212409008294,None,,,551.4530479004607,None,,,,,1,2022_May_27_0903,Real-fake-judgement-flashing-group1,2021.1.2,59.7875214098726,
105,Trial # 103,Group1-stimuli/group1-block1/fake-group2-b1/encoded_Group2_IMG_0528.jpg,0,encoded_Group2_IMG_0528.jpg,,,,,0.0,102.0,102.0,102.0,,,,,,,,,,,,,,,,,,,552.7036714069545,None,,,0,0.091833671554923,555.1709694331512,None,555.1709694331512,None,,,554.0047857537866,None,,,,,1,2022_May_27_0903,Real-fake-judgement-flashing-group1,2021.1.2,59.7875214098726,
106,Trial # 104,Group1-stimuli/group1-block1/fake-group2-b1/encoded_Group2_IMG_1975.jpg,0,encoded_Group2_IMG_1975.jpg,,,,,0.0,103.0,103.0,103.0,,,,,,,,,,,,,,,,,,,555.2874395754188,None,,,0,0.1553205037489533,557.7555063143373,None,557.7555063143373,None,,,556.5879462352023,None,,,,,1,2022_May_27_0903,Real-fake-judgement-flashing-group1,2021.1.2,59.7875214098726,
107,Trial # 105,Group1-stimuli/group1-block1/fake-group2-b1/encoded_Group2_IMG_0052.jpg,0,encoded_Group2_IMG_0052.jpg,,,,,0.0,104.0,104.0,104.0,,,,,,,,,,,,,,,,,,,557.9388486146927,None,,,0,0.0964715545997023,560.422342998907,None,560.422342998907,None,,,559.2566537791863,None,,,,,1,2022_May_27_0903,Real-fake-judgement-flashing-group1,2021.1.2,59.7875214098726,
108,Trial # 106,Group1-stimuli/group1-block1/fake-group2-b1/encoded_Group2_IMG_0225.jpg,0,encoded_Group2_IMG_0225.jpg,,,,,0.0,105.0,105.0,105.0,,,,,,,,,,,,,,,,,,,560.5389828989282,None,,,1,0.6876973211765289,563.0071073696017,None,563.0071073696017,None,,,561.8558840202168,None,,,,,1,2022_May_27_0903,Real-fake-judgement-flashing-group1,2021.1.2,59.7875214098726,
109,Trial # 107,Group1-stimuli/group1-block1/real-group1-b1/Group1_IMG_2231.jpg,1,Group1_IMG_2231.jpg,,,,,0.0,106.0,106.0,106.0,,,,,,,,,,,,,,,,,,,563.7247861763462,None,,,1,0.5272629940882325,566.2075505992398,None,566.2075505992398,None,,,565.0404499042779,None,,,,,1,2022_May_27_0903,Real-fake-judgement-flashing-group1,2021.1.2,59.7875214098726,
110,Trial # 108,Group1-stimuli/group1-block1/real-group1-b1/Group1_IMG_0217.jpg,1,Group1_IMG_0217.jpg,,,,,0.0,107.0,107.0,107.0,,,,,,,,,,,,,,,,,,,566.7571637053043,None,,,1,0.5483847446739674,569.2264079023153,None,569.2264079023153,None,,,568.0759917870164,None,,,,,1,2022_May_27_0903,Real-fake-judgement-flashing-group1,2021.1.2,59.7875214098726,
111,Trial # 109,Group1-stimuli/group1-block1/real-group1-b1/Group1_IMG_0264.jpg,1,Group1_IMG_0264.jpg,,,,,0.0,108.0,108.0,108.0,,,,,,,,,,,,,,,,,,,569.7924654837698,None,,,1,0.2112057292833924,572.2596225393936,None,572.2596225393936,None,,,571.0923998458311,None,,,,,1,2022_May_27_0903,Real-fake-judgement-flashing-group1,2021.1.2,59.7875214098726,
112,Trial # 110,Group1-stimuli/group1-block1/fake-group2-b1/encoded_Group2_IMG_0254.jpg,0,encoded_Group2_IMG_0254.jpg,,,,,0.0,109.0,109.0,109.0,,,,,,,,,,,,,,,,,,,572.4936119504273,None,,,0,0.5268432246521115,574.9599605528638,None,574.9599605528638,None,,,573.7944535445422,None,,,,,1,2022_May_27_0903,Real-fake-judgement-flashing-group1,2021.1.2,59.7875214098726,
113,Trial # 111,Group1-stimuli/group1-block1/fake-group2-b1/encoded_Group2_IMG_5433.jpg,0,encoded_Group2_IMG_5433.jpg,,,,,0.0,110.0,110.0,110.0,,,,,,,,,,,,,,,,,,,575.5102748973295,None,,,0,0.3883670922368765,577.9784609703347,None,577.9784609703347,None,,,576.8105337247252,None,,,,,1,2022_May_27_0903,Real-fake-judgement-flashing-group1,2021.1.2,59.7875214098726,
114,Trial # 112,Group1-stimuli/group1-block1/real-group1-b1/Group1_IMG_0252.jpg,1,Group1_IMG_0252.jpg,,,,,0.0,111.0,111.0,111.0,,,,,,,,,,,,,,,,,,,578.3958013728261,None,,,1,0.6804029047489166,580.8784162793308,None,580.8784162793308,None,,,579.7115604700521,None,,,,,1,2022_May_27_0903,Real-fake-judgement-flashing-group1,2021.1.2,59.7875214098726,
115,Trial # 113,Group1-stimuli/group1-block1/real-group1-b1/Group1_IMG_9720.jpg,1,Group1_IMG_9720.jpg,,,,,0.0,112.0,112.0,112.0,,,,,,,,,,,,,,,,,,,581.5796619439498,None,,,1,0.679010421037674,584.0478052878752,None,584.0478052878752,None,,,582.8805735278875,None,,,,,1,2022_May_27_0903,Real-fake-judgement-flashing-group1,2021.1.2,59.7875214098726,
116,Trial # 114,Group1-stimuli/group1-block1/fake-group2-b1/encoded_Group2_IMG_0550.jpg,0,encoded_Group2_IMG_0550.jpg,,,,,0.0,113.0,113.0,113.0,,,,,,,,,,,,,,,,,,,584.7467064978555,None,,,0,0.3685670886188745,587.2142383754253,None,587.2142383754253,None,,,586.0477902404964,None,,,,,1,2022_May_27_0903,Real-fake-judgement-flashing-group1,2021.1.2,59.7875214098726,
117,Trial # 115,Group1-stimuli/group1-block1/real-group1-b1/Group1_IMG_9915.jpg,1,Group1_IMG_9915.jpg,,,,,0.0,114.0,114.0,114.0,,,,,,,,,,,,,,,,,,,587.6134997652844,None,,,1,0.5324780037626624,590.0983354337513,None,590.0983354337513,None,,,588.9324607811868,None,,,,,1,2022_May_27_0903,Real-fake-judgement-flashing-group1,2021.1.2,59.7875214098726,
118,Trial # 116,Group1-stimuli/group1-block1/real-group1-b1/Group1_IMG_9850.jpg,1,Group1_IMG_9850.jpg,,,,,0.0,115.0,115.0,115.0,,,,,,,,,,,,,,,,,,,590.648542043753,None,,,1,1.4737805174663663,593.1330233234912,None,593.1330233234912,None,,,591.9487288398668,None,,,,,1,2022_May_27_0903,Real-fake-judgement-flashing-group1,2021.1.2,59.7875214098726,
119,Trial # 117,Group1-stimuli/group1-block1/real-group1-b1/Group1_IMG_3579.jpg,1,Group1_IMG_3579.jpg,,,,,0.0,116.0,116.0,116.0,,,,,,,,,,,,,,,,,,,594.6331679858267,None,,,1,0.2744697956368327,597.1003332147375,None,597.1003332147375,None,,,595.9334025606513,None,,,,,1,2022_May_27_0903,Real-fake-judgement-flashing-group1,2021.1.2,59.7875214098726,
120,Trial # 118,Group1-stimuli/group1-block1/fake-group2-b1/encoded_Group2_IMG_0377.jpg,0,encoded_Group2_IMG_0377.jpg,,,,,0.0,117.0,117.0,117.0,,,,,,,,,,,,,,,,,,,597.4006661735475,None,,,0,1.1148252626881003,599.8680004458874,None,599.8680004458874,None,,,598.7181329159066,None,,,,,1,2022_May_27_0903,Real-fake-judgement-flashing-group1,2021.1.2,59.7875214098726,
121,Trial # 119,Group1-stimuli/group1-block1/real-group1-b1/Group1_IMG_0469.jpg,1,Group1_IMG_0469.jpg,,,,,0.0,118.0,118.0,118.0,,,,,,,,,,,,,,,,,,,601.0016183545813,None,,,1,2.281167215667665,603.4696744931862,None,603.4696744931862,None,,,602.3185971546918,None,,,,,1,2022_May_27_0903,Real-fake-judgement-flashing-group1,2021.1.2,59.7875214098726,
122,Trial # 120,Group1-stimuli/group1-block1/fake-group2-b1/encoded_Group2_IMG_0100.jpg,0,encoded_Group2_IMG_0100.jpg,,,,,0.0,119.0,119.0,119.0,,,,,,,,,,,,,,,,,,,605.7697121668607,None,,,0,0.2971150763332844,608.2376847127452,None,608.2376847127452,None,,,607.0701655540615,None,,,,,1,2022_May_27_0903,Real-fake-judgement-flashing-group1,2021.1.2,59.7875214098726,
123,Trial # 121,Group1-stimuli/group1-block1/real-group1-b1/Group1_IMG_5359.jpg,1,Group1_IMG_5359.jpg,,,,,0.0,120.0,120.0,120.0,,,,,,,,,,,,,,,,,,,608.5557520296425,None,,,1,0.3049643216654658,611.0218406002969,None,611.0218406002969,None,,,609.8542615137994,None,,,,,1,2022_May_27_0903,Real-fake-judgement-flashing-group1,2021.1.2,59.7875214098726,
124,Trial # 122,Group1-stimuli/group1-block1/fake-group2-b1/encoded_Group2_IMG_0304.jpg,0,encoded_Group2_IMG_0304.jpg,,,,,0.0,121.0,121.0,121.0,,,,,,,,,,,,,,,,,,,611.3547924878076,None,,,0,0.4632087331265211,613.8235618919134,None,613.8235618919134,None,,,612.6565289786085,None,,,,,1,2022_May_27_0903,Real-fake-judgement-flashing-group1,2021.1.2,59.7875214098726,
125,Trial # 123,Group1-stimuli/group1-block1/real-group1-b1/Group1_IMG_0306.jpg,1,Group1_IMG_0306.jpg,,,,,0.0,122.0,122.0,122.0,,,,,,,,,,,,,,,,,,,614.3071982683614,None,,,1,0.2889358149841428,616.7898921733722,None,616.7898921733722,None,,,615.6393808769062,None,,,,,1,2022_May_27_0903,Real-fake-judgement-flashing-group1,2021.1.2,59.7875214098726,
126,Trial # 124,Group1-stimuli/group1-block1/real-group1-b1/Group1_IMG_0224.jpg,1,Group1_IMG_0224.jpg,,,,,0.0,123.0,123.0,123.0,,,,,,,,,,,,,,,,,,,617.1070150639862,None,,,1,0.3919067550450563,619.590898187831,None,619.590898187831,None,,,618.4081741832197,None,,,,,1,2022_May_27_0903,Real-fake-judgement-flashing-group1,2021.1.2,59.7875214098726,
127,Trial # 125,Group1-stimuli/group1-block1/real-group1-b1/Group1_IMG_9889.jpg,1,Group1_IMG_9889.jpg,,,,,0.0,124.0,124.0,124.0,,,,,,,,,,,,,,,,,,,620.0076071992517,None,,,1,0.6999705880880356,622.4748418852687,None,622.4748418852687,None,,,621.324668282643,None,,,,,1,2022_May_27_0903,Real-fake-judgement-flashing-group1,2021.1.2,59.7875214098726,
128,Trial # 126,Group1-stimuli/group1-block1/real-group1-b1/Group1_IMG_0293.jpg,1,Group1_IMG_0293.jpg,,,,,0.0,125.0,125.0,125.0,,,,,,,,,,,,,,,,,,,623.1927634729072,None,,,1,0.3154231291264295,625.6593891633675,None,625.6593891633675,None,,,624.4921616101637,None,,,,,1,2022_May_27_0903,Real-fake-judgement-flashing-group1,2021.1.2,59.7875214098726,
129,Trial # 127,Group1-stimuli/group1-block1/fake-group2-b1/encoded_Group2_IMG_0321.jpg,0,encoded_Group2_IMG_0321.jpg,,,,,0.0,126.0,126.0,126.0,,,,,,,,,,,,,,,,,,,625.9927926165983,None,,,1,0.5948407351970673,628.4440131196752,None,628.4440131196752,None,,,627.2759449770674,None,,,,,1,2022_May_27_0903,Real-fake-judgement-flashing-group1,2021.1.2,59.7875214098726,
130,Trial # 128,Group1-stimuli/group1-block1/fake-group2-b1/encoded_Group2_IMG_0400.jpg,0,encoded_Group2_IMG_0400.jpg,,,,,0.0,127.0,127.0,127.0,,,,,,,,,,,,,,,,,,,629.061693130061,None,,,0,0.3830312862992286,631.5278148893267,None,631.5278148893267,None,,,630.360699236393,None,,,,,1,2022_May_27_0903,Real-fake-judgement-flashing-group1,2021.1.2,59.7875214098726,
131,Trial # 129,Group1-stimuli/group1-block1/fake-group2-b1/encoded_Group2_IMG_0443.jpg,0,encoded_Group2_IMG_0443.jpg,,,,,0.0,128.0,128.0,128.0,,,,,,,,,,,,,,,,,,,631.9271987052634,None,,,1,0.3224112624302506,634.3964402955025,None,634.3964402955025,None,,,633.2296470813453,None,,,,,1,2022_May_27_0903,Real-fake-judgement-flashing-group1,2021.1.2,59.7875214098726,
132,Trial # 130,Group1-stimuli/group1-block1/fake-group2-b1/encoded_Group2_IMG_0542.jpg,0,encoded_Group2_IMG_0542.jpg,,,,,0.0,129.0,129.0,129.0,,,,,,,,,,,,,,,,,,,634.7452267017215,None,,,0,0.2337814699858427,637.2129604918882,None,637.2129604918882,None,,,636.0457004429772,None,,,,,1,2022_May_27_0903,Real-fake-judgement-flashing-group1,2021.1.2,59.7875214098726,
133,Trial # 131,Group1-stimuli/group1-block1/real-group1-b1/Group1_IMG_0885.jpg,1,Group1_IMG_0885.jpg,,,,,0.0,130.0,130.0,130.0,,,,,,,,,,,,,,,,,,,637.4797067604959,None,,,1,0.4429339366033673,639.9638688778505,None,639.9638688778505,None,,,638.781452066265,None,,,,,1,2022_May_27_0903,Real-fake-judgement-flashing-group1,2021.1.2,59.7875214098726,
134,Trial # 132,Group1-stimuli/group1-block1/real-group1-b1/Group1_IMG_0375.jpg,1,Group1_IMG_0375.jpg,,,,,0.0,131.0,131.0,131.0,,,,,,,,,,,,,,,,,,,640.4304865319282,None,,,1,0.4911059187725186,642.9156965436414,None,642.9156965436414,None,,,641.7307007014751,None,,,,,1,2022_May_27_0903,Real-fake-judgement-flashing-group1,2021.1.2,59.7875214098726,
135,Trial # 133,Group1-stimuli/group1-block1/fake-group2-b1/encoded_Group2_IMG_7351.jpg,0,encoded_Group2_IMG_7351.jpg,,,,,0.0,132.0,132.0,132.0,,,,,,,,,,,,,,,,,,,643.4330045757815,None,,,0,0.444000743329525,645.8988488810137,None,645.8988488810137,None,,,644.7326387194917,None,,,,,1,2022_May_27_0903,Real-fake-judgement-flashing-group1,2021.1.2,59.7875214098726,
136,Trial # 134,Group1-stimuli/group1-block1/fake-group2-b1/encoded_Group2_IMG_0416.jpg,0,encoded_Group2_IMG_0416.jpg,,,,,0.0,133.0,133.0,133.0,,,,,,,,,,,,,,,,,,,646.3656832687557,None,,,0,0.4373763250187039,648.833415816538,None,648.833415816538,None,,,647.6671296758577,None,,,,,1,2022_May_27_0903,Real-fake-judgement-flashing-group1,2021.1.2,59.7875214098726,
137,Trial # 135,Group1-stimuli/group1-block1/fake-group2-b1/encoded_Group2_IMG_0139.jpg,0,encoded_Group2_IMG_0139.jpg,,,,,0.0,134.0,134.0,134.0,,,,,,,,,,,,,,,,,,,649.3012411054224,None,,,0,0.5193948959931731,651.7674683453515,None,651.7674683453515,None,,,650.600373223424,None,,,,,1,2022_May_27_0903,Real-fake-judgement-flashing-group1,2021.1.2,59.7875214098726,
138,Trial # 136,Group1-stimuli/group1-block1/real-group1-b1/Group1_IMG_9677.jpg,1,Group1_IMG_9677.jpg,,,,,0.0,135.0,135.0,135.0,,,,,,,,,,,,,,,,,,,652.3172052716836,None,,,1,0.3816251996904611,654.7850846983492,None,654.7850846983492,None,,,653.6191265089437,None,,,,,1,2022_May_27_0903,Real-fake-judgement-flashing-group1,2021.1.2,59.7875214098726,
139,Trial # 137,Group1-stimuli/group1-block1/fake-group2-b1/encoded_Group2_IMG_5982.jpg,0,encoded_Group2_IMG_5982.jpg,,,,,0.0,136.0,136.0,136.0,,,,,,,,,,,,,,,,,,,655.1854323782027,None,,,0,0.4087469037622213,657.6540566394106,None,657.6540566394106,None,,,656.4854257106781,None,,,,,1,2022_May_27_0903,Real-fake-judgement-flashing-group1,2021.1.2,59.7875214098726,
140,Trial # 138,Group1-stimuli/group1-block1/fake-group2-b1/encoded_Group2_IMG_1144.jpg,0,encoded_Group2_IMG_1144.jpg,,,,,0.0,137.0,137.0,137.0,,,,,,,,,,,,,,,,,,,658.0872773788869,None,,,0,0.2451699869707226,660.5536308838055,None,660.5536308838055,None,,,659.3874901393428,None,,,,,1,2022_May_27_0903,Real-fake-judgement-flashing-group1,2021.1.2,59.7875214098726,
141,Trial # 139,Group1-stimuli/group1-block1/fake-group2-b1/encoded_Group2_IMG_0315.jpg,0,encoded_Group2_IMG_0315.jpg,,,,,0.0,138.0,138.0,138.0,,,,,,,,,,,,,,,,,,,660.8199427155778,None,,,1,0.5188354011625051,663.2879694374278,None,663.2879694374278,None,,,662.12054095231,None,,,,,1,2022_May_27_0903,Real-fake-judgement-flashing-group1,2021.1.2,59.7875214098726,
142,Trial # 140,Group1-stimuli/group1-block1/real-group1-b1/Group1_IMG_130.jpg,1,Group1_IMG_130.jpg,,,,,0.0,139.0,139.0,139.0,,,,,,,,,,,,,,,,,,,663.8390736570582,None,,,1,0.4530898388475179,666.3217539684847,None,666.3217539684847,None,,,665.1548660472035,None,,,,,1,2022_May_27_0903,Real-fake-judgement-flashing-group1,2021.1.2,59.7875214098726,
143,Trial # 141,Group1-stimuli/group1-block1/real-group1-b1/Group1_IMG_0024.jpg,1,Group1_IMG_0024.jpg,,,,,0.0,140.0,140.0,140.0,,,,,,,,,,,,,,,,,,,666.8056008312851,None,,,0,0.3808240378275513,669.2739720316604,None,669.2739720316604,None,,,668.1068418668583,None,,,,,1,2022_May_27_0903,Real-fake-judgement-flashing-group1,2021.1.2,59.7875214098726,
144,Trial # 142,Group1-stimuli/group1-block1/fake-group2-b1/encoded_Group2_IMG_5012.jpg,0,encoded_Group2_IMG_5012.jpg,,,,,0.0,141.0,141.0,141.0,,,,,,,,,,,,,,,,,,,669.6739883385599,None,,,0,0.48165696952492,672.1571128545329,None,672.1571128545329,None,,,670.9899357408285,None,,,,,1,2022_May_27_0903,Real-fake-judgement-flashing-group1,2021.1.2,59.7875214098726,
145,Trial # 143,Group1-stimuli/group1-block1/fake-group2-b1/encoded_Group2_IMG_0209.jpg,0,encoded_Group2_IMG_0209.jpg,,,,,0.0,142.0,142.0,142.0,,,,,,,,,,,,,,,,,,,672.6586311077699,None,,,0,0.2421643063426017,675.124667191878,None,675.124667191878,None,,,673.9586256146431,None,,,,,1,2022_May_27_0903,Real-fake-judgement-flashing-group1,2021.1.2,59.7875214098726,
146,Trial # 144,Group1-stimuli/group1-block1/real-group1-b1/Group1_IMG_0373.jpg,1,Group1_IMG_0373.jpg,,,,,0.0,143.0,143.0,143.0,,,,,,,,,,,,,,,,,,,675.3920093160123,None,,,0,0.153804687783122,677.8769992114976,None,677.8769992114976,None,,,676.7082591764629,None,,,,,1,2022_May_27_0903,Real-fake-judgement-flashing-group1,2021.1.2,59.7875214098726,
147,Trial # 145,Group1-stimuli/group1-block1/real-group1-b1/Group1_IMG_5899.jpg,1,Group1_IMG_5899.jpg,,,,,0.0,144.0,144.0,144.0,,,,,,,,,,,,,,,,,,,678.0593277718872,None,,,1,0.2954491106793284,680.5273540839553,None,680.5273540839553,None,,,679.3602412343025,None,,,,,1,2022_May_27_0903,Real-fake-judgement-flashing-group1,2021.1.2,59.7875214098726,
148,Trial # 146,Group1-stimuli/group1-block1/real-group1-b1/Group1_IMG_0162.jpg,1,Group1_IMG_0162.jpg,,,,,0.0,145.0,145.0,145.0,,,,,,,,,,,,,,,,,,,680.8434423655272,None,,,1,0.3752522710710764,683.3275524768978,None,683.3275524768978,None,,,682.1602059323341,None,,,,,1,2022_May_27_0903,Real-fake-judgement-flashing-group1,2021.1.2,59.7875214098726,
149,Trial # 147,Group1-stimuli/group1-block1/real-group1-b1/Group1_IMG_0543.jpg,1,Group1_IMG_0543.jpg,,,,,0.0,146.0,146.0,146.0,,,,,,,,,,,,,,,,,,,683.7275794968009,None,,,1,0.2274135081097483,686.2113979933783,None,686.2113979933783,None,,,685.0443064142019,None,,,,,1,2022_May_27_0903,Real-fake-judgement-flashing-group1,2021.1.2,59.7875214098726,
150,Trial # 148,Group1-stimuli/group1-block1/fake-group2-b1/encoded_Group2_IMG_0355.jpg,0,encoded_Group2_IMG_0355.jpg,,,,,0.0,147.0,147.0,147.0,,,,,,,,,,,,,,,,,,,686.462164231576,None,,,0,0.2775460239499807,688.9132574135438,None,688.9132574135438,None,,,687.7463402152061,None,,,,,1,2022_May_27_0903,Real-fake-judgement-flashing-group1,2021.1.2,59.7875214098726,
151,Trial # 149,Group1-stimuli/group1-block1/real-group1-b1/Group1_IMG_9765.jpg,1,Group1_IMG_9765.jpg,,,,,0.0,148.0,148.0,148.0,,,,,,,,,,,,,,,,,,,689.2136205537245,None,,,1,0.1270142002031207,691.6797894509509,None,691.6797894509509,None,,,690.5126100787893,None,,,,,1,2022_May_27_0903,Real-fake-judgement-flashing-group1,2021.1.2,59.7875214098726,
152,Trial # 150,Group1-stimuli/group1-block1/fake-group2-b1/encoded_Group2_IMG_1378.jpg,0,encoded_Group2_IMG_1378.jpg,,,,,0.0,149.0,149.0,149.0,,,,,,,,,,,,,,,,,,,691.8297286387533,None,,,0,0.1802144525572657,694.2984966570511,None,694.2984966570511,None,,,693.1312398193404,None,,,,,1,2022_May_27_0903,Real-fake-judgement-flashing-group1,2021.1.2,59.7875214098726,
153,Trial # 1,Group1-stimuli/group1-block2/fake-group2-b2/encoded_Group2_IMG_0155.jpg,0,encoded_Group2_IMG_0155.jpg,,,,,,,,,0.0,0.0,0.0,0.0,,,,,,,,,,,,,,,700.8908989857882,None,,,0,0.4982884312048554,703.3005271721631,None,703.3005271721631,None,698.4829159909859,None,702.2161953812465,None,694.4976374953985,None,,,1,2022_May_27_0903,Real-fake-judgement-flashing-group1,2021.1.2,59.7875214098726,
154,Trial # 2,Group1-stimuli/group1-block2/real-group1-b2/Group1_IMG_0519.jpg,1,Group1_IMG_0519.jpg,,,,,,,,,0.0,1.0,1.0,1.0,,,,,,,,,,,,,,,703.8182029062882,None,,,0,0.4095949567854404,706.3012776337564,None,706.3012776337564,None,,,705.1338196005672,None,,,,,1,2022_May_27_0903,Real-fake-judgement-flashing-group1,2021.1.2,59.7875214098726,
155,Trial # 3,Group1-stimuli/group1-block2/fake-group2-b2/encoded_Group2_IMG_0135.jpg,0,encoded_Group2_IMG_0135.jpg,,,,,,,,,0.0,2.0,2.0,2.0,,,,,,,,,,,,,,,706.7352443672717,None,,,0,0.3317453023046255,709.2030687546358,None,709.2030687546358,None,,,708.0359052494168,None,,,,,1,2022_May_27_0903,Real-fake-judgement-flashing-group1,2021.1.2,59.7875214098726,
156,Trial # 4,Group1-stimuli/group1-block2/real-group1-b2/Group1_IMG_5310.jpg,1,Group1_IMG_5310.jpg,,,,,,,,,0.0,3.0,3.0,3.0,,,,,,,,,,,,,,,709.5521716754884,None,,,1,0.5154605433344841,712.0192938875407,None,712.0192938875407,None,,,710.8688552109525,None,,,,,1,2022_May_27_0903,Real-fake-judgement-flashing-group1,2021.1.2,59.7875214098726,
157,Trial # 5,Group1-stimuli/group1-block2/real-group1-b2/Group1_IMG_0522.jpg,1,Group1_IMG_0522.jpg,,,,,,,,,0.0,4.0,4.0,4.0,,,,,,,,,,,,,,,712.552983334288,None,,,1,0.1937384670600295,715.0210767677054,None,715.0210767677054,None,,,713.8709344007075,None,,,,,1,2022_May_27_0903,Real-fake-judgement-flashing-group1,2021.1.2,59.7875214098726,
158,Trial # 6,Group1-stimuli/group1-block2/fake-group2-b2/encoded_Group2_IMG_0484.jpg,0,encoded_Group2_IMG_0484.jpg,,,,,,,,,0.0,5.0,5.0,5.0,,,,,,,,,,,,,,,715.2369755906984,None,,,0,0.5325301457196474,717.7222671043128,None,717.7222671043128,None,,,716.5541300158948,None,,,,,1,2022_May_27_0903,Real-fake-judgement-flashing-group1,2021.1.2,59.7875214098726,
159,Trial # 7,Group1-stimuli/group1-block2/fake-group2-b2/encoded_Group2_IMG_5948.jpg,0,encoded_Group2_IMG_5948.jpg,,,,,,,,,0.0,6.0,6.0,6.0,,,,,,,,,,,,,,,718.2716696597636,None,,,0,0.3238994125276804,720.73889118433,None,720.73889118433,None,,,719.5716980900615,None,,,,,1,2022_May_27_0903,Real-fake-judgement-flashing-group1,2021.1.2,59.7875214098726,
160,Trial # 8,Group1-stimuli/group1-block2/fake-group2-b2/encoded_Group2_IMG_3591.jpg,0,encoded_Group2_IMG_3591.jpg,,,,,,,,,0.0,7.0,7.0,7.0,,,,,,,,,,,,,,,721.0891957469285,None,,,0,0.2492963364347815,723.5575199266896,None,723.5575199266896,None,,,722.4060053052381,None,,,,,1,2022_May_27_0903,Real-fake-judgement-flashing-group1,2021.1.2,59.7875214098726,
161,Trial # 9,Group1-stimuli/group1-block2/real-group1-b2/Group1_IMG_9835.jpg,1,Group1_IMG_9835.jpg,,,,,,,,,0.0,8.0,8.0,8.0,,,,,,,,,,,,,,,723.8243462219834,None,,,1,0.251555941067636,726.3072451492772,None,726.3072451492772,None,,,725.1565708713606,None,,,,,1,2022_May_27_0903,Real-fake-judgement-flashing-group1,2021.1.2,59.7875214098726,
162,Trial # 10,Group1-stimuli/group1-block2/real-group1-b2/Group1_IMG_0556.jpg,1,Group1_IMG_0556.jpg,,,,,,,,,0.0,9.0,9.0,9.0,,,,,,,,,,,,,,,726.5911288345233,None,,,1,0.6914278026670218,729.0593556212261,None,729.0593556212261,None,,,727.9087030924857,None,,,,,1,2022_May_27_0903,Real-fake-judgement-flashing-group1,2021.1.2,59.7875214098726,
163,Trial # 11,Group1-stimuli/group1-block2/fake-group2-b2/encoded_Group2_IMG_9736.jpg,0,encoded_Group2_IMG_9736.jpg,,,,,,,,,0.0,10.0,10.0,10.0,,,,,,,,,,,,,,,729.7758006751537,None,,,0,0.2677029371261596,732.2590227415785,None,732.2590227415785,None,,,731.0917495433241,None,,,,,1,2022_May_27_0903,Real-fake-judgement-flashing-group1,2021.1.2,59.7875214098726,
164,Trial # 12,Group1-stimuli/group1-block2/real-group1-b2/Group1_IMG_9867.jpg,1,Group1_IMG_9867.jpg,,,,,,,,,0.0,11.0,11.0,11.0,,,,,,,,,,,,,,,732.5584256509319,None,,,0,0.2755122920498252,735.0432918826118,None,735.0432918826118,None,,,733.8771169558167,None,,,,,1,2022_May_27_0903,Real-fake-judgement-flashing-group1,2021.1.2,59.7875214098726,
165,Trial # 13,Group1-stimuli/group1-block2/fake-group2-b2/encoded_Group2_IMG_9886.jpg,0,encoded_Group2_IMG_9886.jpg,,,,,,,,,0.0,12.0,12.0,12.0,,,,,,,,,,,,,,,735.3444413822144,None,,,0,0.1558211343362927,737.8109829640016,None,737.8109829640016,None,,,736.6435679234564,None,,,,,1,2022_May_27_0903,Real-fake-judgement-flashing-group1,2021.1.2,59.7875214098726,
166,Trial # 14,Group1-stimuli/group1-block2/fake-group2-b2/encoded_Group2_IMG_2245.jpg,0,encoded_Group2_IMG_2245.jpg,,,,,,,,,0.0,13.0,13.0,13.0,,,,,,,,,,,,,,,737.9953451510519,None,,,0,2.289121625013649,740.4616824882105,None,740.4616824882105,None,,,739.2955545410514,None,,,,,1,2022_May_27_0903,Real-fake-judgement-flashing-group1,2021.1.2,59.7875214098726,
167,Trial # 15,Group1-stimuli/group1-block2/fake-group2-b2/encoded_Group2_IMG_0507.jpg,0,encoded_Group2_IMG_0507.jpg,,,,,,,,,0.0,14.0,14.0,14.0,,,,,,,,,,,,,,,742.7795530874282,None,,,0,0.0319674741476774,745.2468468854204,None,745.2468468854204,None,,,744.080516166985,None,,,,,1,2022_May_27_0903,Real-fake-judgement-flashing-group1,2021.1.2,59.7875214098726,
168,Trial # 16,Group1-stimuli/group1-block2/fake-group2-b2/encoded_Group2_IMG_0338.jpg,0,encoded_Group2_IMG_0338.jpg,,,,,,,,,0.0,15.0,15.0,15.0,,,,,,,,,,,,,,,745.2976239770651,None,,,0,0.1698794709518551,747.7809232035652,None,747.7809232035652,None,,,746.6131658796221,None,,,,,1,2022_May_27_0903,Real-fake-judgement-flashing-group1,2021.1.2,59.7875214098726,
169,Trial # 17,Group1-stimuli/group1-block2/real-group1-b2/Group1_IMG_0376.jpg,1,Group1_IMG_0376.jpg,,,,,,,,,0.0,16.0,16.0,16.0,,,,,,,,,,,,,,,747.9810193749145,None,,,1,0.4702392295002937,750.4645537305623,None,750.4645537305623,None,,,749.2980755371973,None,,,,,1,2022_May_27_0903,Real-fake-judgement-flashing-group1,2021.1.2,59.7875214098726,
170,Trial # 18,Group1-stimuli/group1-block2/real-group1-b2/Group1_IMG_9821.jpg,1,Group1_IMG_9821.jpg,,,,,,,,,0.0,17.0,17.0,17.0,,,,,,,,,,,,,,,750.9649266302586,None,,,1,0.3733018198981881,753.4335025399923,None,753.4335025399923,None,,,752.2648264504969,None,,,,,1,2022_May_27_0903,Real-fake-judgement-flashing-group1,2021.1.2,59.7875214098726,
171,Trial # 19,Group1-stimuli/group1-block2/fake-group2-b2/encoded_Group2_IMG_0388.jpg,0,encoded_Group2_IMG_0388.jpg,,,,,,,,,0.0,18.0,18.0,18.0,,,,,,,,,,,,,,,753.8338054027408,None,,,0,0.2668993482366204,756.2998388493434,None,756.2998388493434,None,,,755.1334085324779,None,,,,,1,2022_May_27_0903,Real-fake-judgement-flashing-group1,2021.1.2,59.7875214098726,
172,Trial # 20,Group1-stimuli/group1-block2/fake-group2-b2/encoded_Group2_IMG_0222.jpg,0,encoded_Group2_IMG_0222.jpg,,,,,,,,,0.0,19.0,19.0,19.0,,,,,,,,,,,,,,,756.6004787078127,None,,,0,0.1782459849491715,759.0685540521517,None,759.0685540521517,None,,,757.9182294812053,None,,,,,1,2022_May_27_0903,Real-fake-judgement-flashing-group1,2021.1.2,59.7875214098726,
173,Trial # 21,Group1-stimuli/group1-block2/fake-group2-b2/encoded_Group2_IMG_2215.jpg,0,encoded_Group2_IMG_2215.jpg,,,,,,,,,0.0,20.0,20.0,20.0,,,,,,,,,,,,,,,759.2685246933252,None,,,0,0.2715682918205857,761.7512356135994,None,761.7512356135994,None,,,760.584102245979,None,,,,,1,2022_May_27_0903,Real-fake-judgement-flashing-group1,2021.1.2,59.7875214098726,
174,Trial # 22,Group1-stimuli/group1-block2/real-group1-b2/Group1_IMG_9760.jpg,1,Group1_IMG_9760.jpg,,,,,,,,,0.0,21.0,21.0,21.0,,,,,,,,,,,,,,,762.0511093828827,None,,,1,0.2552256556227803,764.5355797111988,None,764.5355797111988,None,,,763.3698722543195,None,,,,,1,2022_May_27_0903,Real-fake-judgement-flashing-group1,2021.1.2,59.7875214098726,
175,Trial # 23,Group1-stimuli/group1-block2/real-group1-b2/Group1_IMG_9897.jpg,1,Group1_IMG_9897.jpg,,,,,,,,,0.0,22.0,22.0,22.0,,,,,,,,,,,,,,,764.8201018627733,None,,,1,0.4485771674662828,767.2861851332709,None,767.2861851332709,None,,,766.1370889423415,None,,,,,1,2022_May_27_0903,Real-fake-judgement-flashing-group1,2021.1.2,59.7875214098726,
176,Trial # 24,Group1-stimuli/group1-block2/real-group1-b2/Group1_IMG_4250.jpg,1,Group1_IMG_4250.jpg,,,,,,,,,0.0,23.0,23.0,23.0,,,,,,,,,,,,,,,767.7546470249072,None,,,1,0.6102231089025736,770.2206244422123,None,770.2206244422123,None,,,769.054834828712,None,,,,,1,2022_May_27_0903,Real-fake-judgement-flashing-group1,2021.1.2,59.7875214098726,
177,Trial # 25,Group1-stimuli/group1-block2/real-group1-b2/Group1_IMG_2244.jpg,1,Group1_IMG_2244.jpg,,,,,,,,,0.0,24.0,24.0,24.0,,,,,,,,,,,,,,,770.8542480692267,None,,,1,0.48355314694345,773.32318684645,None,773.32318684645,None,,,772.1715213488787,None,,,,,1,2022_May_27_0903,Real-fake-judgement-flashing-group1,2021.1.2,59.7875214098726,
178,Trial # 26,Group1-stimuli/group1-block2/fake-group2-b2/encoded_Group2_IMG_0501.jpg,0,encoded_Group2_IMG_0501.jpg,,,,,,,,,0.0,25.0,25.0,25.0,,,,,,,,,,,,,,,773.8397897686809,None,,,0,0.4128283094614744,776.3059796867892,None,776.3059796867892,None,,,775.1388661563396,None,,,,,1,2022_May_27_0903,Real-fake-judgement-flashing-group1,2021.1.2,59.7875214098726,
179,Trial # 27,Group1-stimuli/group1-block2/real-group1-b2/Group1_IMG_9684.jpg,1,Group1_IMG_9684.jpg,,,,,,,,,0.0,26.0,26.0,26.0,,,,,,,,,,,,,,,776.7402740921825,None,,,1,0.3108664499595761,779.2079378915951,None,779.2079378915951,None,,,778.0575641803443,None,,,,,1,2022_May_27_0903,Real-fake-judgement-flashing-group1,2021.1.2,59.7875214098726,
180,Trial # 28,Group1-stimuli/group1-block2/real-group1-b2/Group1_IMG_1039.jpg,1,Group1_IMG_1039.jpg,,,,,,,,,0.0,27.0,27.0,27.0,,,,,,,,,,,,,,,779.5404137233272,None,,,1,0.5743466708809137,782.0244573634118,None,782.0244573634118,None,,,780.8572708591819,None,,,,,1,2022_May_27_0903,Real-fake-judgement-flashing-group1,2021.1.2,59.7875214098726,
181,Trial # 29,Group1-stimuli/group1-block2/fake-group2-b2/encoded_Group2_IMG_0251.jpg,0,encoded_Group2_IMG_0251.jpg,,,,,,,,,0.0,28.0,28.0,28.0,,,,,,,,,,,,,,,782.6243644217029,None,,,0,0.3466866808012128,785.0921274824068,None,785.0921274824068,None,,,783.9426066009328,None,,,,,1,2022_May_27_0903,Real-fake-judgement-flashing-group1,2021.1.2,59.7875214098726,
182,Trial # 30,Group1-stimuli/group1-block2/real-group1-b2/Group1_IMG_9692.jpg,1,Group1_IMG_9692.jpg,,,,,,,,,0.0,29.0,29.0,29.0,,,,,,,,,,,,,,,785.4588356977329,None,,,1,0.7681120028719306,787.9267282243818,None,787.9267282243818,None,,,786.7758390847594,None,,,,,1,2022_May_27_0903,Real-fake-judgement-flashing-group1,2021.1.2,59.7875214098726,
183,Trial # 31,Group1-stimuli/group1-block2/real-group1-b2/Group1_IMG_0512.jpg,1,Group1_IMG_0512.jpg,,,,,,,,,0.0,30.0,30.0,30.0,,,,,,,,,,,,,,,788.7277137702331,None,,,1,0.611475283280015,791.2273374190554,None,791.2273374190554,None,,,790.07679600548,None,,,,,1,2022_May_27_0903,Real-fake-judgement-flashing-group1,2021.1.2,59.7875214098726,
184,Trial # 32,Group1-stimuli/group1-block2/fake-group2-b2/encoded_Group2_IMG_9673.jpg,0,encoded_Group2_IMG_9673.jpg,,,,,,,,,0.0,31.0,31.0,31.0,,,,,,,,,,,,,,,791.860727106221,None,,,0,0.1655695587396621,794.3292248109356,None,794.3292248109356,None,,,793.178161800839,None,,,,,1,2022_May_27_0903,Real-fake-judgement-flashing-group1,2021.1.2,59.7875214098726,
185,Trial # 33,Group1-stimuli/group1-block2/fake-group2-b2/encoded_Group2_IMG_5135.jpg,0,encoded_Group2_IMG_5135.jpg,,,,,,,,,0.0,32.0,32.0,32.0,,,,,,,,,,,,,,,794.5115701369941,None,,,0,0.3311302568763494,796.9956375639886,None,796.9956375639886,None,,,795.8286281516775,None,,,,,1,2022_May_27_0903,Real-fake-judgement-flashing-group1,2021.1.2,59.7875214098726,
186,Trial # 34,Group1-stimuli/group1-block2/real-group1-b2/Group1_IMG_0396.jpg,1,Group1_IMG_0396.jpg,,,,,,,,,0.0,33.0,33.0,33.0,,,,,,,,,,,,,,,797.3456387678161,None,,,0,0.3854739917442202,799.8133365139365,None,799.8133365139365,None,,,798.6640043305233,None,,,,,1,2022_May_27_0903,Real-fake-judgement-flashing-group1,2021.1.2,59.7875214098726,
187,Trial # 35,Group1-stimuli/group1-block2/real-group1-b2/Group1_IMG_4919.jpg,1,Group1_IMG_4919.jpg,,,,,,,,,0.0,34.0,34.0,34.0,,,,,,,,,,,,,,,800.2302452055737,None,,,1,0.3961063213646412,802.6986962333322,None,802.6986962333322,None,,,801.5305396439508,None,,,,,1,2022_May_27_0903,Real-fake-judgement-flashing-group1,2021.1.2,59.7875214098726,
188,Trial # 36,Group1-stimuli/group1-block2/real-group1-b2/Group1_IMG_0449.jpg,1,Group1_IMG_0449.jpg,,,,,,,,,0.0,35.0,35.0,35.0,,,,,,,,,,,,,,,803.115531174466,None,,,0,0.624336851760745,805.598465715535,None,805.598465715535,None,,,804.4324660897255,None,,,,,1,2022_May_27_0903,Real-fake-judgement-flashing-group1,2021.1.2,59.7875214098726,
189,Trial # 37,Group1-stimuli/group1-block2/fake-group2-b2/encoded_Group2_IMG_0539.jpg,0,encoded_Group2_IMG_0539.jpg,,,,,,,,,0.0,36.0,36.0,36.0,,,,,,,,,,,,,,,806.2485709534958,None,,,0,0.3384862253442406,808.71631736774,None,808.71631736774,None,,,807.5650300849229,None,,,,,1,2022_May_27_0903,Real-fake-judgement-flashing-group1,2021.1.2,59.7875214098726,
190,Trial # 38,Group1-stimuli/group1-block2/real-group1-b2/Group1_IMG_0453.jpg,1,Group1_IMG_0453.jpg,,,,,,,,,0.0,37.0,37.0,37.0,,,,,,,,,,,,,,,809.0840184325352,None,,,1,0.1679285811260342,811.56681062188,None,811.56681062188,None,,,810.3997234385461,None,,,,,1,2022_May_27_0903,Real-fake-judgement-flashing-group1,2021.1.2,59.7875214098726,
191,Trial # 39,Group1-stimuli/group1-block2/fake-group2-b2/encoded_Group2_IMG_0318.jpg,0,encoded_Group2_IMG_0318.jpg,,,,,,,,,0.0,38.0,38.0,38.0,,,,,,,,,,,,,,,811.7669788897038,None,,,0,0.4991698255762458,814.235567420721,None,814.235567420721,None,,,813.085092314519,None,,,,,1,2022_May_27_0903,Real-fake-judgement-flashing-group1,2021.1.2,59.7875214098726,
192,Trial # 40,Group1-stimuli/group1-block2/real-group1-b2/Group1_IMG_1678.jpg,1,Group1_IMG_1678.jpg,,,,,,,,,0.0,39.0,39.0,39.0,,,,,,,,,,,,,,,814.7681744601578,None,,,1,0.3155026705935597,817.235189541243,None,817.235189541243,None,,,816.084842919372,None,,,,,1,2022_May_27_0903,Real-fake-judgement-flashing-group1,2021.1.2,59.7875214098726,
193,Trial # 41,Group1-stimuli/group1-block2/fake-group2-b2/encoded_Group2_IMG_0325.jpg,0,encoded_Group2_IMG_0325.jpg,,,,,,,,,0.0,40.0,40.0,40.0,,,,,,,,,,,,,,,817.5685993507504,None,,,0,0.3306584917008877,820.0361417131498,None,820.0361417131498,None,,,818.9360793503001,None,,,,,1,2022_May_27_0903,Real-fake-judgement-flashing-group1,2021.1.2,59.7875214098726,
194,Trial # 42,Group1-stimuli/group1-block2/fake-group2-b2/encoded_Group2_IMG_9935.jpg,0,encoded_Group2_IMG_9935.jpg,,,,,,,,,0.0,41.0,41.0,41.0,,,,,,,,,,,,,,,820.3863556208089,None,,,0,0.5919575486332178,822.8708453290164,None,822.8708453290164,None,,,821.7032975163311,None,,,,,1,2022_May_27_0903,Real-fake-judgement-flashing-group1,2021.1.2,59.7875214098726,
195,Trial # 43,Group1-stimuli/group1-block2/fake-group2-b2/encoded_Group2_IMG_0308.jpg,0,encoded_Group2_IMG_0308.jpg,,,,,,,,,0.0,42.0,42.0,42.0,,,,,,,,,,,,,,,823.4887385806069,None,,,0,0.5717764524742961,825.9550278494135,None,825.9550278494135,None,,,824.7876220736653,None,,,,,1,2022_May_27_0903,Real-fake-judgement-flashing-group1,2021.1.2,59.7875214098726,
196,Trial # 44,Group1-stimuli/group1-block2/real-group1-b2/Group1_IMG_0467.jpg,1,Group1_IMG_0467.jpg,,,,,,,,,0.0,43.0,43.0,43.0,,,,,,,,,,,,,,,826.5547115830705,None,,,1,0.2803043061867356,829.022503612563,None,829.022503612563,None,,,827.872914198786,None,,,,,1,2022_May_27_0903,Real-fake-judgement-flashing-group1,2021.1.2,59.7875214098726,
197,Trial # 45,Group1-stimuli/group1-block2/fake-group2-b2/encoded_Group2_IMG_9839.jpg,0,encoded_Group2_IMG_9839.jpg,,,,,,,,,0.0,44.0,44.0,44.0,,,,,,,,,,,,,,,829.3236491540447,None,,,1,0.3049733098596334,831.7898653382435,None,831.7898653382435,None,,,830.6225238777697,None,,,,,1,2022_May_27_0903,Real-fake-judgement-flashing-group1,2021.1.2,59.7875214098726,
198,Trial # 46,Group1-stimuli/group1-block2/fake-group2-b2/encoded_Group2_IMG_9681.jpg,0,encoded_Group2_IMG_9681.jpg,,,,,,,,,0.0,45.0,45.0,45.0,,,,,,,,,,,,,,,832.1229963572696,None,,,0,0.7596381930634379,834.591164839454,None,834.591164839454,None,,,833.4248524159193,None,,,,,1,2022_May_27_0903,Real-fake-judgement-flashing-group1,2021.1.2,59.7875214098726,
199,Trial # 47,Group1-stimuli/group1-block2/fake-group2-b2/encoded_Group2_IMG_0458.jpg,0,encoded_Group2_IMG_0458.jpg,,,,,,,,,0.0,46.0,46.0,46.0,,,,,,,,,,,,,,,835.3743450976908,None,,,0,0.3246729196980595,837.8421790739521,None,837.8421790739521,None,,,836.6745775230229,None,,,,,1,2022_May_27_0903,Real-fake-judgement-flashing-group1,2021.1.2,59.7875214098726,
200,Trial # 48,Group1-stimuli/group1-block2/real-group1-b2/Group1_IMG_1095.jpg,1,Group1_IMG_1095.jpg,,,,,,,,,0.0,47.0,47.0,47.0,,,,,,,,,,,,,,,838.1917998595163,None,,,0,0.3070396305993199,840.6757657555863,None,840.6757657555863,None,,,839.5092196250334,None,,,,,1,2022_May_27_0903,Real-fake-judgement-flashing-group1,2021.1.2,59.7875214098726,
201,Trial # 49,Group1-stimuli/group1-block2/fake-group2-b2/encoded_Group2_IMG_9710.jpg,0,encoded_Group2_IMG_9710.jpg,,,,,,,,,0.0,48.0,48.0,48.0,,,,,,,,,,,,,,,841.00962724071,None,,,0,0.3527943566441536,843.4780096029863,None,843.4780096029863,None,,,842.3096675416455,None,,,,,1,2022_May_27_0903,Real-fake-judgement-flashing-group1,2021.1.2,59.7875214098726,
202,Trial # 50,Group1-stimuli/group1-block2/fake-group2-b2/encoded_Group2_IMG_9819.jpg,0,encoded_Group2_IMG_9819.jpg,,,,,,,,,0.0,49.0,49.0,49.0,,,,,,,,,,,,,,,843.8613709518686,None,,,0,0.3579013701528311,846.3448989158496,None,846.3448989158496,None,,,845.1605926603079,None,,,,,1,2022_May_27_0903,Real-fake-judgement-flashing-group1,2021.1.2,59.7875214098726,
203,Trial # 51,Group1-stimuli/group1-block2/real-group1-b2/Group1_IMG_0064.jpg,1,Group1_IMG_0064.jpg,,,,,,,,,0.0,50.0,50.0,50.0,,,,,,,,,,,,,,,846.7274394491687,None,,,1,0.4737580846995115,849.213044562377,None,849.213044562377,None,,,848.0459593702108,None,,,,,1,2022_May_27_0903,Real-fake-judgement-flashing-group1,2021.1.2,59.7875214098726,
204,Trial # 52,Group1-stimuli/group1-block2/fake-group2-b2/encoded_Group2_IMG_9756.jpg,0,encoded_Group2_IMG_9756.jpg,,,,,,,,,0.0,51.0,51.0,51.0,,,,,,,,,,,,,,,849.7133059287444,None,,,0,0.3226139061152935,852.1962242964655,None,852.1962242964655,None,,,851.0290616629645,None,,,,,1,2022_May_27_0903,Real-fake-judgement-flashing-group1,2021.1.2,59.7875214098726,
205,Trial # 53,Group1-stimuli/group1-block2/fake-group2-b2/encoded_Group2_IMG_5888.jpg,0,encoded_Group2_IMG_5888.jpg,,,,,,,,,0.0,52.0,52.0,52.0,,,,,,,,,,,,,,,852.5455934945494,None,,,0,0.1290553407743573,855.0137474760413,None,855.0137474760413,None,,,853.847599375993,None,,,,,1,2022_May_27_0903,Real-fake-judgement-flashing-group1,2021.1.2,59.7875214098726,
206,Trial # 54,Group1-stimuli/group1-block2/real-group1-b2/Group1_IMG_1476.jpg,1,Group1_IMG_1476.jpg,,,,,,,,,0.0,53.0,53.0,53.0,,,,,,,,,,,,,,,855.1637798352167,None,,,1,0.3348979651927948,857.6478431671858,None,857.6478431671858,None,,,856.4806400788948,None,,,,,1,2022_May_27_0903,Real-fake-judgement-flashing-group1,2021.1.2,59.7875214098726,
207,Trial # 55,Group1-stimuli/group1-block2/real-group1-b2/Group1_IMG_1917.jpg,1,Group1_IMG_1917.jpg,,,,,,,,,0.0,54.0,54.0,54.0,,,,,,,,,,,,,,,858.0161804892123,None,,,1,0.3567154565826058,860.4820934701711,None,860.4820934701711,None,,,859.3156799022108,None,,,,,1,2022_May_27_0903,Real-fake-judgement-flashing-group1,2021.1.2,59.7875214098726,
208,Trial # 56,Group1-stimuli/group1-block2/real-group1-b2/Group1_IMG_0413.jpg,1,Group1_IMG_0413.jpg,,,,,,,,,0.0,55.0,55.0,55.0,,,,,,,,,,,,,,,860.8657140405849,None,,,1,0.2814816264435649,863.3333342308179,None,863.3333342308179,None,,,862.1821483969688,None,,,,,1,2022_May_27_0903,Real-fake-judgement-flashing-group1,2021.1.2,59.7875214098726,
209,Trial # 57,Group1-stimuli/group1-block2/real-group1-b2/Group1_IMG_1001.jpg,1,Group1_IMG_1001.jpg,,,,,,,,,0.0,56.0,56.0,56.0,,,,,,,,,,,,,,,863.6335927555338,None,,,1,0.2976788412779569,866.1170748770237,None,866.1170748770237,None,,,865.0178669542074,None,,,,,1,2022_May_27_0903,Real-fake-judgement-flashing-group1,2021.1.2,59.7875214098726,
210,Trial # 58,Group1-stimuli/group1-block2/fake-group2-b2/encoded_Group2_IMG_0441.jpg,0,encoded_Group2_IMG_0441.jpg,,,,,,,,,0.0,57.0,57.0,57.0,,,,,,,,,,,,,,,866.4338210159913,None,,,1,0.5532195558771491,868.9015850061551,None,868.9015850061551,None,,,867.7348415357992,None,,,,,1,2022_May_27_0903,Real-fake-judgement-flashing-group1,2021.1.2,59.7875214098726,
211,Trial # 59,Group1-stimuli/group1-block2/real-group1-b2/Group1_IMG_9774.jpg,1,Group1_IMG_9774.jpg,,,,,,,,,0.0,58.0,58.0,58.0,,,,,,,,,,,,,,,869.4862371375784,None,,,1,1.6858972096815703,871.9688428984955,None,871.9688428984955,None,,,870.8182839574292,None,,,,,1,2022_May_27_0903,Real-fake-judgement-flashing-group1,2021.1.2,59.7875214098726,
212,Trial # 60,Group1-stimuli/group1-block2/fake-group2-b2/encoded_Group2_IMG_2751.jpg,0,encoded_Group2_IMG_2751.jpg,,,,,,,,,0.0,59.0,59.0,59.0,,,,,,,,,,,,,,,873.6874047843739,None,,,0,0.4206627467647195,876.1701410524547,None,876.1701410524547,None,,,874.986312915571,None,,,,,1,2022_May_27_0903,Real-fake-judgement-flashing-group1,2021.1.2,59.7875214098726,
213,Trial # 61,Group1-stimuli/group1-block2/fake-group2-b2/encoded_Group2_IMG_0409.jpg,0,encoded_Group2_IMG_0409.jpg,,,,,,,,,0.0,60.0,60.0,60.0,,,,,,,,,,,,,,,876.6203929455951,None,,,0,0.8859119731932878,879.1048988094553,None,879.1048988094553,None,,,877.9216486969963,None,,,,,1,2022_May_27_0903,Real-fake-judgement-flashing-group1,2021.1.2,59.7875214098726,
214,Trial # 62,Group1-stimuli/group1-block2/real-group1-b2/Group1_IMG_1346.jpg,1,Group1_IMG_1346.jpg,,,,,,,,,0.0,61.0,61.0,61.0,,,,,,,,,,,,,,,880.0222463235259,None,,,1,1.340927037410438,882.5058758696541,None,882.5058758696541,None,,,881.3383596427739,None,,,,,1,2022_May_27_0903,Real-fake-judgement-flashing-group1,2021.1.2,59.7875214098726,
215,Trial # 63,Group1-stimuli/group1-block2/real-group1-b2/Group1_IMG_0481.jpg,1,Group1_IMG_0481.jpg,,,,,,,,,0.0,62.0,62.0,62.0,,,,,,,,,,,,,,,883.87304185424,None,,,1,0.3627245360985398,886.3400913402438,None,886.3400913402438,None,,,885.1726133488119,None,,,,,1,2022_May_27_0903,Real-fake-judgement-flashing-group1,2021.1.2,59.7875214098726,
216,Trial # 64,Group1-stimuli/group1-block2/fake-group2-b2/encoded_Group2_IMG_4718.jpg,0,encoded_Group2_IMG_4718.jpg,,,,,,,,,0.0,63.0,63.0,63.0,,,,,,,,,,,,,,,886.7239992339164,None,,,0,0.3906998159363866,889.1921029929072,None,889.1921029929072,None,,,888.0248336289078,None,,,,,1,2022_May_27_0903,Real-fake-judgement-flashing-group1,2021.1.2,59.7875214098726,
217,Trial # 65,Group1-stimuli/group1-block2/real-group1-b2/Group1_IMG_0540.jpg,1,Group1_IMG_0540.jpg,,,,,,,,,0.0,64.0,64.0,64.0,,,,,,,,,,,,,,,889.6076416568831,None,,,1,0.5462493496015668,892.1085441196337,None,892.1085441196337,None,,,890.924566982314,None,,,,,1,2022_May_27_0903,Real-fake-judgement-flashing-group1,2021.1.2,59.7875214098726,
218,Trial # 66,Group1-stimuli/group1-block2/fake-group2-b2/encoded_Group2_IMG_0166.jpg,0,encoded_Group2_IMG_0166.jpg,,,,,,,,,0.0,65.0,65.0,65.0,,,,,,,,,,,,,,,892.67560541071,None,,,1,0.5834780503064394,895.1592698832974,None,895.1592698832974,None,,,893.9933389937505,None,,,,,1,2022_May_27_0903,Real-fake-judgement-flashing-group1,2021.1.2,59.7875214098726,
219,Trial # 67,Group1-stimuli/group1-block2/fake-group2-b2/encoded_Group2_IMG_0412.jpg,0,encoded_Group2_IMG_0412.jpg,,,,,,,,,0.0,66.0,66.0,66.0,,,,,,,,,,,,,,,895.7607232974842,None,,,0,0.179441375657916,898.2273630518466,None,898.2273630518466,None,,,897.0599462203681,None,,,,,1,2022_May_27_0903,Real-fake-judgement-flashing-group1,2021.1.2,59.7875214098726,
220,Trial # 68,Group1-stimuli/group1-block2/real-group1-b2/Group1_IMG_0485.jpg,1,Group1_IMG_0485.jpg,,,,,,,,,0.0,67.0,67.0,67.0,,,,,,,,,,,,,,,898.4284043516964,None,,,1,0.0790767185389995,900.9117262475193,None,900.9117262475193,None,,,899.743905460462,None,,,,,1,2022_May_27_0903,Real-fake-judgement-flashing-group1,2021.1.2,59.7875214098726,
221,Trial # 69,Group1-stimuli/group1-block2/fake-group2-b2/encoded_Group2_IMG_1495.jpg,0,encoded_Group2_IMG_1495.jpg,,,,,,,,,0.0,68.0,68.0,68.0,,,,,,,,,,,,,,,901.0112363342196,None,,,0,0.6309325769543648,903.4798664506524,None,903.4798664506524,None,,,902.3110670689492,None,,,,,1,2022_May_27_0903,Real-fake-judgement-flashing-group1,2021.1.2,59.7875214098726,
222,Trial # 70,Group1-stimuli/group1-block2/real-group1-b2/Group1_IMG_0426.jpg,1,Group1_IMG_0426.jpg,,,,,,,,,0.0,69.0,69.0,69.0,,,,,,,,,,,,,,,904.1301844753324,None,,,1,0.2495156349614262,906.6133049856873,None,906.6133049856873,None,,,905.4457911876962,None,,,,,1,2022_May_27_0903,Real-fake-judgement-flashing-group1,2021.1.2,59.7875214098726,
223,Trial # 71,Group1-stimuli/group1-block2/real-group1-b2/Group1_IMG_0349.jpg,1,Group1_IMG_0349.jpg,,,,,,,,,0.0,70.0,70.0,70.0,,,,,,,,,,,,,,,906.8797581726684,None,,,1,0.4504361422732472,909.3483103197068,None,909.3483103197068,None,,,908.1811890807004,None,,,,,1,2022_May_27_0903,Real-fake-judgement-flashing-group1,2021.1.2,59.7875214098726,
224,Trial # 72,Group1-stimuli/group1-block2/real-group1-b2/Group1_IMG_0414.jpg,1,Group1_IMG_0414.jpg,,,,,,,,,0.0,71.0,71.0,71.0,,,,,,,,,,,,,,,909.8306600749492,None,,,1,0.2520588040351867,912.3147452650592,None,912.3147452650592,None,,,911.1475767027588,None,,,,,1,2022_May_27_0903,Real-fake-judgement-flashing-group1,2021.1.2,59.7875214098726,
225,Trial # 73,Group1-stimuli/group1-block2/fake-group2-b2/encoded_Group2_IMG_9856.jpg,0,encoded_Group2_IMG_9856.jpg,,,,,,,,,0.0,72.0,72.0,72.0,,,,,,,,,,,,,,,912.5982114821672,None,,,0,1.2292464915663004,915.0655530318618,None,915.0655530318618,None,,,913.899587043561,None,,,,,1,2022_May_27_0903,Real-fake-judgement-flashing-group1,2021.1.2,59.7875214098726,
226,Trial # 74,Group1-stimuli/group1-block2/fake-group2-b2/encoded_Group2_IMG_5313.jpg,0,encoded_Group2_IMG_5313.jpg,,,,,,,,,0.0,73.0,73.0,73.0,,,,,,,,,,,,,,,916.3210939941928,None,,,0,0.2875363584607839,918.7832694482058,None,918.7832694482058,None,,,917.6162180220708,None,,,,,1,2022_May_27_0903,Real-fake-judgement-flashing-group1,2021.1.2,59.7875214098726,
227,Trial # 75,Group1-stimuli/group1-block2/fake-group2-b2/encoded_Group2_IMG_0421.jpg,0,encoded_Group2_IMG_0421.jpg,,,,,,,,,0.0,74.0,74.0,74.0,,,,,,,,,,,,,,,919.1012067729608,None,,,0,0.5753024211153388,921.5675004338846,None,921.5675004338846,None,,,920.400497677736,None,,,,,1,2022_May_27_0903,Real-fake-judgement-flashing-group1,2021.1.2,59.7875214098726,
228,Trial # 76,Group1-stimuli/group1-block2/fake-group2-b2/encoded_Group2_IMG_0446.jpg,0,encoded_Group2_IMG_0446.jpg,,,,,,,,,0.0,75.0,75.0,75.0,,,,,,,,,,,,,,,922.1680580908431,None,,,0,0.2758844401687383,924.6349422736092,None,924.6349422736092,None,,,923.4685172215104,None,,,,,1,2022_May_27_0903,Real-fake-judgement-flashing-group1,2021.1.2,59.7875214098726,
229,Trial # 77,Group1-stimuli/group1-block2/real-group1-b2/Group1_IMG_5999.jpg,1,Group1_IMG_5999.jpg,,,,,,,,,0.0,76.0,76.0,76.0,,,,,,,,,,,,,,,924.9353447565808,None,,,0,0.9714372465386988,927.4193636933342,None,927.4193636933342,None,,,926.2521797344089,None,,,,,1,2022_May_27_0903,Real-fake-judgement-flashing-group1,2021.1.2,59.7875214098726,
230,Trial # 78,Group1-stimuli/group1-block2/real-group1-b2/Group1_IMG_0107.jpg,1,Group1_IMG_0107.jpg,,,,,,,,,0.0,77.0,77.0,77.0,,,,,,,,,,,,,,,928.4200180051848,None,,,0,1.1359836170449853,930.8867601426318,None,930.8867601426318,None,,,929.7199228769168,None,,,,,1,2022_May_27_0903,Real-fake-judgement-flashing-group1,2021.1.2,59.7875214098726,
231,Trial # 79,Group1-stimuli/group1-block2/fake-group2-b2/encoded_Group2_IMG_0322.jpg,0,encoded_Group2_IMG_0322.jpg,,,,,,,,,0.0,78.0,78.0,78.0,,,,,,,,,,,,,,,932.0542306890712,None,,,0,0.5080231903120875,934.5227858033032,None,934.5227858033032,None,,,933.3722669482232,None,,,,,1,2022_May_27_0903,Real-fake-judgement-flashing-group1,2021.1.2,59.7875214098726,
232,Trial # 80,Group1-stimuli/group1-block2/fake-group2-b2/encoded_Group2_IMG_4255.jpg,0,encoded_Group2_IMG_4255.jpg,,,,,,,,,0.0,79.0,79.0,79.0,,,,,,,,,,,,,,,935.0550028616562,None,,,0,1.7322529908269644,937.5225619813428,None,937.5225619813428,None,,,936.3553545735776,None,,,,,1,2022_May_27_0903,Real-fake-judgement-flashing-group1,2021.1.2,59.7875214098726,
233,Trial # 81,Group1-stimuli/group1-block2/fake-group2-b2/encoded_Group2_IMG_0219.jpg,0,encoded_Group2_IMG_0219.jpg,,,,,,,,,0.0,80.0,80.0,80.0,,,,,,,,,,,,,,,939.274356400594,None,,,0,0.3142066849395633,941.7406222335994,None,941.7406222335994,None,,,940.573260772042,None,,,,,1,2022_May_27_0903,Real-fake-judgement-flashing-group1,2021.1.2,59.7875214098726,
234,Trial # 82,Group1-stimuli/group1-block2/real-group1-b2/Group1_IMG_0548.jpg,1,Group1_IMG_0548.jpg,,,,,,,,,0.0,81.0,81.0,81.0,,,,,,,,,,,,,,,942.0743402913212,None,,,1,0.0241711819544434,944.542644256726,None,944.542644256726,None,,,943.3918979223818,None,,,,,1,2022_May_27_0903,Real-fake-judgement-flashing-group1,2021.1.2,59.7875214098726,
235,Trial # 83,Group1-stimuli/group1-block2/real-group1-b2/Group1_IMG_0229.jpg,1,Group1_IMG_0229.jpg,,,,,,,,,0.0,82.0,82.0,82.0,,,,,,,,,,,,,,,944.5917432093992,None,,,0,0.315724978223443,947.0751346470788,None,947.0751346470788,None,,,945.9082546206192,None,,,,,1,2022_May_27_0903,Real-fake-judgement-flashing-group1,2021.1.2,59.7875214098726,
236,Trial # 84,Group1-stimuli/group1-block2/fake-group2-b2/encoded_Group2_IMG_0365.jpg,0,encoded_Group2_IMG_0365.jpg,,,,,,,,,0.0,83.0,83.0,83.0,,,,,,,,,,,,,,,947.4086630614474,None,,,0,0.5225169220939279,949.8762874230742,None,949.8762874230742,None,,,948.693660932593,None,,,,,1,2022_May_27_0903,Real-fake-judgement-flashing-group1,2021.1.2,59.7875214098726,
237,Trial # 85,Group1-stimuli/group1-block2/real-group1-b2/Group1_IMG_9822.jpg,1,Group1_IMG_9822.jpg,,,,,,,,,0.0,84.0,84.0,84.0,,,,,,,,,,,,,,,950.4270927216858,None,,,1,0.1669231439009308,952.9118179129435,None,952.9118179129435,None,,,951.7435197671876,None,,,,,1,2022_May_27_0903,Real-fake-judgement-flashing-group1,2021.1.2,59.7875214098726,
238,Trial # 86,Group1-stimuli/group1-block2/fake-group2-b2/encoded_Group2_IMG_0195.jpg,0,encoded_Group2_IMG_0195.jpg,,,,,,,,,0.0,85.0,85.0,85.0,,,,,,,,,,,,,,,953.1110012345016,None,,,0,0.3326397519558668,955.5781791163608,None,955.5781791163608,None,,,954.4120881389828,None,,,,,1,2022_May_27_0903,Real-fake-judgement-flashing-group1,2021.1.2,59.7875214098726,
239,Trial # 87,Group1-stimuli/group1-block2/fake-group2-b2/encoded_Group2_IMG_0494.jpg,0,encoded_Group2_IMG_0494.jpg,,,,,,,,,0.0,86.0,86.0,86.0,,,,,,,,,,,,,,,955.9276750925928,None,,,0,0.7147869253531098,958.3959290320054,None,958.3959290320054,None,,,957.2282791938632,None,,,,,1,2022_May_27_0903,Real-fake-judgement-flashing-group1,2021.1.2,59.7875214098726,
240,Trial # 88,Group1-stimuli/group1-block2/real-group1-b2/Group1_IMG_0509.jpg,1,Group1_IMG_0509.jpg,,,,,,,,,0.0,87.0,87.0,87.0,,,,,,,,,,,,,,,959.1302431374788,None,,,0,0.0894341152161359,961.6133695347236,None,961.6133695347236,None,,,960.4470582269132,None,,,,,1,2022_May_27_0903,Real-fake-judgement-flashing-group1,2021.1.2,59.7875214098726,
241,Trial # 89,Group1-stimuli/group1-block2/fake-group2-b2/encoded_Group2_IMG_8924.jpg,0,encoded_Group2_IMG_8924.jpg,,,,,,,,,0.0,88.0,88.0,88.0,,,,,,,,,,,,,,,961.7298635346816,None,,,1,0.4330658549442887,964.1977333892136,None,964.1977333892136,None,,,963.0314895072952,None,,,,,1,2022_May_27_0903,Real-fake-judgement-flashing-group1,2021.1.2,59.7875214098726,
242,Trial # 90,Group1-stimuli/group1-block2/real-group1-b2/Group1_IMG_0360.jpg,1,Group1_IMG_0360.jpg,,,,,,,,,0.0,89.0,89.0,89.0,,,,,,,,,,,,,,,964.6489168824628,None,,,1,0.323080426082015,967.1317225638776,None,967.1317225638776,None,,,965.9646833734588,None,,,,,1,2022_May_27_0903,Real-fake-judgement-flashing-group1,2021.1.2,59.7875214098726,
243,Trial # 91,Group1-stimuli/group1-block2/fake-group2-b2/encoded_Group2_IMG_0523.jpg,0,encoded_Group2_IMG_0523.jpg,,,,,,,,,0.0,90.0,90.0,90.0,,,,,,,,,,,,,,,967.4814348295332,None,,,0,0.2736987648531794,969.9491041898729,None,969.9491041898729,None,,,968.7664743205532,None,,,,,1,2022_May_27_0903,Real-fake-judgement-flashing-group1,2021.1.2,59.7875214098726,
244,Trial # 92,Group1-stimuli/group1-block2/real-group1-b2/Group1_IMG_0518.jpg,1,Group1_IMG_0518.jpg,,,,,,,,,0.0,91.0,91.0,91.0,,,,,,,,,,,,,,,970.2492469269782,None,,,1,0.2980453111231327,972.7167889922856,None,972.7167889922856,None,,,971.5494760507718,None,,,,,1,2022_May_27_0903,Real-fake-judgement-flashing-group1,2021.1.2,59.7875214098726,
245,Trial # 93,Group1-stimuli/group1-block2/fake-group2-b2/encoded_Group2_IMG_0372.jpg,0,encoded_Group2_IMG_0372.jpg,,,,,,,,,0.0,92.0,92.0,92.0,,,,,,,,,,,,,,,973.0349352536724,None,,,0,0.241901259869337,975.5009034760296,None,975.5009034760296,None,,,974.335088128224,None,,,,,1,2022_May_27_0903,Real-fake-judgement-flashing-group1,2021.1.2,59.7875214098726,
246,Trial # 94,Group1-stimuli/group1-block2/fake-group2-b2/encoded_Group2_IMG_9761.jpg,0,encoded_Group2_IMG_9761.jpg,,,,,,,,,0.0,93.0,93.0,93.0,,,,,,,,,,,,,,,975.7685224115849,None,,,0,0.4435276994481683,978.2351691396908,None,978.2351691396908,None,,,977.0679500037804,None,,,,,1,2022_May_27_0903,Real-fake-judgement-flashing-group1,2021.1.2,59.7875214098726,
247,Trial # 95,Group1-stimuli/group1-block2/real-group1-b2/Group1_IMG_2690.jpg,1,Group1_IMG_2690.jpg,,,,,,,,,0.0,94.0,94.0,94.0,,,,,,,,,,,,,,,978.702730011195,None,,,1,0.1886975541710853,981.186105782166,None,981.186105782166,None,,,980.0189371667802,None,,,,,1,2022_May_27_0903,Real-fake-judgement-flashing-group1,2021.1.2,59.7875214098726,
248,Trial # 96,Group1-stimuli/group1-block2/real-group1-b2/Group1_IMG_9855.jpg,1,Group1_IMG_9855.jpg,,,,,,,,,0.0,95.0,95.0,95.0,,,,,,,,,,,,,,,981.4025878179818,None,,,1,0.6084547359496355,983.87034814246,None,983.87034814246,None,,,982.7195725543424,None,,,,,1,2022_May_27_0903,Real-fake-judgement-flashing-group1,2021.1.2,59.7875214098726,
249,Trial # 97,Group1-stimuli/group1-block2/fake-group2-b2/encoded_Group2_IMG_0470.jpg,0,encoded_Group2_IMG_0470.jpg,,,,,,,,,0.0,96.0,96.0,96.0,,,,,,,,,,,,,,,984.5049598980696,None,,,0,0.4316127570345998,986.9590980494396,None,986.9590980494396,None,,,985.7921806788072,None,,,,,1,2022_May_27_0903,Real-fake-judgement-flashing-group1,2021.1.2,59.7875214098726,
250,Trial # 98,Group1-stimuli/group1-block2/fake-group2-b2/encoded_Group2_IMG_1191.jpg,0,encoded_Group2_IMG_1191.jpg,,,,,,,,,0.0,97.0,97.0,97.0,,,,,,,,,,,,,,,987.4090174483136,None,,,0,0.2780521307140589,989.8887509554625,None,989.8887509554625,None,,,988.7228057421744,None,,,,,1,2022_May_27_0903,Real-fake-judgement-flashing-group1,2021.1.2,59.7875214098726,
251,Trial # 99,Group1-stimuli/group1-block2/real-group1-b2/Group1_IMG_9937.jpg,1,Group1_IMG_9937.jpg,,,,,,,,,0.0,98.0,98.0,98.0,,,,,,,,,,,,,,,990.1888155797496,None,,,1,0.0866552675142884,992.6561362892388,None,992.6561362892388,None,,,991.4889602614568,None,,,,,1,2022_May_27_0903,Real-fake-judgement-flashing-group1,2021.1.2,59.7875214098726,
252,Trial # 100,Group1-stimuli/group1-block2/fake-group2-b2/encoded_Group2_IMG_0106.jpg,0,encoded_Group2_IMG_0106.jpg,,,,,,,,,0.0,99.0,99.0,99.0,,,,,,,,,,,,,,,992.7742239851505,None,,,0,0.222257187590003,995.2405700320378,None,995.2405700320378,None,,,994.0742899263278,None,,,,,1,2022_May_27_0903,Real-fake-judgement-flashing-group1,2021.1.2,59.7875214098726,
253,Trial # 101,Group1-stimuli/group1-block2/real-group1-b2/Group1_IMG_2790.jpg,1,Group1_IMG_2790.jpg,,,,,,,,,0.0,100.0,100.0,100.0,,,,,,,,,,,,,,,995.4918149597944,None,,,0,0.1030759923160076,997.9757282407954,None,997.9757282407954,None,,,996.807315436192,None,,,,,1,2022_May_27_0903,Real-fake-judgement-flashing-group1,2021.1.2,59.7875214098726,
254,Trial # 102,Group1-stimuli/group1-block2/real-group1-b2/Group1_IMG_9792.jpg,1,Group1_IMG_9792.jpg,,,,,,,,,0.0,101.0,101.0,101.0,,,,,,,,,,,,,,,998.1092343628408,None,,,1,0.1743086259812116,1000.5924952207132,None,1000.5924952207132,None,,,999.442763957195,None,,,,,1,2022_May_27_0903,Real-fake-judgement-flashing-group1,2021.1.2,59.7875214098726,
255,Trial # 103,Group1-stimuli/group1-block2/real-group1-b2/Group1_IMG_1640.jpg,1,Group1_IMG_1640.jpg,,,,,,,,,0.0,102.0,102.0,102.0,,,,,,,,,,,,,,,1000.7920579034836,None,,,1,0.7460949691012502,1003.2607199344784,None,1003.2607199344784,None,,,1002.0924510853364,None,,,,,1,2022_May_27_0903,Real-fake-judgement-flashing-group1,2021.1.2,59.7875214098726,
256,Trial # 104,Group1-stimuli/group1-block2/real-group1-b2/Group1_IMG_0033.jpg,1,Group1_IMG_0033.jpg,,,,,,,,,0.0,103.0,103.0,103.0,,,,,,,,,,,,,,,1004.026890314184,None,,,1,0.2163521153852343,1006.5104610733688,None,1006.5104610733688,None,,,1005.3435903480276,None,,,,,1,2022_May_27_0903,Real-fake-judgement-flashing-group1,2021.1.2,59.7875214098726,
257,Trial # 105,Group1-stimuli/group1-block2/real-group1-b2/Group1_IMG_0079.jpg,1,Group1_IMG_0079.jpg,,,,,,,,,0.0,104.0,104.0,104.0,,,,,,,,,,,,,,,1006.7447108374909,None,,,1,0.3464468503370881,1009.2123616812752,None,1009.2123616812752,None,,,1008.0620271805674,None,,,,,1,2022_May_27_0903,Real-fake-judgement-flashing-group1,2021.1.2,59.7875214098726,
258,Trial # 106,Group1-stimuli/group1-block2/fake-group2-b2/encoded_Group2_IMG_9909.jpg,0,encoded_Group2_IMG_9909.jpg,,,,,,,,,0.0,105.0,105.0,105.0,,,,,,,,,,,,,,,1009.5781573550776,None,,,0,0.697440623305738,1012.0454074898736,None,1012.0454074898736,None,,,1010.878297880292,None,,,,,1,2022_May_27_0903,Real-fake-judgement-flashing-group1,2021.1.2,59.7875214098726,
259,Trial # 107,Group1-stimuli/group1-block2/fake-group2-b2/encoded_Group2_IMG_0398.jpg,0,encoded_Group2_IMG_0398.jpg,,,,,,,,,0.0,106.0,106.0,106.0,,,,,,,,,,,,,,,1012.7637271098793,None,,,0,0.2648690184578299,1015.2298654122278,None,1015.2298654122278,None,,,1014.0638288548216,None,,,,,1,2022_May_27_0903,Real-fake-judgement-flashing-group1,2021.1.2,59.7875214098726,
260,Trial # 108,Group1-stimuli/group1-block2/real-group1-b2/Group1_IMG_4268.jpg,1,Group1_IMG_4268.jpg,,,,,,,,,0.0,107.0,107.0,107.0,,,,,,,,,,,,,,,1015.5132415425032,None,,,1,0.3530693920329213,1017.9977360218764,None,1017.9977360218764,None,,,1016.8136570854113,None,,,,,1,2022_May_27_0903,Real-fake-judgement-flashing-group1,2021.1.2,59.7875214098726,
261,Trial # 109,Group1-stimuli/group1-block2/fake-group2-b2/encoded_Group2_IMG_9321.jpg,0,encoded_Group2_IMG_9321.jpg,,,,,,,,,0.0,108.0,108.0,108.0,,,,,,,,,,,,,,,1018.3820699574426,None,,,0,0.4305519741028547,1020.8482539048418,None,1020.8482539048418,None,,,1019.6823689192532,None,,,,,1,2022_May_27_0903,Real-fake-judgement-flashing-group1,2021.1.2,59.7875214098726,
262,Trial # 110,Group1-stimuli/group1-block2/fake-group2-b2/encoded_Group2_IMG_9964.jpg,0,encoded_Group2_IMG_9964.jpg,,,,,,,,,0.0,109.0,109.0,109.0,,,,,,,,,,,,,,,1021.2979407375678,None,,,0,0.3687596721574664,1023.7659796476364,None,1023.7659796476364,None,,,1022.5983807686716,None,,,,,1,2022_May_27_0903,Real-fake-judgement-flashing-group1,2021.1.2,59.7875214098726,
263,Trial # 111,Group1-stimuli/group1-block2/real-group1-b2/Group1_IMG_0329.jpg,1,Group1_IMG_0329.jpg,,,,,,,,,0.0,110.0,110.0,110.0,,,,,,,,,,,,,,,1024.1673924755305,None,,,1,0.4207534044981003,1026.650058448315,None,1026.650058448315,None,,,1025.4996648496017,None,,,,,1,2022_May_27_0903,Real-fake-judgement-flashing-group1,2021.1.2,59.7875214098726,
264,Trial # 112,Group1-stimuli/group1-block2/fake-group2-b2/encoded_Group2_IMG_0534.jpg,0,encoded_Group2_IMG_0534.jpg,,,,,,,,,0.0,111.0,111.0,111.0,,,,,,,,,,,,,,,1027.1005490869284,None,,,0,0.2381943929940462,1029.568637476303,None,1029.568637476303,None,,,1028.4017945490775,None,,,,,1,2022_May_27_0903,Real-fake-judgement-flashing-group1,2021.1.2,59.7875214098726,
265,Trial # 113,Group1-stimuli/group1-block2/fake-group2-b2/encoded_Group2_IMG_0054.jpg,0,encoded_Group2_IMG_0054.jpg,,,,,,,,,0.0,112.0,112.0,112.0,,,,,,,,,,,,,,,1029.8343122843653,None,,,0,0.7212689686566591,1032.301560945809,None,1032.301560945809,None,,,1031.1351761883125,None,,,,,1,2022_May_27_0903,Real-fake-judgement-flashing-group1,2021.1.2,59.7875214098726,
266,Trial # 114,Group1-stimuli/group1-block2/real-group1-b2/Group1_IMG_9979.jpg,1,Group1_IMG_9979.jpg,,,,,,,,,0.0,113.0,113.0,113.0,,,,,,,,,,,,,,,1033.053288928233,None,,,1,0.2537200702354312,1035.5370843531564,None,1035.5370843531564,None,,,1034.3537778314203,None,,,,,1,2022_May_27_0903,Real-fake-judgement-flashing-group1,2021.1.2,59.7875214098726,
267,Trial # 115,Group1-stimuli/group1-block2/real-group1-b2/Group1_IMG_0170.jpg,1,Group1_IMG_0170.jpg,,,,,,,,,0.0,114.0,114.0,114.0,,,,,,,,,,,,,,,1035.819694313221,None,,,1,0.2714006192982197,1038.2874047979712,None,1038.2874047979712,None,,,1037.1366841206327,None,,,,,1,2022_May_27_0903,Real-fake-judgement-flashing-group1,2021.1.2,59.7875214098726,
268,Trial # 116,Group1-stimuli/group1-block2/fake-group2-b2/encoded_Group2_IMG_0007.jpg,0,encoded_Group2_IMG_0007.jpg,,,,,,,,,0.0,115.0,115.0,115.0,,,,,,,,,,,,,,,1038.5882920399308,None,,,0,0.3442688109353184,1041.0545459249988,None,1041.0545459249988,None,,,1039.888240803033,None,,,,,1,2022_May_27_0903,Real-fake-judgement-flashing-group1,2021.1.2,59.7875214098726,
269,Trial # 117,Group1-stimuli/group1-block2/real-group1-b2/Group1_IMG_0192.jpg,1,Group1_IMG_0192.jpg,,,,,,,,,0.0,116.0,116.0,116.0,,,,,,,,,,,,,,,1041.421917429194,None,,,1,0.1966067245230078,1043.8901249719784,None,1043.8901249719784,None,,,1042.73784848582,None,,,,,1,2022_May_27_0903,Real-fake-judgement-flashing-group1,2021.1.2,59.7875214098726,
270,Trial # 118,Group1-stimuli/group1-block2/real-group1-b2/Group1_IMG_9786.jpg,1,Group1_IMG_9786.jpg,,,,,,,,,0.0,117.0,117.0,117.0,,,,,,,,,,,,,,,1044.1058349227533,None,,,1,0.0815138984471559,1046.5892184507102,None,1046.5892184507102,None,,,1045.4223833810538,None,,,,,1,2022_May_27_0903,Real-fake-judgement-flashing-group1,2021.1.2,59.7875214098726,
271,Trial # 119,Group1-stimuli/group1-block2/real-group1-b2/Group1_IMG_0187.jpg,1,Group1_IMG_0187.jpg,,,,,,,,,0.0,118.0,118.0,118.0,,,,,,,,,,,,,,,1046.68915423844,None,,,1,0.1128435973078012,1049.157872102223,None,1049.157872102223,None,,,1048.0070100324228,None,,,,,1,2022_May_27_0903,Real-fake-judgement-flashing-group1,2021.1.2,59.7875214098726,
272,Trial # 120,Group1-stimuli/group1-block2/fake-group2-b2/encoded_Group2_IMG_0249.jpg,0,encoded_Group2_IMG_0249.jpg,,,,,,,,,0.0,119.0,119.0,119.0,,,,,,,,,,,,,,,1049.2902237409726,None,,,0,0.0964635238051414,1051.774376377463,None,1051.774376377463,None,,,1050.590586926788,None,,,,,1,2022_May_27_0903,Real-fake-judgement-flashing-group1,2021.1.2,59.7875214098726,
273,Trial # 121,Group1-stimuli/group1-block2/fake-group2-b2/encoded_Group2_IMG_0074.jpg,0,encoded_Group2_IMG_0074.jpg,,,,,,,,,0.0,120.0,120.0,120.0,,,,,,,,,,,,,,,1051.8918062839657,None,,,1,0.4072175091132521,1054.3595852637663,None,1054.3595852637663,None,,,1053.209120218642,None,,,,,1,2022_May_27_0903,Real-fake-judgement-flashing-group1,2021.1.2,59.7875214098726,
274,Trial # 122,Group1-stimuli/group1-block2/real-group1-b2/Group1_IMG_0243.jpg,1,Group1_IMG_0243.jpg,,,,,,,,,0.0,121.0,121.0,121.0,,,,,,,,,,,,,,,1054.793201702647,None,,,0,0.2831709310412407,1057.2756425114349,None,1057.2756425114349,None,,,1056.1259537301958,None,,,,,1,2022_May_27_0903,Real-fake-judgement-flashing-group1,2021.1.2,59.7875214098726,
275,Trial # 123,Group1-stimuli/group1-block2/real-group1-b2/Group1_IMG_0130.jpg,1,Group1_IMG_0130.jpg,,,,,,,,,0.0,122.0,122.0,122.0,,,,,,,,,,,,,,,1057.5761060137302,None,,,1,0.2990008732303977,1060.043782698922,None,1060.043782698922,None,,,1058.894212056883,None,,,,,1,2022_May_27_0903,Real-fake-judgement-flashing-group1,2021.1.2,59.7875214098726,
276,Trial # 124,Group1-stimuli/group1-block2/real-group1-b2/Group1_IMG_0298.jpg,1,Group1_IMG_0298.jpg,,,,,,,,,0.0,123.0,123.0,123.0,,,,,,,,,,,,,,,1060.360238405876,None,,,1,0.2106560319662094,1062.8281438248232,None,1062.8281438248232,None,,,1061.6604111082852,None,,,,,1,2022_May_27_0903,Real-fake-judgement-flashing-group1,2021.1.2,59.7875214098726,
277,Trial # 125,Group1-stimuli/group1-block2/real-group1-b2/Group1_IMG_5871.jpg,1,Group1_IMG_5871.jpg,,,,,,,,,0.0,124.0,124.0,124.0,,,,,,,,,,,,,,,1063.0618020193651,None,,,1,0.3819835614413023,1065.5288747074082,None,1065.5288747074082,None,,,1064.362521561794,None,,,,,1,2022_May_27_0903,Real-fake-judgement-flashing-group1,2021.1.2,59.7875214098726,
278,Trial # 126,Group1-stimuli/group1-block2/fake-group2-b2/encoded_Group2_IMG_0479.jpg,0,encoded_Group2_IMG_0479.jpg,,,,,,,,,0.0,125.0,125.0,125.0,,,,,,,,,,,,,,,1065.9299651887268,None,,,0,0.5292391562834382,1068.397571799345,None,1068.397571799345,None,,,1067.229292722419,None,,,,,1,2022_May_27_0903,Real-fake-judgement-flashing-group1,2021.1.2,59.7875214098726,
279,Trial # 127,Group1-stimuli/group1-block2/fake-group2-b2/encoded_Group2_IMG_4971.jpg,0,encoded_Group2_IMG_4971.jpg,,,,,,,,,0.0,126.0,126.0,126.0,,,,,,,,,,,,,,,1068.9478567345068,None,,,0,0.3523390274494886,1071.4304660912603,None,1071.4304660912603,None,,,1070.2634093677625,None,,,,,1,2022_May_27_0903,Real-fake-judgement-flashing-group1,2021.1.2,59.7875214098726,
