,Trial_num,image_path,ground_truth,image_name,demos.thisRepN,demos.thisTrialN,demos.thisN,demos.thisIndex,block1.thisRepN,block1.thisTrialN,block1.thisN,block1.thisIndex,block2.thisRepN,block2.thisTrialN,block2.thisN,block2.thisIndex,block1_rep2.thisRepN,block1_rep2.thisTrialN,block1_rep2.thisN,block1_rep2.thisIndex,block2_rep.thisRepN,block2_rep.thisTrialN,block2_rep.thisN,block2_rep.thisIndex,text_3.started,text_3.stopped,text_4.started,text_4.stopped,text.started,text.stopped,trail_num.started,trail_num.stopped,image_6.started,image_6.stopped,Judgement.keys,Judgement.rt,Judgement.started,Judgement.stopped,text_19.started,text_19.stopped,text_12.started,text_12.stopped,image.started,image.stopped,text_2.started,text_2.stopped,text_13.started,text_13.stopped,session,date,expName,psychopyVersion
0,Demo 1,demo/Demo_IMG_0974.jpg,demo,Demo_IMG_0974.jpg,0.0,0.0,0.0,0.0,,,,,,,,,,,,,,,,,28.088195468997583,None,30.69981770694721,None,40.26819523901213,None,42.41923146892805,None,43.78659239993431,None,1,3.552812168025412,44.83564907393884,None,44.83564907393884,None,,,,,,,,,1,2022_Apr_04_1501,Real-fake-judgement-flashing-group1,2021.1.2
1,Demo 2,demo/Demo_IMG_1024.jpg,demo,Demo_IMG_1024.jpg,0.0,1.0,1.0,1.0,,,,,,,,,,,,,,,,,,,,,,,48.42081894993317,None,49.78797908499837,None,0,2.651750955963508,50.88870568701532,None,50.88870568701532,None,,,,,,,,,1,2022_Apr_04_1501,Real-fake-judgement-flashing-group1,2021.1.2
2,Demo 3,demo/Demo_seed_80003.png,demo,Demo_seed_80003.png,0.0,2.0,2.0,2.0,,,,,,,,,,,,,,,,,,,,,,,53.57243781699799,None,54.93898986303248,None,0,2.715328280930408,56.04122116195504,None,56.04122116195504,None,,,,,,,,,1,2022_Apr_04_1501,Real-fake-judgement-flashing-group1,2021.1.2
3,Trial # 1,Group1-stimuli/group1-block1/real-group1-b1/Group1_IMG_0022.jpg,1,Group1_IMG_0022.jpg,,,,,0.0,0.0,0.0,0.0,,,,,,,,,,,,,,,,,,,65.78422094800044,None,,,0,2.6740760459797457,68.21043707197532,None,68.21043707197532,None,59.25746646302287,None,67.0597248339327,None,,,,,1,2022_Apr_04_1501,Real-fake-judgement-flashing-group1,2021.1.2
4,Trial # 2,Group1-stimuli/group1-block1/fake-group2-b1/encoded_Group2_IMG_0386.jpg,0,encoded_Group2_IMG_0386.jpg,,,,,0.0,1.0,1.0,1.0,,,,,,,,,,,,,,,,,,,70.91143122198991,None,,,1,0.6568430820479989,73.39568307599984,None,73.39568307599984,None,,,72.22875043493696,None,,,,,1,2022_Apr_04_1501,Real-fake-judgement-flashing-group1,2021.1.2
5,Trial # 3,Group1-stimuli/group1-block1/real-group1-b1/Group1_IMG_9704.jpg,1,Group1_IMG_9704.jpg,,,,,0.0,2.0,2.0,2.0,,,,,,,,,,,,,,,,,,,74.07866663893219,None,,,1,4.401924482081085,76.54654211597517,None,76.54654211597517,None,,,75.39698394597508,None,,,,,1,2022_Apr_04_1501,Real-fake-judgement-flashing-group1,2021.1.2
6,Trial # 4,Group1-stimuli/group1-block1/real-group1-b1/Group1_IMG_0406.jpg,1,Group1_IMG_0406.jpg,,,,,0.0,3.0,3.0,3.0,,,,,,,,,,,,,,,,,,,80.98212602303829,None,,,1,2.3474074699915946,83.46512011403684,None,83.46512011403684,None,,,82.29798734595533,None,,,,,1,2022_Apr_04_1501,Real-fake-judgement-flashing-group1,2021.1.2
7,Trial # 5,Group1-stimuli/group1-block1/fake-group2-b1/encoded_Group2_IMG_0364.jpg,0,encoded_Group2_IMG_0364.jpg,,,,,0.0,4.0,4.0,4.0,,,,,,,,,,,,,,,,,,,85.83370358601678,None,,,0,0.6165218990063295,88.30000165302772,None,88.30000165302772,None,,,87.13276564097032,None,,,,,1,2022_Apr_04_1501,Real-fake-judgement-flashing-group1,2021.1.2
8,Trial # 6,Group1-stimuli/group1-block1/fake-group2-b1/encoded_Group2_IMG_0407.jpg,0,encoded_Group2_IMG_0407.jpg,,,,,0.0,5.0,5.0,5.0,,,,,,,,,,,,,,,,,,,88.93323899700772,None,,,0,0.899144517024979,91.40138944995124,None,91.40138944995124,None,,,90.2503615609603,None,,,,,1,2022_Apr_04_1501,Real-fake-judgement-flashing-group1,2021.1.2
9,Trial # 7,Group1-stimuli/group1-block1/real-group1-b1/Group1_IMG_0428.jpg,1,Group1_IMG_0428.jpg,,,,,0.0,6.0,6.0,6.0,,,,,,,,,,,,,,,,,,,92.31817024503836,None,,,1,0.1232037299778312,94.78526618599426,None,94.78526618599426,None,,,93.61817247292493,None,,,,,1,2022_Apr_04_1501,Real-fake-judgement-flashing-group1,2021.1.2
10,Trial # 8,Group1-stimuli/group1-block1/fake-group2-b1/encoded_Group2_IMG_0474.jpg,0,encoded_Group2_IMG_0474.jpg,,,,,0.0,7.0,7.0,7.0,,,,,,,,,,,,,,,,,,,94.93484400201125,None,,,0,5.145149372983724,97.41942327097058,None,97.41942327097058,None,,,96.25316875893623,None,,,,,1,2022_Apr_04_1501,Real-fake-judgement-flashing-group1,2021.1.2
11,Trial # 9,Group1-stimuli/group1-block1/fake-group2-b1/encoded_Group2_IMG_1506.jpg,0,encoded_Group2_IMG_1506.jpg,,,,,0.0,8.0,8.0,8.0,,,,,,,,,,,,,,,,,,,102.58767821092624,None,,,0,0.4055044950218871,105.05505706300028,None,105.05505706300028,None,,,103.90459053998347,None,,,,,1,2022_Apr_04_1501,Real-fake-judgement-flashing-group1,2021.1.2
12,Trial # 10,Group1-stimuli/group1-block1/real-group1-b1/Group1_IMG_9789.jpg,1,Group1_IMG_9789.jpg,,,,,0.0,9.0,9.0,9.0,,,,,,,,,,,,,,,,,,,105.4901722499635,None,,,1,0.0547344500664621,107.97379393794108,None,107.97379393794108,None,,,106.80672716500703,None,,,,,1,2022_Apr_04_1501,Real-fake-judgement-flashing-group1,2021.1.2
13,Trial # 11,Group1-stimuli/group1-block1/real-group1-b1/Group1_IMG_9778.jpg,1,Group1_IMG_9778.jpg,,,,,0.0,10.0,10.0,10.0,,,,,,,,,,,,,,,,,,,108.05617925303522,None,,,1,0.1044481050921604,110.52407485700678,None,110.52407485700678,None,,,109.37312462192494,None,,,,,1,2022_Apr_04_1501,Real-fake-judgement-flashing-group1,2021.1.2
14,Trial # 12,Group1-stimuli/group1-block1/real-group1-b1/Group1_IMG_9813.jpg,1,Group1_IMG_9813.jpg,,,,,0.0,11.0,11.0,11.0,,,,,,,,,,,,,,,,,,,110.65807587699965,None,,,1,0.0883812049869448,113.12414597603492,None,113.12414597603492,None,,,111.95830827194732,None,,,,,1,2022_Apr_04_1501,Real-fake-judgement-flashing-group1,2021.1.2
15,Trial # 13,Group1-stimuli/group1-block1/real-group1-b1/Group1_IMG_0516.jpg,1,Group1_IMG_0516.jpg,,,,,0.0,12.0,12.0,12.0,,,,,,,,,,,,,,,,,,,113.24111413396896,None,,,0,0.0551229229895398,115.7254125479376,None,115.7254125479376,None,,,114.54132516193204,None,,,,,1,2022_Apr_04_1501,Real-fake-judgement-flashing-group1,2021.1.2
16,Trial # 14,Group1-stimuli/group1-block1/fake-group2-b1/encoded_Group2_IMG_0038.jpg,0,encoded_Group2_IMG_0038.jpg,,,,,0.0,13.0,13.0,13.0,,,,,,,,,,,,,,,,,,,115.80974108492956,None,,,0,2.728150399052538,118.29244348593056,None,118.29244348593056,None,,,117.12658338295296,None,,,,,1,2022_Apr_04_1501,Real-fake-judgement-flashing-group1,2021.1.2
17,Trial # 15,Group1-stimuli/group1-block1/real-group1-b1/Group1_IMG_5984.jpg,1,Group1_IMG_5984.jpg,,,,,0.0,14.0,14.0,14.0,,,,,,,,,,,,,,,,,,,121.04393769998568,None,,,1,0.4370584300486371,123.52747871296016,None,123.52747871296016,None,,,122.3936815049965,None,,,,,1,2022_Apr_04_1501,Real-fake-judgement-flashing-group1,2021.1.2
18,Trial # 16,Group1-stimuli/group1-block1/real-group1-b1/Group1_IMG_0383.jpg,1,Group1_IMG_0383.jpg,,,,,0.0,15.0,15.0,15.0,,,,,,,,,,,,,,,,,,,123.9943969619926,None,,,1,0.501703335903585,126.4628020710079,None,126.4628020710079,None,,,125.31095899594948,None,,,,,1,2022_Apr_04_1501,Real-fake-judgement-flashing-group1,2021.1.2
19,Trial # 17,Group1-stimuli/group1-block1/fake-group2-b1/encoded_Group2_IMG_0456.jpg,0,encoded_Group2_IMG_0456.jpg,,,,,0.0,16.0,16.0,16.0,,,,,,,,,,,,,,,,,,,126.99541251396296,None,,,0,1.1647358490154147,129.47982271097135,None,129.47982271097135,None,,,128.34546064701863,None,,,,,1,2022_Apr_04_1501,Real-fake-judgement-flashing-group1,2021.1.2
20,Trial # 18,Group1-stimuli/group1-block1/fake-group2-b1/encoded_Group2_IMG_8390.jpg,0,encoded_Group2_IMG_8390.jpg,,,,,0.0,17.0,17.0,17.0,,,,,,,,,,,,,,,,,,,130.6636446060147,None,,,0,0.3300423789769411,133.13051087898202,None,133.13051087898202,None,,,131.96420430997387,None,,,,,1,2022_Apr_04_1501,Real-fake-judgement-flashing-group1,2021.1.2
21,Trial # 19,Group1-stimuli/group1-block1/real-group1-b1/Group1_IMG_0011.jpg,1,Group1_IMG_0011.jpg,,,,,0.0,18.0,18.0,18.0,,,,,,,,,,,,,,,,,,,133.48075336997863,None,,,0,3.095359907951206,135.94918309396598,None,135.94918309396598,None,,,134.79756803100463,None,,,,,1,2022_Apr_04_1501,Real-fake-judgement-flashing-group1,2021.1.2
22,Trial # 20,Group1-stimuli/group1-block1/fake-group2-b1/encoded_Group2_IMG_0328.jpg,0,encoded_Group2_IMG_0328.jpg,,,,,0.0,19.0,19.0,19.0,,,,,,,,,,,,,,,,,,,139.0660380939953,None,,,1,0.4784556590020656,141.53412312595174,None,141.53412312595174,None,,,140.43283101695124,None,,,,,1,2022_Apr_04_1501,Real-fake-judgement-flashing-group1,2021.1.2
23,Trial # 21,Group1-stimuli/group1-block1/fake-group2-b1/encoded_Group2_IMG_0163.jpg,0,encoded_Group2_IMG_0163.jpg,,,,,0.0,20.0,20.0,20.0,,,,,,,,,,,,,,,,,,,142.0345974699594,None,,,0,0.4078599809436127,144.50067285296973,None,144.50067285296973,None,,,143.33346781192813,None,,,,,1,2022_Apr_04_1501,Real-fake-judgement-flashing-group1,2021.1.2
24,Trial # 22,Group1-stimuli/group1-block1/real-group1-b1/Group1_IMG_9862.jpg,1,Group1_IMG_9862.jpg,,,,,0.0,21.0,21.0,21.0,,,,,,,,,,,,,,,,,,,144.9340573239606,None,,,1,0.9469221320468932,147.4016139860032,None,147.4016139860032,None,,,146.23559779697098,None,,,,,1,2022_Apr_04_1501,Real-fake-judgement-flashing-group1,2021.1.2
25,Trial # 23,Group1-stimuli/group1-block1/fake-group2-b1/encoded_Group2_IMG_0296.jpg,0,encoded_Group2_IMG_0296.jpg,,,,,0.0,22.0,22.0,22.0,,,,,,,,,,,,,,,,,,,148.36935228994116,None,,,0,0.4081024409970268,150.83641896792687,None,150.83641896792687,None,,,149.66880979202688,None,,,,,1,2022_Apr_04_1501,Real-fake-judgement-flashing-group1,2021.1.2
26,Trial # 24,Group1-stimuli/group1-block1/fake-group2-b1/encoded_Group2_IMG_0503.jpg,0,encoded_Group2_IMG_0503.jpg,,,,,0.0,23.0,23.0,23.0,,,,,,,,,,,,,,,,,,,151.2705978229642,None,,,0,0.5636387820122764,153.73690029000863,None,153.73690029000863,None,,,152.56976564100478,None,,,,,1,2022_Apr_04_1501,Real-fake-judgement-flashing-group1,2021.1.2
27,Trial # 25,Group1-stimuli/group1-block1/fake-group2-b1/encoded_Group2_IMG_9804.jpg,0,encoded_Group2_IMG_9804.jpg,,,,,0.0,24.0,24.0,24.0,,,,,,,,,,,,,,,,,,,154.3199643070111,None,,,0,0.4003744930960238,156.77203967201058,None,156.77203967201058,None,,,155.6052269040374,None,,,,,1,2022_Apr_04_1501,Real-fake-judgement-flashing-group1,2021.1.2
28,Trial # 26,Group1-stimuli/group1-block1/real-group1-b1/Group1_IMG_0391.jpg,1,Group1_IMG_0391.jpg,,,,,0.0,25.0,25.0,25.0,,,,,,,,,,,,,,,,,,,157.20467157301027,None,,,1,0.1481825829250738,159.67224689899012,None,159.67224689899012,None,,,158.50502425199375,None,,,,,1,2022_Apr_04_1501,Real-fake-judgement-flashing-group1,2021.1.2
29,Trial # 27,Group1-stimuli/group1-block1/fake-group2-b1/encoded_Group2_IMG_3584.jpg,0,encoded_Group2_IMG_3584.jpg,,,,,0.0,26.0,26.0,26.0,,,,,,,,,,,,,,,,,,,159.83858776499983,None,,,0,0.3375705039361492,162.30697419203352,None,162.30697419203352,None,,,161.12354721396696,None,,,,,1,2022_Apr_04_1501,Real-fake-judgement-flashing-group1,2021.1.2
30,Trial # 28,Group1-stimuli/group1-block1/fake-group2-b1/encoded_Group2_IMG_0434.jpg,0,encoded_Group2_IMG_0434.jpg,,,,,0.0,27.0,27.0,27.0,,,,,,,,,,,,,,,,,,,162.67282932193484,None,,,0,0.3122572710271925,165.14032090792898,None,165.14032090792898,None,,,163.97320544498507,None,,,,,1,2022_Apr_04_1501,Real-fake-judgement-flashing-group1,2021.1.2
31,Trial # 29,Group1-stimuli/group1-block1/fake-group2-b1/encoded_Group2_IMG_9575.jpg,0,encoded_Group2_IMG_9575.jpg,,,,,0.0,28.0,28.0,28.0,,,,,,,,,,,,,,,,,,,165.47405130998231,None,,,0,0.3666336419992149,167.95788802101742,None,167.95788802101742,None,,,166.79202695994172,None,,,,,1,2022_Apr_04_1501,Real-fake-judgement-flashing-group1,2021.1.2
32,Trial # 30,Group1-stimuli/group1-block1/fake-group2-b1/encoded_Group2_IMG_1025.jpg,0,encoded_Group2_IMG_1025.jpg,,,,,0.0,29.0,29.0,29.0,,,,,,,,,,,,,,,,,,,168.34107241302263,None,,,1,0.8752924319123849,170.80923463997897,None,170.80923463997897,None,,,169.64123615098651,None,,,,,1,2022_Apr_04_1501,Real-fake-judgement-flashing-group1,2021.1.2
33,Trial # 31,Group1-stimuli/group1-block1/real-group1-b1/Group1_IMG_0502.jpg,1,Group1_IMG_0502.jpg,,,,,0.0,30.0,30.0,30.0,,,,,,,,,,,,,,,,,,,171.71013260493055,None,,,1,0.4914795180084184,174.19304668495897,None,174.19304668495897,None,,,173.02714973397087,None,,,,,1,2022_Apr_04_1501,Real-fake-judgement-flashing-group1,2021.1.2
34,Trial # 32,Group1-stimuli/group1-block1/real-group1-b1/Group1_IMG_0182.jpg,1,Group1_IMG_0182.jpg,,,,,0.0,31.0,31.0,31.0,,,,,,,,,,,,,,,,,,,174.71034821798094,None,,,1,0.0910403049783781,177.1774997439934,None,177.1774997439934,None,,,176.02819560200442,None,,,,,1,2022_Apr_04_1501,Real-fake-judgement-flashing-group1,2021.1.2
35,Trial # 33,Group1-stimuli/group1-block1/fake-group2-b1/encoded_Group2_IMG_2728.jpg,0,encoded_Group2_IMG_2728.jpg,,,,,0.0,32.0,32.0,32.0,,,,,,,,,,,,,,,,,,,177.2945202329429,None,,,0,3.042878389940597,179.76166874996852,None,179.76166874996852,None,,,178.5945217530243,None,,,,,1,2022_Apr_04_1501,Real-fake-judgement-flashing-group1,2021.1.2
36,Trial # 34,Group1-stimuli/group1-block1/fake-group2-b1/encoded_Group2_IMG_4867.jpg,0,encoded_Group2_IMG_4867.jpg,,,,,0.0,33.0,33.0,33.0,,,,,,,,,,,,,,,,,,,182.8303805589676,None,,,0,0.3565934830112383,185.2959515399998,None,185.2959515399998,None,,,184.12950047303457,None,,,,,1,2022_Apr_04_1501,Real-fake-judgement-flashing-group1,2021.1.2
37,Trial # 35,Group1-stimuli/group1-block1/real-group1-b1/Group1_IMG_9894.jpg,1,Group1_IMG_9894.jpg,,,,,0.0,34.0,34.0,34.0,,,,,,,,,,,,,,,,,,,185.68136560497803,None,,,1,0.593135898001492,188.1474012900144,None,188.1474012900144,None,,,186.98167142702732,None,,,,,1,2022_Apr_04_1501,Real-fake-judgement-flashing-group1,2021.1.2
38,Trial # 36,Group1-stimuli/group1-block1/fake-group2-b1/encoded_Group2_IMG_0444.jpg,0,encoded_Group2_IMG_0444.jpg,,,,,0.0,35.0,35.0,35.0,,,,,,,,,,,,,,,,,,,188.7640780119691,None,,,0,0.3316255789250135,191.23282693198416,None,191.23282693198416,None,,,190.08078672003467,None,,,,,1,2022_Apr_04_1501,Real-fake-judgement-flashing-group1,2021.1.2
39,Trial # 37,Group1-stimuli/group1-block1/real-group1-b1/Group1_IMG_2656.jpg,1,Group1_IMG_2656.jpg,,,,,0.0,36.0,36.0,36.0,,,,,,,,,,,,,,,,,,,191.58180416096,None,,,1,0.906484564067796,194.0660509440349,None,194.0660509440349,None,,,192.8988496119855,None,,,,,1,2022_Apr_04_1501,Real-fake-judgement-flashing-group1,2021.1.2
40,Trial # 38,Group1-stimuli/group1-block1/real-group1-b1/Group1_IMG_0207.jpg,1,Group1_IMG_0207.jpg,,,,,0.0,37.0,37.0,37.0,,,,,,,,,,,,,,,,,,,194.99934195296373,None,,,1,1.5595198570517823,197.48501439392567,None,197.48501439392567,None,,,196.3177210619906,None,,,,,1,2022_Apr_04_1501,Real-fake-judgement-flashing-group1,2021.1.2
41,Trial # 39,Group1-stimuli/group1-block1/real-group1-b1/Group1_IMG_9638.jpg,1,Group1_IMG_9638.jpg,,,,,0.0,38.0,38.0,38.0,,,,,,,,,,,,,,,,,,,199.0677142889472,None,,,1,0.3244481910951435,201.5361123250332,None,201.5361123250332,None,,,200.3858618090162,None,,,,,1,2022_Apr_04_1501,Real-fake-judgement-flashing-group1,2021.1.2
42,Trial # 40,Group1-stimuli/group1-block1/real-group1-b1/Group1_IMG_0148.jpg,1,Group1_IMG_0148.jpg,,,,,0.0,39.0,39.0,39.0,,,,,,,,,,,,,,,,,,,201.8849866129458,None,,,1,1.067245022044517,204.3693018950289,None,204.3693018950289,None,,,203.20202170102857,None,,,,,1,2022_Apr_04_1501,Real-fake-judgement-flashing-group1,2021.1.2
43,Trial # 41,Group1-stimuli/group1-block1/real-group1-b1/Group1_IMG_2891.jpg,1,Group1_IMG_2891.jpg,,,,,0.0,40.0,40.0,40.0,,,,,,,,,,,,,,,,,,,205.4541748110205,None,,,1,0.3635585209121927,207.93697829300072,None,207.93697829300072,None,,,206.77109211997595,None,,,,,1,2022_Apr_04_1501,Real-fake-judgement-flashing-group1,2021.1.2
44,Trial # 42,Group1-stimuli/group1-block1/real-group1-b1/Group1_IMG_0157.jpg,1,Group1_IMG_0157.jpg,,,,,0.0,41.0,41.0,41.0,,,,,,,,,,,,,,,,,,,208.32019949296955,None,,,1,0.4321664510061964,210.7882953110384,None,210.7882953110384,None,,,209.63707801303826,None,,,,,1,2022_Apr_04_1501,Real-fake-judgement-flashing-group1,2021.1.2
45,Trial # 43,Group1-stimuli/group1-block1/real-group1-b1/Group1_IMG_9833.jpg,1,Group1_IMG_9833.jpg,,,,,0.0,42.0,42.0,42.0,,,,,,,,,,,,,,,,,,,211.23937446495984,None,,,1,1.3853655899874866,213.7391767749796,None,213.7391767749796,None,,,212.55608248594217,None,,,,,1,2022_Apr_04_1501,Real-fake-judgement-flashing-group1,2021.1.2
46,Trial # 44,Group1-stimuli/group1-block1/fake-group2-b1/encoded_Group2_IMG_2230.jpg,0,encoded_Group2_IMG_2230.jpg,,,,,0.0,43.0,43.0,43.0,,,,,,,,,,,,,,,,,,,215.1563278739341,None,,,0,0.436199655989185,217.64033391396515,None,217.64033391396515,None,,,216.47401802102104,None,,,,,1,2022_Apr_04_1501,Real-fake-judgement-flashing-group1,2021.1.2
47,Trial # 45,Group1-stimuli/group1-block1/real-group1-b1/Group1_IMG_9966.jpg,1,Group1_IMG_9966.jpg,,,,,0.0,44.0,44.0,44.0,,,,,,,,,,,,,,,,,,,218.1070969379507,None,,,0,0.7738665039651096,220.57467169000304,None,220.57467169000304,None,,,219.42365216696635,None,,,,,1,2022_Apr_04_1501,Real-fake-judgement-flashing-group1,2021.1.2
48,Trial # 46,Group1-stimuli/group1-block1/real-group1-b1/Group1_IMG_0239.jpg,1,Group1_IMG_0239.jpg,,,,,0.0,45.0,45.0,45.0,,,,,,,,,,,,,,,,,,,221.3758196979761,None,,,1,0.4586213300935924,223.8419374929508,None,223.8419374929508,None,,,222.6754089629976,None,,,,,1,2022_Apr_04_1501,Real-fake-judgement-flashing-group1,2021.1.2
49,Trial # 47,Group1-stimuli/group1-block1/fake-group2-b1/encoded_Group2_IMG_0536.jpg,0,encoded_Group2_IMG_0536.jpg,,,,,0.0,46.0,46.0,46.0,,,,,,,,,,,,,,,,,,,224.32496019895189,None,,,0,1.3230694308876991,226.77745436597613,None,226.77745436597613,None,,,225.61013124301098,None,,,,,1,2022_Apr_04_1501,Real-fake-judgement-flashing-group1,2021.1.2
50,Trial # 48,Group1-stimuli/group1-block1/fake-group2-b1/encoded_Group2_IMG_0521.jpg,0,encoded_Group2_IMG_0521.jpg,,,,,0.0,47.0,47.0,47.0,,,,,,,,,,,,,,,,,,,228.1266772019444,None,,,0,0.4185645129764452,230.577881442965,None,230.577881442965,None,,,229.40980955795385,None,,,,,1,2022_Apr_04_1501,Real-fake-judgement-flashing-group1,2021.1.2
51,Trial # 49,Group1-stimuli/group1-block1/fake-group2-b1/encoded_Group2_IMG_9924.jpg,0,encoded_Group2_IMG_9924.jpg,,,,,0.0,48.0,48.0,48.0,,,,,,,,,,,,,,,,,,,231.0286865059752,None,,,0,0.3729463790077716,233.49559062393385,None,233.49559062393385,None,,,232.32777667592745,None,,,,,1,2022_Apr_04_1501,Real-fake-judgement-flashing-group1,2021.1.2
52,Trial # 50,Group1-stimuli/group1-block1/real-group1-b1/Group1_IMG_9730.jpg,1,Group1_IMG_9730.jpg,,,,,0.0,49.0,49.0,49.0,,,,,,,,,,,,,,,,,,,233.895493392949,None,,,0,0.8009412790415809,236.36352155101488,None,236.36352155101488,None,,,235.21158284600824,None,,,,,1,2022_Apr_04_1501,Real-fake-judgement-flashing-group1,2021.1.2
53,Trial # 51,Group1-stimuli/group1-block1/real-group1-b1/Group1_IMG_0053.jpg,1,Group1_IMG_0053.jpg,,,,,0.0,50.0,50.0,50.0,,,,,,,,,,,,,,,,,,,237.19593083602376,None,,,1,0.4211043870309368,239.66340644692536,None,239.66340644692536,None,,,238.49631657102145,None,,,,,1,2022_Apr_04_1501,Real-fake-judgement-flashing-group1,2021.1.2
54,Trial # 52,Group1-stimuli/group1-block1/real-group1-b1/Group1_IMG_9698.jpg,1,Group1_IMG_9698.jpg,,,,,0.0,51.0,51.0,51.0,,,,,,,,,,,,,,,,,,,240.1132397139445,None,,,1,0.3424460249952972,242.5980056530097,None,242.5980056530097,None,,,241.41385590098798,None,,,,,1,2022_Apr_04_1501,Real-fake-judgement-flashing-group1,2021.1.2
55,Trial # 53,Group1-stimuli/group1-block1/fake-group2-b1/encoded_Group2_IMG_0553.jpg,0,encoded_Group2_IMG_0553.jpg,,,,,0.0,52.0,52.0,52.0,,,,,,,,,,,,,,,,,,,242.96408831200097,None,,,0,1.076271821046248,245.43218421493657,None,245.43218421493657,None,,,244.26438301196322,None,,,,,1,2022_Apr_04_1501,Real-fake-judgement-flashing-group1,2021.1.2
56,Trial # 54,Group1-stimuli/group1-block1/fake-group2-b1/encoded_Group2_IMG_9758.jpg,0,encoded_Group2_IMG_9758.jpg,,,,,0.0,53.0,53.0,53.0,,,,,,,,,,,,,,,,,,,246.5326177240349,None,,,1,1.2684864370385185,249.0160211669281,None,249.0160211669281,None,,,247.8334952639416,None,,,,,1,2022_Apr_04_1501,Real-fake-judgement-flashing-group1,2021.1.2
57,Trial # 55,Group1-stimuli/group1-block1/fake-group2-b1/encoded_Group2_IMG_0339.jpg,0,encoded_Group2_IMG_0339.jpg,,,,,0.0,54.0,54.0,54.0,,,,,,,,,,,,,,,,,,,250.3171910699457,None,,,0,0.6995668120216578,252.8008919369895,None,252.8008919369895,None,,,251.6345548069803,None,,,,,1,2022_Apr_04_1501,Real-fake-judgement-flashing-group1,2021.1.2
58,Trial # 56,Group1-stimuli/group1-block1/real-group1-b1/Group1_IMG_0314.jpg,1,Group1_IMG_0314.jpg,,,,,0.0,55.0,55.0,55.0,,,,,,,,,,,,,,,,,,,253.5177169579547,None,,,1,2.9383084480650723,255.9861413689796,None,255.9861413689796,None,,,254.83412947901525,None,,,,,1,2022_Apr_04_1501,Real-fake-judgement-flashing-group1,2021.1.2
59,Trial # 57,Group1-stimuli/group1-block1/fake-group2-b1/encoded_Group2_IMG_0532.jpg,0,encoded_Group2_IMG_0532.jpg,,,,,0.0,56.0,56.0,56.0,,,,,,,,,,,,,,,,,,,258.9523465660168,None,,,0,2.855551600921899,261.420906343963,None,261.420906343963,None,,,260.5200458499603,None,,,,,1,2022_Apr_04_1501,Real-fake-judgement-flashing-group1,2021.1.2
60,Trial # 58,Group1-stimuli/group1-block1/fake-group2-b1/encoded_Group2_IMG_0462.jpg,0,encoded_Group2_IMG_0462.jpg,,,,,0.0,57.0,57.0,57.0,,,,,,,,,,,,,,,,,,,264.3039257909404,None,,,0,0.3359574119094759,266.7725854360033,None,266.7725854360033,None,,,265.60518134303857,None,,,,,1,2022_Apr_04_1501,Real-fake-judgement-flashing-group1,2021.1.2
61,Trial # 59,Group1-stimuli/group1-block1/real-group1-b1/Group1_IMG_0172.jpg,1,Group1_IMG_0172.jpg,,,,,0.0,58.0,58.0,58.0,,,,,,,,,,,,,,,,,,,267.1390603519976,None,,,1,1.7987464390462264,269.6057335429359,None,269.6057335429359,None,,,268.45554733101744,None,,,,,1,2022_Apr_04_1501,Real-fake-judgement-flashing-group1,2021.1.2
62,Trial # 60,Group1-stimuli/group1-block1/real-group1-b1/Group1_IMG_4841.jpg,1,Group1_IMG_4841.jpg,,,,,0.0,59.0,59.0,59.0,,,,,,,,,,,,,,,,,,,271.42419195594266,None,,,0,1.1368942320114002,273.9235687999753,None,273.9235687999753,None,,,272.7398268179968,None,,,,,1,2022_Apr_04_1501,Real-fake-judgement-flashing-group1,2021.1.2
63,Trial # 61,Group1-stimuli/group1-block1/fake-group2-b1/encoded_Group2_IMG_0352.jpg,0,encoded_Group2_IMG_0352.jpg,,,,,0.0,60.0,60.0,60.0,,,,,,,,,,,,,,,,,,,275.09037858597003,None,,,0,0.2931043310090899,277.5753584980266,None,277.5753584980266,None,,,276.3920385870151,None,,,,,1,2022_Apr_04_1501,Real-fake-judgement-flashing-group1,2021.1.2
64,Trial # 62,Group1-stimuli/group1-block1/fake-group2-b1/encoded_Group2_IMG_9726.jpg,0,encoded_Group2_IMG_9726.jpg,,,,,0.0,61.0,61.0,61.0,,,,,,,,,,,,,,,,,,,277.8916075959569,None,,,0,2.268284661928192,280.3761797079351,None,280.3761797079351,None,,,279.2084851129912,None,,,,,1,2022_Apr_04_1501,Real-fake-judgement-flashing-group1,2021.1.2
65,Trial # 63,Group1-stimuli/group1-block1/fake-group2-b1/encoded_Group2_IMG_9785.jpg,0,encoded_Group2_IMG_9785.jpg,,,,,0.0,62.0,62.0,62.0,,,,,,,,,,,,,,,,,,,282.67687715997454,None,,,0,0.3649771739728749,285.14350598002784,None,285.14350598002784,None,,,283.97660474001896,None,,,,,1,2022_Apr_04_1501,Real-fake-judgement-flashing-group1,2021.1.2
66,Trial # 64,Group1-stimuli/group1-block1/fake-group2-b1/encoded_Group2_IMG_0440.jpg,0,encoded_Group2_IMG_0440.jpg,,,,,0.0,63.0,63.0,63.0,,,,,,,,,,,,,,,,,,,285.52790567302145,None,,,1,0.4012446959968656,287.9951939969324,None,287.9951939969324,None,,,286.8286798610352,None,,,,,1,2022_Apr_04_1501,Real-fake-judgement-flashing-group1,2021.1.2
67,Trial # 65,Group1-stimuli/group1-block1/fake-group2-b1/encoded_Group2_IMG_1695.jpg,0,encoded_Group2_IMG_1695.jpg,,,,,0.0,64.0,64.0,64.0,,,,,,,,,,,,,,,,,,,288.4284207469318,None,,,0,0.4043557150289416,290.89622167195193,None,290.89622167195193,None,,,289.978465548018,None,,,,,1,2022_Apr_04_1501,Real-fake-judgement-flashing-group1,2021.1.2
68,Trial # 66,Group1-stimuli/group1-block1/real-group1-b1/Group1_IMG_0552.jpg,1,Group1_IMG_0552.jpg,,,,,0.0,65.0,65.0,65.0,,,,,,,,,,,,,,,,,,,291.3296995339915,None,,,1,0.0227184370160102,293.81374117394444,None,293.81374117394444,None,,,292.64730804401916,None,,,,,1,2022_Apr_04_1501,Real-fake-judgement-flashing-group1,2021.1.2
69,Trial # 67,Group1-stimuli/group1-block1/real-group1-b1/Group1_IMG_1029.jpg,1,Group1_IMG_1029.jpg,,,,,0.0,66.0,66.0,66.0,,,,,,,,,,,,,,,,,,,293.86399660399184,None,,,0,1.1613797519821674,296.3310691330116,None,296.3310691330116,None,,,295.16318634792697,None,,,,,1,2022_Apr_04_1501,Real-fake-judgement-flashing-group1,2021.1.2
70,Trial # 68,Group1-stimuli/group1-block1/fake-group2-b1/encoded_Group2_IMG_6517.jpg,0,encoded_Group2_IMG_6517.jpg,,,,,0.0,67.0,67.0,67.0,,,,,,,,,,,,,,,,,,,297.51549766003154,None,,,0,0.6457143550505862,299.998780110036,None,299.998780110036,None,,,298.8310906729894,None,,,,,1,2022_Apr_04_1501,Real-fake-judgement-flashing-group1,2021.1.2
71,Trial # 69,Group1-stimuli/group1-block1/fake-group2-b1/encoded_Group2_IMG_0002.jpg,0,encoded_Group2_IMG_0002.jpg,,,,,0.0,68.0,68.0,68.0,,,,,,,,,,,,,,,,,,,300.66578272893094,None,,,0,0.5271576609229669,303.1493443439249,None,303.1493443439249,None,,,302.6664844410261,None,,,,,1,2022_Apr_04_1501,Real-fake-judgement-flashing-group1,2021.1.2
72,Trial # 70,Group1-stimuli/group1-block1/real-group1-b1/Group1_IMG_0495.jpg,1,Group1_IMG_0495.jpg,,,,,0.0,69.0,69.0,69.0,,,,,,,,,,,,,,,,,,,303.7002826859243,None,,,0,0.4674160900758579,306.2010450779926,None,306.2010450779926,None,,,305.01644855493214,None,,,,,1,2022_Apr_04_1501,Real-fake-judgement-flashing-group1,2021.1.2
73,Trial # 71,Group1-stimuli/group1-block1/real-group1-b1/Group1_IMG_1391.jpg,1,Group1_IMG_1391.jpg,,,,,0.0,70.0,70.0,70.0,,,,,,,,,,,,,,,,,,,306.70168170297984,None,,,0,0.3716693309834227,309.1848039509496,None,309.1848039509496,None,,,308.018213015981,None,,,,,1,2022_Apr_04_1501,Real-fake-judgement-flashing-group1,2021.1.2
74,Trial # 72,Group1-stimuli/group1-block1/real-group1-b1/Group1_IMG_0343.jpg,1,Group1_IMG_0343.jpg,,,,,0.0,71.0,71.0,71.0,,,,,,,,,,,,,,,,,,,309.5849551110296,None,,,1,0.3111673189559951,312.0692925780313,None,312.0692925780313,None,,,310.9029694929486,None,,,,,1,2022_Apr_04_1501,Real-fake-judgement-flashing-group1,2021.1.2
75,Trial # 73,Group1-stimuli/group1-block1/fake-group2-b1/encoded_Group2_IMG_9810.jpg,0,encoded_Group2_IMG_9810.jpg,,,,,0.0,72.0,72.0,72.0,,,,,,,,,,,,,,,,,,,312.4035921540344,None,,,0,0.3496583929518237,314.8868177710101,None,314.8868177710101,None,,,313.7193824709393,None,,,,,1,2022_Apr_04_1501,Real-fake-judgement-flashing-group1,2021.1.2
76,Trial # 74,Group1-stimuli/group1-block1/fake-group2-b1/encoded_Group2_IMG_5900.jpg,0,encoded_Group2_IMG_5900.jpg,,,,,0.0,73.0,73.0,73.0,,,,,,,,,,,,,,,,,,,315.26986622298136,None,,,1,0.3551580719649791,317.73729906394146,None,317.73729906394146,None,,,316.57118494296446,None,,,,,1,2022_Apr_04_1501,Real-fake-judgement-flashing-group1,2021.1.2
77,Trial # 75,Group1-stimuli/group1-block1/real-group1-b1/Group1_IMG_9679.jpg,1,Group1_IMG_9679.jpg,,,,,0.0,74.0,74.0,74.0,,,,,,,,,,,,,,,,,,,318.1204330879264,None,,,1,1.663906211964786,320.5885991170071,None,320.5885991170071,None,,,319.43821078096516,None,,,,,1,2022_Apr_04_1501,Real-fake-judgement-flashing-group1,2021.1.2
78,Trial # 76,Group1-stimuli/group1-block1/fake-group2-b1/encoded_Group2_IMG_4249.jpg,0,encoded_Group2_IMG_4249.jpg,,,,,0.0,75.0,75.0,75.0,,,,,,,,,,,,,,,,,,,322.2729413600173,None,,,0,0.6009964009281248,324.73947025300004,None,324.73947025300004,None,,,323.57232358295005,None,,,,,1,2022_Apr_04_1501,Real-fake-judgement-flashing-group1,2021.1.2
79,Trial # 77,Group1-stimuli/group1-block1/fake-group2-b1/encoded_Group2_IMG_0174.jpg,0,encoded_Group2_IMG_0174.jpg,,,,,0.0,76.0,76.0,76.0,,,,,,,,,,,,,,,,,,,325.372963074944,None,,,1,0.5875961219426244,327.8568993359804,None,327.8568993359804,None,,,326.673697297927,None,,,,,1,2022_Apr_04_1501,Real-fake-judgement-flashing-group1,2021.1.2
80,Trial # 78,Group1-stimuli/group1-block1/fake-group2-b1/encoded_Group2_IMG_0475.jpg,0,encoded_Group2_IMG_0475.jpg,,,,,0.0,77.0,77.0,77.0,,,,,,,,,,,,,,,,,,,328.473922175006,None,,,0,0.3497921039815992,330.9586712459568,None,330.9586712459568,None,,,329.77416825992987,None,,,,,1,2022_Apr_04_1501,Real-fake-judgement-flashing-group1,2021.1.2
81,Trial # 79,Group1-stimuli/group1-block1/fake-group2-b1/encoded_Group2_IMG_9751.jpg,0,encoded_Group2_IMG_9751.jpg,,,,,0.0,78.0,78.0,78.0,,,,,,,,,,,,,,,,,,,331.3263933210401,None,,,0,0.3479129549814388,333.8085817169631,None,333.8085817169631,None,,,332.64232474798337,None,,,,,1,2022_Apr_04_1501,Real-fake-judgement-flashing-group1,2021.1.2
82,Trial # 80,Group1-stimuli/group1-block1/fake-group2-b1/encoded_Group2_IMG_0492.jpg,0,encoded_Group2_IMG_0492.jpg,,,,,0.0,79.0,79.0,79.0,,,,,,,,,,,,,,,,,,,334.1757041879464,None,,,0,0.2887924499809742,336.64366626995616,None,336.64366626995616,None,,,335.4764630229911,None,,,,,1,2022_Apr_04_1501,Real-fake-judgement-flashing-group1,2021.1.2
83,Trial # 81,Group1-stimuli/group1-block1/real-group1-b1/Group1_IMG_0535.jpg,1,Group1_IMG_0535.jpg,,,,,0.0,80.0,80.0,80.0,,,,,,,,,,,,,,,,,,,336.96103697502986,None,,,0,3.51196140004322,339.4604970969958,None,339.4604970969958,None,,,None,None,,,,,1,2022_Apr_04_1501,Real-fake-judgement-flashing-group1,2021.1.2
84,Trial # 82,Group1-stimuli/group1-block1/real-group1-b1/Group1_IMG_0077.jpg,1,Group1_IMG_0077.jpg,,,,,0.0,81.0,81.0,81.0,,,,,,,,,,,,,,,,,,,342.995198213961,None,,,0,1.6848777829436583,345.4635976019781,None,345.4635976019781,None,,,344.29605456092395,None,,,,,1,2022_Apr_04_1501,Real-fake-judgement-flashing-group1,2021.1.2
85,Trial # 83,Group1-stimuli/group1-block1/fake-group2-b1/encoded_Group2_IMG_9702.jpg,0,encoded_Group2_IMG_9702.jpg,,,,,0.0,82.0,82.0,82.0,,,,,,,,,,,,,,,,,,,347.1806432689773,None,,,0,0.4122411250136792,349.6642137640156,None,349.6642137640156,None,,,348.49725085298996,None,,,,,1,2022_Apr_04_1501,Real-fake-judgement-flashing-group1,2021.1.2
86,Trial # 84,Group1-stimuli/group1-block1/real-group1-b1/Group1_IMG_0357.jpg,1,Group1_IMG_0357.jpg,,,,,0.0,83.0,83.0,83.0,,,,,,,,,,,,,,,,,,,350.09746366995387,None,,,1,0.3914077179506421,352.5650412859395,None,352.5650412859395,None,,,351.39887500496116,None,,,,,1,2022_Apr_04_1501,Real-fake-judgement-flashing-group1,2021.1.2
87,Trial # 85,Group1-stimuli/group1-block1/real-group1-b1/Group1_IMG_9772.jpg,1,Group1_IMG_9772.jpg,,,,,0.0,84.0,84.0,84.0,,,,,,,,,,,,,,,,,,,352.9822934230324,None,,,1,0.2657394689740613,355.4667184079299,None,355.4667184079299,None,,,354.29841068794485,None,,,,,1,2022_Apr_04_1501,Real-fake-judgement-flashing-group1,2021.1.2
88,Trial # 86,Group1-stimuli/group1-block1/real-group1-b1/Group1_IMG_0482.jpg,1,Group1_IMG_0482.jpg,,,,,0.0,85.0,85.0,85.0,,,,,,,,,,,,,,,,,,,355.7495462410152,None,,,1,0.043261879007332,358.2332627120195,None,358.2332627120195,None,,,357.06700733001344,None,,,,,1,2022_Apr_04_1501,Real-fake-judgement-flashing-group1,2021.1.2
89,Trial # 87,Group1-stimuli/group1-block1/real-group1-b1/Group1_IMG_0299.jpg,1,Group1_IMG_0299.jpg,,,,,0.0,86.0,86.0,86.0,,,,,,,,,,,,,,,,,,,358.3008192590205,None,,,1,0.1480623630341142,360.7684271170292,None,360.7684271170292,None,,,359.61671800003387,None,,,,,1,2022_Apr_04_1501,Real-fake-judgement-flashing-group1,2021.1.2
90,Trial # 88,Group1-stimuli/group1-block1/fake-group2-b1/encoded_Group2_IMG_0301.jpg,0,encoded_Group2_IMG_0301.jpg,,,,,0.0,87.0,87.0,87.0,,,,,,,,,,,,,,,,,,,360.9352763550123,None,,,0,0.2508125089807436,363.4015957629308,None,363.4015957629308,None,,,362.2347486979561,None,,,,,1,2022_Apr_04_1501,Real-fake-judgement-flashing-group1,2021.1.2
91,Trial # 89,Group1-stimuli/group1-block1/fake-group2-b1/encoded_Group2_IMG_5136.jpg,0,encoded_Group2_IMG_5136.jpg,,,,,0.0,88.0,88.0,88.0,,,,,,,,,,,,,,,,,,,363.6844055399997,None,,,0,0.2915427150437608,366.1530177609529,None,366.1530177609529,None,,,364.9848553519696,None,,,,,1,2022_Apr_04_1501,Real-fake-judgement-flashing-group1,2021.1.2
92,Trial # 90,Group1-stimuli/group1-block1/real-group1-b1/Group1_IMG_0460.jpg,1,Group1_IMG_0460.jpg,,,,,0.0,89.0,89.0,89.0,,,,,,,,,,,,,,,,,,,366.4704558509402,None,,,1,0.3070985780796036,368.95343728596345,None,368.95343728596345,None,,,367.8031042070361,None,,,,,1,2022_Apr_04_1501,Real-fake-judgement-flashing-group1,2021.1.2
93,Trial # 91,Group1-stimuli/group1-block1/fake-group2-b1/encoded_Group2_IMG_0068.jpg,0,encoded_Group2_IMG_0068.jpg,,,,,0.0,90.0,90.0,90.0,,,,,,,,,,,,,,,,,,,369.28756255598273,None,,,0,1.9129392399918288,371.7556007489329,None,371.7556007489329,None,,,370.5884311150294,None,,,,,1,2022_Apr_04_1501,Real-fake-judgement-flashing-group1,2021.1.2
94,Trial # 92,Group1-stimuli/group1-block1/real-group1-b1/Group1_IMG_0337.jpg,1,Group1_IMG_0337.jpg,,,,,0.0,91.0,91.0,91.0,,,,,,,,,,,,,,,,,,,373.6884555190336,None,,,0,0.4884826340712607,376.15605482296087,None,376.15605482296087,None,,,374.9884207119467,None,,,,,1,2022_Apr_04_1501,Real-fake-judgement-flashing-group1,2021.1.2
95,Trial # 93,Group1-stimuli/group1-block1/fake-group2-b1/encoded_Group2_IMG_0346.jpg,0,encoded_Group2_IMG_0346.jpg,,,,,0.0,92.0,92.0,92.0,,,,,,,,,,,,,,,,,,,376.6727713569999,None,,,0,1.2166718319058418,379.1398825159995,None,379.1398825159995,None,,,377.97276306001004,None,,,,,1,2022_Apr_04_1501,Real-fake-judgement-flashing-group1,2021.1.2
96,Trial # 94,Group1-stimuli/group1-block1/real-group1-b1/Group1_IMG_4253.jpg,1,Group1_IMG_4253.jpg,,,,,0.0,93.0,93.0,93.0,,,,,,,,,,,,,,,,,,,380.3741937249433,None,,,1,0.2514501929981634,382.8410618019989,None,382.8410618019989,None,,,381.67512330797035,None,,,,,1,2022_Apr_04_1501,Real-fake-judgement-flashing-group1,2021.1.2
97,Trial # 95,Group1-stimuli/group1-block1/fake-group2-b1/encoded_Group2_IMG_9280.jpg,0,encoded_Group2_IMG_9280.jpg,,,,,0.0,94.0,94.0,94.0,,,,,,,,,,,,,,,,,,,383.12438040203415,None,,,1,2.204334801994264,385.59219813300297,None,385.59219813300297,None,,,384.42476168996654,None,,,,,1,2022_Apr_04_1501,Real-fake-judgement-flashing-group1,2021.1.2
98,Trial # 96,Group1-stimuli/group1-block1/real-group1-b1/Group1_IMG_0417.jpg,1,Group1_IMG_0417.jpg,,,,,0.0,95.0,95.0,95.0,,,,,,,,,,,,,,,,,,,387.8269186379621,None,,,0,0.430659087956883,390.3098872719565,None,390.3098872719565,None,,,389.1427943459712,None,,,,,1,2022_Apr_04_1501,Real-fake-judgement-flashing-group1,2021.1.2
99,Trial # 97,Group1-stimuli/group1-block1/fake-group2-b1/encoded_Group2_IMG_9695.jpg,0,encoded_Group2_IMG_9695.jpg,,,,,0.0,96.0,96.0,96.0,,,,,,,,,,,,,,,,,,,390.76133041095454,None,,,0,0.2969282640842721,393.22760350699537,None,393.22760350699537,None,,,392.0616085299989,None,,,,,1,2022_Apr_04_1501,Real-fake-judgement-flashing-group1,2021.1.2
100,Trial # 98,Group1-stimuli/group1-block1/real-group1-b1/Group1_IMG_1160.jpg,1,Group1_IMG_1160.jpg,,,,,0.0,97.0,97.0,97.0,,,,,,,,,,,,,,,,,,,393.5444207240362,None,,,1,0.408383495057933,396.01216162601486,None,396.01216162601486,None,,,394.86128670093603,None,,,,,1,2022_Apr_04_1501,Real-fake-judgement-flashing-group1,2021.1.2
101,Trial # 99,Group1-stimuli/group1-block1/real-group1-b1/Group1_IMG_0448.jpg,1,Group1_IMG_0448.jpg,,,,,0.0,98.0,98.0,98.0,,,,,,,,,,,,,,,,,,,396.44562429899815,None,,,1,2.131251384038478,398.9292377890088,None,398.9292377890088,None,,,397.74622274399735,None,,,,,1,2022_Apr_04_1501,Real-fake-judgement-flashing-group1,2021.1.2
102,Trial # 100,Group1-stimuli/group1-block1/fake-group2-b1/encoded_Group2_IMG_0393.jpg,0,encoded_Group2_IMG_0393.jpg,,,,,0.0,99.0,99.0,99.0,,,,,,,,,,,,,,,,,,,401.0812067729421,None,,,0,2.128511632909067,403.56401595298667,None,403.56401595298667,None,,,403.29726116301026,None,,,,,1,2022_Apr_04_1501,Real-fake-judgement-flashing-group1,2021.1.2
103,Trial # 101,Group1-stimuli/group1-block1/real-group1-b1/Group1_IMG_0090.jpg,1,Group1_IMG_0090.jpg,,,,,0.0,100.0,100.0,100.0,,,,,,,,,,,,,,,,,,,405.7160002660239,None,,,1,0.4212518440326676,408.1993182619335,None,408.1993182619335,None,,,407.04965838300996,None,,,,,1,2022_Apr_04_1501,Real-fake-judgement-flashing-group1,2021.1.2
104,Trial # 102,Group1-stimuli/group1-block1/real-group1-b1/Group1_IMG_0310.jpg,1,Group1_IMG_0310.jpg,,,,,0.0,101.0,101.0,101.0,,,,,,,,,,,,,,,,,,,408.64870966400485,None,,,1,0.3115956030087545,411.1169313399587,None,411.1169313399587,None,,,409.9662947439356,None,,,,,1,2022_Apr_04_1501,Real-fake-judgement-flashing-group1,2021.1.2
105,Trial # 103,Group1-stimuli/group1-block1/fake-group2-b1/encoded_Group2_IMG_0528.jpg,0,encoded_Group2_IMG_0528.jpg,,,,,0.0,102.0,102.0,102.0,,,,,,,,,,,,,,,,,,,411.4503823979758,None,,,0,0.2952582299476489,413.9172703439836,None,413.9172703439836,None,,,412.75014201994054,None,,,,,1,2022_Apr_04_1501,Real-fake-judgement-flashing-group1,2021.1.2
106,Trial # 104,Group1-stimuli/group1-block1/fake-group2-b1/encoded_Group2_IMG_1975.jpg,0,encoded_Group2_IMG_1975.jpg,,,,,0.0,103.0,103.0,103.0,,,,,,,,,,,,,,,,,,,414.2339848779375,None,,,1,0.5186062610009685,416.7019450799562,None,416.7019450799562,None,,,415.53553030896,None,,,,,1,2022_Apr_04_1501,Real-fake-judgement-flashing-group1,2021.1.2
107,Trial # 105,Group1-stimuli/group1-block1/fake-group2-b1/encoded_Group2_IMG_0052.jpg,0,encoded_Group2_IMG_0052.jpg,,,,,0.0,104.0,104.0,104.0,,,,,,,,,,,,,,,,,,,417.2530738969799,None,,,0,0.5087825040100142,419.7357625599252,None,419.7357625599252,None,,,418.5685831810115,None,,,,,1,2022_Apr_04_1501,Real-fake-judgement-flashing-group1,2021.1.2
108,Trial # 106,Group1-stimuli/group1-block1/fake-group2-b1/encoded_Group2_IMG_0225.jpg,0,encoded_Group2_IMG_0225.jpg,,,,,0.0,105.0,105.0,105.0,,,,,,,,,,,,,,,,,,,420.26913560100365,None,,,0,0.3067332649370655,422.73779411101714,None,422.73779411101714,None,,,421.5706812150311,None,,,,,1,2022_Apr_04_1501,Real-fake-judgement-flashing-group1,2021.1.2
109,Trial # 107,Group1-stimuli/group1-block1/real-group1-b1/Group1_IMG_2231.jpg,1,Group1_IMG_2231.jpg,,,,,0.0,106.0,106.0,106.0,,,,,,,,,,,,,,,,,,,423.0702032919508,None,,,1,0.3852350810775533,425.5552920600167,None,425.5552920600167,None,,,424.3870661120163,None,,,,,1,2022_Apr_04_1501,Real-fake-judgement-flashing-group1,2021.1.2
110,Trial # 108,Group1-stimuli/group1-block1/real-group1-b1/Group1_IMG_0217.jpg,1,Group1_IMG_0217.jpg,,,,,0.0,107.0,107.0,107.0,,,,,,,,,,,,,,,,,,,425.9722389780218,None,,,1,0.5662175880279392,428.4383207890205,None,428.4383207890205,None,,,427.2723838239908,None,,,,,1,2022_Apr_04_1501,Real-fake-judgement-flashing-group1,2021.1.2
111,Trial # 109,Group1-stimuli/group1-block1/real-group1-b1/Group1_IMG_0264.jpg,1,Group1_IMG_0264.jpg,,,,,0.0,108.0,108.0,108.0,,,,,,,,,,,,,,,,,,,429.02278555894736,None,,,1,0.2587684869067743,431.48975654598325,None,431.48975654598325,None,,,430.3222296909662,None,,,,,1,2022_Apr_04_1501,Real-fake-judgement-flashing-group1,2021.1.2
112,Trial # 110,Group1-stimuli/group1-block1/fake-group2-b1/encoded_Group2_IMG_0254.jpg,0,encoded_Group2_IMG_0254.jpg,,,,,0.0,109.0,109.0,109.0,,,,,,,,,,,,,,,,,,,431.7739356789971,None,,,1,0.4765411609550938,434.239972744952,None,434.239972744952,None,,,433.0731051249895,None,,,,,1,2022_Apr_04_1501,Real-fake-judgement-flashing-group1,2021.1.2
113,Trial # 111,Group1-stimuli/group1-block1/fake-group2-b1/encoded_Group2_IMG_5433.jpg,0,encoded_Group2_IMG_5433.jpg,,,,,0.0,110.0,110.0,110.0,,,,,,,,,,,,,,,,,,,434.7410680759931,None,,,0,0.3156270979670807,437.2248979129363,None,437.2248979129363,None,,,436.04190131893847,None,,,,,1,2022_Apr_04_1501,Real-fake-judgement-flashing-group1,2021.1.2
114,Trial # 112,Group1-stimuli/group1-block1/real-group1-b1/Group1_IMG_0252.jpg,1,Group1_IMG_0252.jpg,,,,,0.0,111.0,111.0,111.0,,,,,,,,,,,,,,,,,,,437.55788074294105,None,,,1,0.1384292390430346,440.0420985999517,None,440.0420985999517,None,,,438.87497721996624,None,,,,,1,2022_Apr_04_1501,Real-fake-judgement-flashing-group1,2021.1.2
115,Trial # 113,Group1-stimuli/group1-block1/real-group1-b1/Group1_IMG_9720.jpg,1,Group1_IMG_9720.jpg,,,,,0.0,112.0,112.0,112.0,,,,,,,,,,,,,,,,,,,440.2086240350036,None,,,1,0.2956705850083381,442.69285652798135,None,442.69285652798135,None,,,441.5268977859523,None,,,,,1,2022_Apr_04_1501,Real-fake-judgement-flashing-group1,2021.1.2
116,Trial # 114,Group1-stimuli/group1-block1/fake-group2-b1/encoded_Group2_IMG_0550.jpg,0,encoded_Group2_IMG_0550.jpg,,,,,0.0,113.0,113.0,113.0,,,,,,,,,,,,,,,,,,,443.0095825049793,None,,,0,0.3038154179230332,445.4607131639496,None,445.4607131639496,None,,,444.29328329500277,None,,,,,1,2022_Apr_04_1501,Real-fake-judgement-flashing-group1,2021.1.2
117,Trial # 115,Group1-stimuli/group1-block1/real-group1-b1/Group1_IMG_9915.jpg,1,Group1_IMG_9915.jpg,,,,,0.0,114.0,114.0,114.0,,,,,,,,,,,,,,,,,,,445.7952021629317,None,,,1,1.8065404699882488,448.2780200400157,None,448.2780200400157,None,,,447.11192386993207,None,,,,,1,2022_Apr_04_1501,Real-fake-judgement-flashing-group1,2021.1.2
118,Trial # 116,Group1-stimuli/group1-block1/real-group1-b1/Group1_IMG_9850.jpg,1,Group1_IMG_9850.jpg,,,,,0.0,115.0,115.0,115.0,,,,,,,,,,,,,,,,,,,450.1115681329975,None,,,1,0.2811669500079006,452.5792939430103,None,452.5792939430103,None,,,451.4132948759943,None,,,,,1,2022_Apr_04_1501,Real-fake-judgement-flashing-group1,2021.1.2
119,Trial # 117,Group1-stimuli/group1-block1/real-group1-b1/Group1_IMG_3579.jpg,1,Group1_IMG_3579.jpg,,,,,0.0,116.0,116.0,116.0,,,,,,,,,,,,,,,,,,,452.87944657099433,None,,,1,0.2578372940188274,455.3466877919855,None,455.3466877919855,None,,,454.179628737038,None,,,,,1,2022_Apr_04_1501,Real-fake-judgement-flashing-group1,2021.1.2
120,Trial # 118,Group1-stimuli/group1-block1/fake-group2-b1/encoded_Group2_IMG_0377.jpg,0,encoded_Group2_IMG_0377.jpg,,,,,0.0,117.0,117.0,117.0,,,,,,,,,,,,,,,,,,,455.6314746289281,None,,,0,0.2411700210068375,458.11535384494346,None,458.11535384494346,None,,,456.94827949500177,None,,,,,1,2022_Apr_04_1501,Real-fake-judgement-flashing-group1,2021.1.2
121,Trial # 119,Group1-stimuli/group1-block1/real-group1-b1/Group1_IMG_0469.jpg,1,Group1_IMG_0469.jpg,,,,,0.0,118.0,118.0,118.0,,,,,,,,,,,,,,,,,,,458.3810277869925,None,,,1,0.3148085529683158,460.84971101395786,None,460.84971101395786,None,,,459.69804242393,None,,,,,1,2022_Apr_04_1501,Real-fake-judgement-flashing-group1,2021.1.2
122,Trial # 120,Group1-stimuli/group1-block1/fake-group2-b1/encoded_Group2_IMG_0100.jpg,0,encoded_Group2_IMG_0100.jpg,,,,,0.0,119.0,119.0,119.0,,,,,,,,,,,,,,,,,,,461.1822873019846,None,,,0,0.2991790330270305,463.6493591950275,None,463.6493591950275,None,,,462.48232428892516,None,,,,,1,2022_Apr_04_1501,Real-fake-judgement-flashing-group1,2021.1.2
123,Trial # 121,Group1-stimuli/group1-block1/real-group1-b1/Group1_IMG_5359.jpg,1,Group1_IMG_5359.jpg,,,,,0.0,120.0,120.0,120.0,,,,,,,,,,,,,,,,,,,463.9664728590287,None,,,1,0.2745037659769878,466.4340243919287,None,466.4340243919287,None,,,465.2663908469258,None,,,,,1,2022_Apr_04_1501,Real-fake-judgement-flashing-group1,2021.1.2
124,Trial # 122,Group1-stimuli/group1-block1/fake-group2-b1/encoded_Group2_IMG_0304.jpg,0,encoded_Group2_IMG_0304.jpg,,,,,0.0,121.0,121.0,121.0,,,,,,,,,,,,,,,,,,,466.7349088100018,None,,,0,0.2601333260536194,469.1843931470066,None,469.1843931470066,None,,,468.0173102809349,None,,,,,1,2022_Apr_04_1501,Real-fake-judgement-flashing-group1,2021.1.2
125,Trial # 123,Group1-stimuli/group1-block1/real-group1-b1/Group1_IMG_0306.jpg,1,Group1_IMG_0306.jpg,,,,,0.0,122.0,122.0,122.0,,,,,,,,,,,,,,,,,,,469.467768864939,None,,,1,0.9570423510158436,471.9354812119855,None,471.9354812119855,None,,,470.78521483496297,None,,,,,1,2022_Apr_04_1501,Real-fake-judgement-flashing-group1,2021.1.2
126,Trial # 124,Group1-stimuli/group1-block1/real-group1-b1/Group1_IMG_0224.jpg,1,Group1_IMG_0224.jpg,,,,,0.0,123.0,123.0,123.0,,,,,,,,,,,,,,,,,,,472.91932003502734,None,,,1,0.274281722959131,475.38624395802617,None,475.38624395802617,None,,,474.21920594898984,None,,,,,1,2022_Apr_04_1501,Real-fake-judgement-flashing-group1,2021.1.2
127,Trial # 125,Group1-stimuli/group1-block1/real-group1-b1/Group1_IMG_9889.jpg,1,Group1_IMG_9889.jpg,,,,,0.0,124.0,124.0,124.0,,,,,,,,,,,,,,,,,,,475.687490746961,None,,,0,1.7859870559768751,478.1705401139334,None,478.1705401139334,None,,,477.00448606396094,None,,,,,1,2022_Apr_04_1501,Real-fake-judgement-flashing-group1,2021.1.2
128,Trial # 126,Group1-stimuli/group1-block1/real-group1-b1/Group1_IMG_0293.jpg,1,Group1_IMG_0293.jpg,,,,,0.0,125.0,125.0,125.0,,,,,,,,,,,,,,,,,,,479.9874273500173,None,,,1,0.1721375579945743,482.4563893430168,None,482.4563893430168,None,,,481.2891997799743,None,,,,,1,2022_Apr_04_1501,Real-fake-judgement-flashing-group1,2021.1.2
129,Trial # 127,Group1-stimuli/group1-block1/fake-group2-b1/encoded_Group2_IMG_0321.jpg,0,encoded_Group2_IMG_0321.jpg,,,,,0.0,126.0,126.0,126.0,,,,,,,,,,,,,,,,,,,482.6552718259627,None,,,0,1.225005784071982,485.13951868203,None,485.13951868203,None,,,483.9721370199695,None,,,,,1,2022_Apr_04_1501,Real-fake-judgement-flashing-group1,2021.1.2
130,Trial # 128,Group1-stimuli/group1-block1/fake-group2-b1/encoded_Group2_IMG_0400.jpg,0,encoded_Group2_IMG_0400.jpg,,,,,0.0,127.0,127.0,127.0,,,,,,,,,,,,,,,,,,,486.3908277939772,None,,,0,0.4194859850686043,488.8570407869993,None,488.8570407869993,None,,,487.6900669259485,None,,,,,1,2022_Apr_04_1501,Real-fake-judgement-flashing-group1,2021.1.2
131,Trial # 129,Group1-stimuli/group1-block1/fake-group2-b1/encoded_Group2_IMG_0443.jpg,0,encoded_Group2_IMG_0443.jpg,,,,,0.0,128.0,128.0,128.0,,,,,,,,,,,,,,,,,,,489.30773169593886,None,,,0,0.3738161500077694,491.7747129109921,None,491.7747129109921,None,,,490.64202946494333,None,,,,,1,2022_Apr_04_1501,Real-fake-judgement-flashing-group1,2021.1.2
132,Trial # 130,Group1-stimuli/group1-block1/fake-group2-b1/encoded_Group2_IMG_0542.jpg,0,encoded_Group2_IMG_0542.jpg,,,,,0.0,129.0,129.0,129.0,,,,,,,,,,,,,,,,,,,492.1760239970172,None,,,0,0.7212628190172836,494.6592629980296,None,494.6592629980296,None,,,493.49162037402857,None,,,,,1,2022_Apr_04_1501,Real-fake-judgement-flashing-group1,2021.1.2
133,Trial # 131,Group1-stimuli/group1-block1/real-group1-b1/Group1_IMG_0885.jpg,1,Group1_IMG_0885.jpg,,,,,0.0,130.0,130.0,130.0,,,,,,,,,,,,,,,,,,,495.4085812310223,None,,,1,0.3349105410743505,497.8936169230146,None,497.8936169230146,None,,,496.8596543429885,None,,,,,1,2022_Apr_04_1501,Real-fake-judgement-flashing-group1,2021.1.2
134,Trial # 132,Group1-stimuli/group1-block1/real-group1-b1/Group1_IMG_0375.jpg,1,Group1_IMG_0375.jpg,,,,,0.0,131.0,131.0,131.0,,,,,,,,,,,,,,,,,,,498.2600103570148,None,,,1,0.2916271069552749,500.7289000139572,None,500.7289000139572,None,,,499.57760577695444,None,,,,,1,2022_Apr_04_1501,Real-fake-judgement-flashing-group1,2021.1.2
135,Trial # 133,Group1-stimuli/group1-block1/fake-group2-b1/encoded_Group2_IMG_7351.jpg,0,encoded_Group2_IMG_7351.jpg,,,,,0.0,132.0,132.0,132.0,,,,,,,,,,,,,,,,,,,501.04460888996255,None,,,0,0.2840967240044847,503.5283545149723,None,503.5283545149723,None,,,502.3611817799974,None,,,,,1,2022_Apr_04_1501,Real-fake-judgement-flashing-group1,2021.1.2
136,Trial # 134,Group1-stimuli/group1-block1/fake-group2-b1/encoded_Group2_IMG_0416.jpg,0,encoded_Group2_IMG_0416.jpg,,,,,0.0,133.0,133.0,133.0,,,,,,,,,,,,,,,,,,,503.84512249194086,None,,,0,0.2676363110076636,506.31282665394247,None,506.31282665394247,None,,,505.14486842695624,None,,,,,1,2022_Apr_04_1501,Real-fake-judgement-flashing-group1,2021.1.2
137,Trial # 135,Group1-stimuli/group1-block1/fake-group2-b1/encoded_Group2_IMG_0139.jpg,0,encoded_Group2_IMG_0139.jpg,,,,,0.0,134.0,134.0,134.0,,,,,,,,,,,,,,,,,,,506.6127670829883,None,,,0,0.2919732430018484,509.09655324800406,None,509.09655324800406,None,,,507.92960268992465,None,,,,,1,2022_Apr_04_1501,Real-fake-judgement-flashing-group1,2021.1.2
138,Trial # 136,Group1-stimuli/group1-block1/real-group1-b1/Group1_IMG_9677.jpg,1,Group1_IMG_9677.jpg,,,,,0.0,135.0,135.0,135.0,,,,,,,,,,,,,,,,,,,509.4129879729589,None,,,1,0.2583380950381979,511.88211216195486,None,511.88211216195486,None,,,510.7149645680329,None,,,,,1,2022_Apr_04_1501,Real-fake-judgement-flashing-group1,2021.1.2
139,Trial # 137,Group1-stimuli/group1-block1/fake-group2-b1/encoded_Group2_IMG_5982.jpg,0,encoded_Group2_IMG_5982.jpg,,,,,0.0,136.0,136.0,136.0,,,,,,,,,,,,,,,,,,,512.1653986589517,None,,,0,1.3400679948972538,514.6484591349727,None,514.6484591349727,None,,,513.4812736529857,None,,,,,1,2022_Apr_04_1501,Real-fake-judgement-flashing-group1,2021.1.2
140,Trial # 138,Group1-stimuli/group1-block1/fake-group2-b1/encoded_Group2_IMG_1144.jpg,0,encoded_Group2_IMG_1144.jpg,,,,,0.0,137.0,137.0,137.0,,,,,,,,,,,,,,,,,,,516.0160255839583,None,,,1,0.544972884003073,518.4995528910076,None,518.4995528910076,None,,,517.3335535930237,None,,,,,1,2022_Apr_04_1501,Real-fake-judgement-flashing-group1,2021.1.2
141,Trial # 139,Group1-stimuli/group1-block1/fake-group2-b1/encoded_Group2_IMG_0315.jpg,0,encoded_Group2_IMG_0315.jpg,,,,,0.0,138.0,138.0,138.0,,,,,,,,,,,,,,,,,,,519.0674485579366,None,,,0,0.2062766349408775,521.534251310979,None,521.534251310979,None,,,520.3666545070009,None,,,,,1,2022_Apr_04_1501,Real-fake-judgement-flashing-group1,2021.1.2
142,Trial # 140,Group1-stimuli/group1-block1/real-group1-b1/Group1_IMG_130.jpg,1,Group1_IMG_130.jpg,,,,,0.0,139.0,139.0,139.0,,,,,,,,,,,,,,,,,,,521.7675933199935,None,,,1,0.2970805480144918,524.251462011016,None,524.251462011016,None,,,523.0841905779671,None,,,,,1,2022_Apr_04_1501,Real-fake-judgement-flashing-group1,2021.1.2
143,Trial # 141,Group1-stimuli/group1-block1/real-group1-b1/Group1_IMG_0024.jpg,1,Group1_IMG_0024.jpg,,,,,0.0,140.0,140.0,140.0,,,,,,,,,,,,,,,,,,,524.5680316429352,None,,,0,0.263122208067216,527.0534232800128,None,527.0534232800128,None,,,525.886234569014,None,,,,,1,2022_Apr_04_1501,Real-fake-judgement-flashing-group1,2021.1.2
144,Trial # 142,Group1-stimuli/group1-block1/fake-group2-b1/encoded_Group2_IMG_5012.jpg,0,encoded_Group2_IMG_5012.jpg,,,,,0.0,141.0,141.0,141.0,,,,,,,,,,,,,,,,,,,527.3360143200262,None,,,0,0.601296198903583,529.8032295679441,None,529.8032295679441,None,,,528.6359774390003,None,,,,,1,2022_Apr_04_1501,Real-fake-judgement-flashing-group1,2021.1.2
145,Trial # 143,Group1-stimuli/group1-block1/fake-group2-b1/encoded_Group2_IMG_0209.jpg,0,encoded_Group2_IMG_0209.jpg,,,,,0.0,142.0,142.0,142.0,,,,,,,,,,,,,,,,,,,530.4369724509306,None,,,0,0.0605166060850024,532.9040187479695,None,532.9040187479695,None,,,531.7381654030178,None,,,,,1,2022_Apr_04_1501,Real-fake-judgement-flashing-group1,2021.1.2
146,Trial # 144,Group1-stimuli/group1-block1/real-group1-b1/Group1_IMG_0373.jpg,1,Group1_IMG_0373.jpg,,,,,0.0,143.0,143.0,143.0,,,,,,,,,,,,,,,,,,,532.9875592689496,None,,,1,0.9799767009681092,535.4885495690396,None,535.4885495690396,None,,,534.3044683139306,None,,,,,1,2022_Apr_04_1501,Real-fake-judgement-flashing-group1,2021.1.2
147,Trial # 145,Group1-stimuli/group1-block1/real-group1-b1/Group1_IMG_5899.jpg,1,Group1_IMG_5899.jpg,,,,,0.0,144.0,144.0,144.0,,,,,,,,,,,,,,,,,,,536.489234750974,None,,,1,0.2965725959511474,538.9559530270053,None,538.9559530270053,None,,,537.7893431680277,None,,,,,1,2022_Apr_04_1501,Real-fake-judgement-flashing-group1,2021.1.2
148,Trial # 146,Group1-stimuli/group1-block1/real-group1-b1/Group1_IMG_0162.jpg,1,Group1_IMG_0162.jpg,,,,,0.0,145.0,145.0,145.0,,,,,,,,,,,,,,,,,,,539.2736449550139,None,,,1,0.1201083669438958,541.7404200510355,None,541.7404200510355,None,,,540.5734076879453,None,,,,,1,2022_Apr_04_1501,Real-fake-judgement-flashing-group1,2021.1.2
149,Trial # 147,Group1-stimuli/group1-block1/real-group1-b1/Group1_IMG_0543.jpg,1,Group1_IMG_0543.jpg,,,,,0.0,146.0,146.0,146.0,,,,,,,,,,,,,,,,,,,541.8914217320271,None,,,1,0.2542398140067234,544.3742862970103,None,544.3742862970103,None,,,543.2237790139625,None,,,,,1,2022_Apr_04_1501,Real-fake-judgement-flashing-group1,2021.1.2
150,Trial # 148,Group1-stimuli/group1-block1/fake-group2-b1/encoded_Group2_IMG_0355.jpg,0,encoded_Group2_IMG_0355.jpg,,,,,0.0,147.0,147.0,147.0,,,,,,,,,,,,,,,,,,,544.6576737819705,None,,,1,0.1761142670875415,547.1083348100074,None,547.1083348100074,None,,,545.9424786119489,None,,,,,1,2022_Apr_04_1501,Real-fake-judgement-flashing-group1,2021.1.2
151,Trial # 149,Group1-stimuli/group1-block1/real-group1-b1/Group1_IMG_9765.jpg,1,Group1_IMG_9765.jpg,,,,,0.0,148.0,148.0,148.0,,,,,,,,,,,,,,,,,,,547.3094582560007,None,,,1,0.2759152669459581,549.7926150190178,None,549.7926150190178,None,,,548.6421089729993,None,,,,,1,2022_Apr_04_1501,Real-fake-judgement-flashing-group1,2021.1.2
152,Trial # 150,Group1-stimuli/group1-block1/fake-group2-b1/encoded_Group2_IMG_1378.jpg,0,encoded_Group2_IMG_1378.jpg,,,,,0.0,149.0,149.0,149.0,,,,,,,,,,,,,,,,,,,550.0923405149952,None,,,1,0.3644323290791362,552.5600723680109,None,552.5600723680109,None,,,551.3934227769496,None,,,,,1,2022_Apr_04_1501,Real-fake-judgement-flashing-group1,2021.1.2
153,Trial # 1,Group1-stimuli/group1-block2/fake-group2-b2/encoded_Group2_IMG_0155.jpg,0,encoded_Group2_IMG_0155.jpg,,,,,,,,,0.0,0.0,0.0,0.0,,,,,,,,,,,,,,,566.0822774419794,None,,,0,1.290002741967328,568.4985231269384,None,568.4985231269384,None,559.3288564239629,None,567.3311917750398,None,552.9434599230299,None,,,1,2022_Apr_04_1501,Real-fake-judgement-flashing-group1,2021.1.2
154,Trial # 2,Group1-stimuli/group1-block2/real-group1-b2/Group1_IMG_0519.jpg,1,Group1_IMG_0519.jpg,,,,,,,,,0.0,1.0,1.0,1.0,,,,,,,,,,,,,,,569.8156246099388,None,,,1,1.1678112630033866,572.3006917929742,None,572.3006917929742,None,,,571.1168435539585,None,,,,,1,2022_Apr_04_1501,Real-fake-judgement-flashing-group1,2021.1.2
155,Trial # 3,Group1-stimuli/group1-block2/fake-group2-b2/encoded_Group2_IMG_0135.jpg,0,encoded_Group2_IMG_0135.jpg,,,,,,,,,0.0,2.0,2.0,2.0,,,,,,,,,,,,,,,573.5000626479741,None,,,0,4.884878873010166,575.9676571839955,None,575.9676571839955,None,,,574.8168730509933,None,,,,,1,2022_Apr_04_1501,Real-fake-judgement-flashing-group1,2021.1.2
156,Trial # 4,Group1-stimuli/group1-block2/real-group1-b2/Group1_IMG_5310.jpg,1,Group1_IMG_5310.jpg,,,,,,,,,0.0,3.0,3.0,3.0,,,,,,,,,,,,,,,580.8700193529949,None,,,1,0.7882653949782252,583.3362613880308,None,583.3362613880308,None,,,582.1704451669939,None,,,,,1,2022_Apr_04_1501,Real-fake-judgement-flashing-group1,2021.1.2
157,Trial # 5,Group1-stimuli/group1-block2/real-group1-b2/Group1_IMG_0522.jpg,1,Group1_IMG_0522.jpg,,,,,,,,,0.0,4.0,4.0,4.0,,,,,,,,,,,,,,,584.1532112929272,None,,,1,0.3106675180606544,586.6218600060092,None,586.6218600060092,None,,,585.453467763029,None,,,,,1,2022_Apr_04_1501,Real-fake-judgement-flashing-group1,2021.1.2
158,Trial # 6,Group1-stimuli/group1-block2/fake-group2-b2/encoded_Group2_IMG_0484.jpg,0,encoded_Group2_IMG_0484.jpg,,,,,,,,,0.0,5.0,5.0,5.0,,,,,,,,,,,,,,,586.9555503670126,None,,,0,0.3269621629733592,589.4215651840204,None,589.4215651840204,None,,,588.28774251102,None,,,,,1,2022_Apr_04_1501,Real-fake-judgement-flashing-group1,2021.1.2
159,Trial # 7,Group1-stimuli/group1-block2/fake-group2-b2/encoded_Group2_IMG_5948.jpg,0,encoded_Group2_IMG_5948.jpg,,,,,,,,,0.0,6.0,6.0,6.0,,,,,,,,,,,,,,,589.7721434850246,None,,,0,0.309858447057195,592.222668658942,None,592.222668658942,None,,,591.0557663459331,None,,,,,1,2022_Apr_04_1501,Real-fake-judgement-flashing-group1,2021.1.2
160,Trial # 8,Group1-stimuli/group1-block2/fake-group2-b2/encoded_Group2_IMG_3591.jpg,0,encoded_Group2_IMG_3591.jpg,,,,,,,,,0.0,7.0,7.0,7.0,,,,,,,,,,,,,,,592.5562940449454,None,,,0,3.204510331968777,595.0400159240235,None,595.0400159240235,None,,,593.8727974470239,None,,,,,1,2022_Apr_04_1501,Real-fake-judgement-flashing-group1,2021.1.2
161,Trial # 9,Group1-stimuli/group1-block2/real-group1-b2/Group1_IMG_9835.jpg,1,Group1_IMG_9835.jpg,,,,,,,,,0.0,8.0,8.0,8.0,,,,,,,,,,,,,,,598.2743281599833,None,,,1,0.318286013090983,600.7421652580379,None,600.7421652580379,None,,,599.5912090339698,None,,,,,1,2022_Apr_04_1501,Real-fake-judgement-flashing-group1,2021.1.2
162,Trial # 10,Group1-stimuli/group1-block2/real-group1-b2/Group1_IMG_0556.jpg,1,Group1_IMG_0556.jpg,,,,,,,,,0.0,9.0,9.0,9.0,,,,,,,,,,,,,,,601.0921856079949,None,,,1,0.3005394539795816,603.5598913020222,None,603.5598913020222,None,,,602.3920695970301,None,,,,,1,2022_Apr_04_1501,Real-fake-judgement-flashing-group1,2021.1.2
163,Trial # 11,Group1-stimuli/group1-block2/fake-group2-b2/encoded_Group2_IMG_9736.jpg,0,encoded_Group2_IMG_9736.jpg,,,,,,,,,0.0,10.0,10.0,10.0,,,,,,,,,,,,,,,603.8936283920193,None,,,0,0.2122532339999452,606.360284965951,None,606.360284965951,None,,,605.2095571639948,None,,,,,1,2022_Apr_04_1501,Real-fake-judgement-flashing-group1,2021.1.2
164,Trial # 12,Group1-stimuli/group1-block2/real-group1-b2/Group1_IMG_9867.jpg,1,Group1_IMG_9867.jpg,,,,,,,,,0.0,11.0,11.0,11.0,,,,,,,,,,,,,,,606.5941741629504,None,,,1,2.167656139004976,609.0608842800139,None,609.0608842800139,None,,,607.8937124009244,None,,,,,1,2022_Apr_04_1501,Real-fake-judgement-flashing-group1,2021.1.2
165,Trial # 13,Group1-stimuli/group1-block2/fake-group2-b2/encoded_Group2_IMG_9886.jpg,0,encoded_Group2_IMG_9886.jpg,,,,,,,,,0.0,12.0,12.0,12.0,,,,,,,,,,,,,,,611.2459184329491,None,,,1,0.7954641769174486,613.729062816943,None,613.729062816943,None,,,612.5631073879777,None,,,,,1,2022_Apr_04_1501,Real-fake-judgement-flashing-group1,2021.1.2
166,Trial # 14,Group1-stimuli/group1-block2/fake-group2-b2/encoded_Group2_IMG_2245.jpg,0,encoded_Group2_IMG_2245.jpg,,,,,,,,,0.0,13.0,13.0,13.0,,,,,,,,,,,,,,,614.5459433340002,None,,,1,1.4540574860293418,617.014470811002,None,617.014470811002,None,,,615.8473515129881,None,,,,,1,2022_Apr_04_1501,Real-fake-judgement-flashing-group1,2021.1.2
167,Trial # 15,Group1-stimuli/group1-block2/fake-group2-b2/encoded_Group2_IMG_0507.jpg,0,encoded_Group2_IMG_0507.jpg,,,,,,,,,0.0,14.0,14.0,14.0,,,,,,,,,,,,,,,618.4972054519458,None,,,0,0.182876958977431,620.9656636129366,None,620.9656636129366,None,,,619.7974510099739,None,,,,,1,2022_Apr_04_1501,Real-fake-judgement-flashing-group1,2021.1.2
168,Trial # 16,Group1-stimuli/group1-block2/fake-group2-b2/encoded_Group2_IMG_0338.jpg,0,encoded_Group2_IMG_0338.jpg,,,,,,,,,0.0,15.0,15.0,15.0,,,,,,,,,,,,,,,621.16513618303,None,,,1,0.3479243559995666,623.6485729359556,None,623.6485729359556,None,,,622.4816471399972,None,,,,,1,2022_Apr_04_1501,Real-fake-judgement-flashing-group1,2021.1.2
169,Trial # 17,Group1-stimuli/group1-block2/real-group1-b2/Group1_IMG_0376.jpg,1,Group1_IMG_0376.jpg,,,,,,,,,0.0,16.0,16.0,16.0,,,,,,,,,,,,,,,624.0155710389372,None,,,1,0.7763576289871708,626.4841688600136,None,626.4841688600136,None,,,625.315313271014,None,,,,,1,2022_Apr_04_1501,Real-fake-judgement-flashing-group1,2021.1.2
170,Trial # 18,Group1-stimuli/group1-block2/real-group1-b2/Group1_IMG_9821.jpg,1,Group1_IMG_9821.jpg,,,,,,,,,0.0,17.0,17.0,17.0,,,,,,,,,,,,,,,627.2833751839353,None,,,1,0.4779590819962322,629.7505672329571,None,629.7505672329571,None,,,628.5834879149916,None,,,,,1,2022_Apr_04_1501,Real-fake-judgement-flashing-group1,2021.1.2
171,Trial # 19,Group1-stimuli/group1-block2/fake-group2-b2/encoded_Group2_IMG_0388.jpg,0,encoded_Group2_IMG_0388.jpg,,,,,,,,,0.0,18.0,18.0,18.0,,,,,,,,,,,,,,,630.251059183036,None,,,0,0.1252023929264396,632.7353172579315,None,632.7353172579315,None,,,631.5515525969677,None,,,,,1,2022_Apr_04_1501,Real-fake-judgement-flashing-group1,2021.1.2
172,Trial # 20,Group1-stimuli/group1-block2/fake-group2-b2/encoded_Group2_IMG_0222.jpg,0,encoded_Group2_IMG_0222.jpg,,,,,,,,,0.0,19.0,19.0,19.0,,,,,,,,,,,,,,,632.8852387520019,None,,,1,0.4841472340049222,635.3522878580261,None,635.3522878580261,None,,,634.2023937469348,None,,,,,1,2022_Apr_04_1501,Real-fake-judgement-flashing-group1,2021.1.2
173,Trial # 21,Group1-stimuli/group1-block2/fake-group2-b2/encoded_Group2_IMG_2215.jpg,0,encoded_Group2_IMG_2215.jpg,,,,,,,,,0.0,20.0,20.0,20.0,,,,,,,,,,,,,,,635.8706113379449,None,,,0,0.2845428549917415,638.3199180270312,None,638.3199180270312,None,,,637.154051473015,None,,,,,1,2022_Apr_04_1501,Real-fake-judgement-flashing-group1,2021.1.2
174,Trial # 22,Group1-stimuli/group1-block2/real-group1-b2/Group1_IMG_9760.jpg,1,Group1_IMG_9760.jpg,,,,,,,,,0.0,21.0,21.0,21.0,,,,,,,,,,,,,,,638.6376461660257,None,,,1,0.3239998139906674,641.1045288699679,None,641.1045288699679,None,,,639.95354258304,None,,,,,1,2022_Apr_04_1501,Real-fake-judgement-flashing-group1,2021.1.2
175,Trial # 23,Group1-stimuli/group1-block2/real-group1-b2/Group1_IMG_9897.jpg,1,Group1_IMG_9897.jpg,,,,,,,,,0.0,22.0,22.0,22.0,,,,,,,,,,,,,,,641.4550050880061,None,,,1,1.346648031962104,643.9218773139874,None,643.9218773139874,None,,,642.7557567489566,None,,,,,1,2022_Apr_04_1501,Real-fake-judgement-flashing-group1,2021.1.2
176,Trial # 24,Group1-stimuli/group1-block2/real-group1-b2/Group1_IMG_4250.jpg,1,Group1_IMG_4250.jpg,,,,,,,,,0.0,23.0,23.0,23.0,,,,,,,,,,,,,,,645.2882818819489,None,,,1,0.343117616022937,647.7574079949409,None,647.7574079949409,None,,,646.5894969479414,None,,,,,1,2022_Apr_04_1501,Real-fake-judgement-flashing-group1,2021.1.2
177,Trial # 25,Group1-stimuli/group1-block2/real-group1-b2/Group1_IMG_2244.jpg,1,Group1_IMG_2244.jpg,,,,,,,,,0.0,24.0,24.0,24.0,,,,,,,,,,,,,,,648.1237963460153,None,,,1,0.3416443229652941,650.5908829430118,None,650.5908829430118,None,,,649.4232309280196,None,,,,,1,2022_Apr_04_1501,Real-fake-judgement-flashing-group1,2021.1.2
178,Trial # 26,Group1-stimuli/group1-block2/fake-group2-b2/encoded_Group2_IMG_0501.jpg,0,encoded_Group2_IMG_0501.jpg,,,,,,,,,0.0,25.0,25.0,25.0,,,,,,,,,,,,,,,650.958492144011,None,,,0,0.4038523120107129,653.4086739709601,None,653.4086739709601,None,,,652.2419771610294,None,,,,,1,2022_Apr_04_1501,Real-fake-judgement-flashing-group1,2021.1.2
179,Trial # 27,Group1-stimuli/group1-block2/real-group1-b2/Group1_IMG_9684.jpg,1,Group1_IMG_9684.jpg,,,,,,,,,0.0,26.0,26.0,26.0,,,,,,,,,,,,,,,653.8415344270179,None,,,1,0.3904586749849841,656.310068649007,None,656.310068649007,None,,,655.1415892100194,None,,,,,1,2022_Apr_04_1501,Real-fake-judgement-flashing-group1,2021.1.2
180,Trial # 28,Group1-stimuli/group1-block2/real-group1-b2/Group1_IMG_1039.jpg,1,Group1_IMG_1039.jpg,,,,,,,,,0.0,27.0,27.0,27.0,,,,,,,,,,,,,,,656.7269605969777,None,,,1,0.299568508984521,659.1929520729464,None,659.1929520729464,None,,,658.025890299934,None,,,,,1,2022_Apr_04_1501,Real-fake-judgement-flashing-group1,2021.1.2
181,Trial # 29,Group1-stimuli/group1-block2/fake-group2-b2/encoded_Group2_IMG_0251.jpg,0,encoded_Group2_IMG_0251.jpg,,,,,,,,,0.0,28.0,28.0,28.0,,,,,,,,,,,,,,,659.5102838969324,None,,,0,0.2260714140720665,661.9784548300086,None,661.9784548300086,None,,,660.877294186037,None,,,,,1,2022_Apr_04_1501,Real-fake-judgement-flashing-group1,2021.1.2
182,Trial # 30,Group1-stimuli/group1-block2/real-group1-b2/Group1_IMG_9692.jpg,1,Group1_IMG_9692.jpg,,,,,,,,,0.0,29.0,29.0,29.0,,,,,,,,,,,,,,,662.2287334320135,None,,,1,0.1169511220650747,664.7115109459264,None,664.7115109459264,None,,,663.5441900480073,None,,,,,1,2022_Apr_04_1501,Real-fake-judgement-flashing-group1,2021.1.2
183,Trial # 31,Group1-stimuli/group1-block2/real-group1-b2/Group1_IMG_0512.jpg,1,Group1_IMG_0512.jpg,,,,,,,,,0.0,30.0,30.0,30.0,,,,,,,,,,,,,,,664.861143774935,None,,,1,0.3385078109567985,667.3299944360042,None,667.3299944360042,None,,,666.162288408028,None,,,,,1,2022_Apr_04_1501,Real-fake-judgement-flashing-group1,2021.1.2
184,Trial # 32,Group1-stimuli/group1-block2/fake-group2-b2/encoded_Group2_IMG_9673.jpg,0,encoded_Group2_IMG_9673.jpg,,,,,,,,,0.0,31.0,31.0,31.0,,,,,,,,,,,,,,,667.6971342510078,None,,,0,0.2086776440264657,670.179845724022,None,670.179845724022,None,,,669.0292904049857,None,,,,,1,2022_Apr_04_1501,Real-fake-judgement-flashing-group1,2021.1.2
185,Trial # 33,Group1-stimuli/group1-block2/fake-group2-b2/encoded_Group2_IMG_5135.jpg,0,encoded_Group2_IMG_5135.jpg,,,,,,,,,0.0,32.0,32.0,32.0,,,,,,,,,,,,,,,670.4131084829569,None,,,0,0.4439549719681963,672.8805847759359,None,672.8805847759359,None,,,671.713953619008,None,,,,,1,2022_Apr_04_1501,Real-fake-judgement-flashing-group1,2021.1.2
186,Trial # 34,Group1-stimuli/group1-block2/real-group1-b2/Group1_IMG_0396.jpg,1,Group1_IMG_0396.jpg,,,,,,,,,0.0,33.0,33.0,33.0,,,,,,,,,,,,,,,673.347494623973,None,,,0,0.1805223649134859,675.8159404109465,None,675.8159404109465,None,,,674.6477040229365,None,,,,,1,2022_Apr_04_1501,Real-fake-judgement-flashing-group1,2021.1.2
187,Trial # 35,Group1-stimuli/group1-block2/real-group1-b2/Group1_IMG_4919.jpg,1,Group1_IMG_4919.jpg,,,,,,,,,0.0,34.0,34.0,34.0,,,,,,,,,,,,,,,676.0161120599369,None,,,0,0.249434853089042,678.4990283759544,None,678.4990283759544,None,,,677.331885513966,None,,,,,1,2022_Apr_04_1501,Real-fake-judgement-flashing-group1,2021.1.2
188,Trial # 36,Group1-stimuli/group1-block2/real-group1-b2/Group1_IMG_0449.jpg,1,Group1_IMG_0449.jpg,,,,,,,,,0.0,35.0,35.0,35.0,,,,,,,,,,,,,,,678.7666132929735,None,,,0,0.2180698150768876,681.234403909999,None,681.234403909999,None,,,680.0829048809828,None,,,,,1,2022_Apr_04_1501,Real-fake-judgement-flashing-group1,2021.1.2
189,Trial # 37,Group1-stimuli/group1-block2/fake-group2-b2/encoded_Group2_IMG_0539.jpg,0,encoded_Group2_IMG_0539.jpg,,,,,,,,,0.0,36.0,36.0,36.0,,,,,,,,,,,,,,,681.4847417130368,None,,,0,0.1495714369229972,683.9508567609591,None,683.9508567609591,None,,,682.7836542089935,None,,,,,1,2022_Apr_04_1501,Real-fake-judgement-flashing-group1,2021.1.2
190,Trial # 38,Group1-stimuli/group1-block2/real-group1-b2/Group1_IMG_0453.jpg,1,Group1_IMG_0453.jpg,,,,,,,,,0.0,37.0,37.0,37.0,,,,,,,,,,,,,,,684.1175736789592,None,,,1,0.2023451250279322,686.5861820089631,None,686.5861820089631,None,,,685.4179300520336,None,,,,,1,2022_Apr_04_1501,Real-fake-judgement-flashing-group1,2021.1.2
191,Trial # 39,Group1-stimuli/group1-block2/fake-group2-b2/encoded_Group2_IMG_0318.jpg,0,encoded_Group2_IMG_0318.jpg,,,,,,,,,0.0,38.0,38.0,38.0,,,,,,,,,,,,,,,686.8196134730242,None,,,0,0.2947952440008521,689.2857310440158,None,689.2857310440158,None,,,688.1185089779319,None,,,,,1,2022_Apr_04_1501,Real-fake-judgement-flashing-group1,2021.1.2
192,Trial # 40,Group1-stimuli/group1-block2/real-group1-b2/Group1_IMG_1678.jpg,1,Group1_IMG_1678.jpg,,,,,,,,,0.0,39.0,39.0,39.0,,,,,,,,,,,,,,,689.6022463529371,None,,,1,0.1893809610046446,692.0711442430038,None,692.0711442430038,None,,,690.9030844980152,None,,,,,1,2022_Apr_04_1501,Real-fake-judgement-flashing-group1,2021.1.2
193,Trial # 41,Group1-stimuli/group1-block2/fake-group2-b2/encoded_Group2_IMG_0325.jpg,0,encoded_Group2_IMG_0325.jpg,,,,,,,,,0.0,40.0,40.0,40.0,,,,,,,,,,,,,,,692.2870961179724,None,,,0,0.4737228780286386,694.7708027550252,None,694.7708027550252,None,,,693.6035801640246,None,,,,,1,2022_Apr_04_1501,Real-fake-judgement-flashing-group1,2021.1.2
194,Trial # 42,Group1-stimuli/group1-block2/fake-group2-b2/encoded_Group2_IMG_9935.jpg,0,encoded_Group2_IMG_9935.jpg,,,,,,,,,0.0,41.0,41.0,41.0,,,,,,,,,,,,,,,695.270406880998,None,,,0,2.129627770045772,697.7548974580131,None,697.7548974580131,None,,,696.5890682579484,None,,,,,1,2022_Apr_04_1501,Real-fake-judgement-flashing-group1,2021.1.2
195,Trial # 43,Group1-stimuli/group1-block2/fake-group2-b2/encoded_Group2_IMG_0308.jpg,0,encoded_Group2_IMG_0308.jpg,,,,,,,,,0.0,42.0,42.0,42.0,,,,,,,,,,,,,,,699.9052381910151,None,,,0,0.1114529189653694,702.3730748220114,None,702.3730748220114,None,,,701.2062534539727,None,,,,,1,2022_Apr_04_1501,Real-fake-judgement-flashing-group1,2021.1.2
196,Trial # 44,Group1-stimuli/group1-block2/real-group1-b2/Group1_IMG_0467.jpg,1,Group1_IMG_0467.jpg,,,,,,,,,0.0,43.0,43.0,43.0,,,,,,,,,,,,,,,702.506363419001,None,,,1,1.982568935025484,704.9739575749263,None,704.9739575749263,None,,,703.8069008089369,None,,,,,1,2022_Apr_04_1501,Real-fake-judgement-flashing-group1,2021.1.2
197,Trial # 45,Group1-stimuli/group1-block2/fake-group2-b2/encoded_Group2_IMG_9839.jpg,0,encoded_Group2_IMG_9839.jpg,,,,,,,,,0.0,44.0,44.0,44.0,,,,,,,,,,,,,,,706.9755971329287,None,,,1,0.2186779909534379,709.4418490179814,None,709.4418490179814,None,,,708.274797667982,None,,,,,1,2022_Apr_04_1501,Real-fake-judgement-flashing-group1,2021.1.2
198,Trial # 46,Group1-stimuli/group1-block2/fake-group2-b2/encoded_Group2_IMG_9681.jpg,0,encoded_Group2_IMG_9681.jpg,,,,,,,,,0.0,45.0,45.0,45.0,,,,,,,,,,,,,,,709.6920732660219,None,,,0,1.0287011259933934,712.1438691759249,None,712.1438691759249,None,,,710.975981808966,None,,,,,1,2022_Apr_04_1501,Real-fake-judgement-flashing-group1,2021.1.2
199,Trial # 47,Group1-stimuli/group1-block2/fake-group2-b2/encoded_Group2_IMG_0458.jpg,0,encoded_Group2_IMG_0458.jpg,,,,,,,,,0.0,46.0,46.0,46.0,,,,,,,,,,,,,,,713.1931401869515,None,,,0,0.3021679479861632,715.6622959709493,None,715.6622959709493,None,,,714.4934146440355,None,,,,,1,2022_Apr_04_1501,Real-fake-judgement-flashing-group1,2021.1.2
200,Trial # 48,Group1-stimuli/group1-block2/real-group1-b2/Group1_IMG_1095.jpg,1,Group1_IMG_1095.jpg,,,,,,,,,0.0,47.0,47.0,47.0,,,,,,,,,,,,,,,715.9953431970207,None,,,0,0.2779106320813298,718.4946195810335,None,718.4946195810335,None,,,717.3120926700067,None,,,,,1,2022_Apr_04_1501,Real-fake-judgement-flashing-group1,2021.1.2
201,Trial # 49,Group1-stimuli/group1-block2/fake-group2-b2/encoded_Group2_IMG_9710.jpg,0,encoded_Group2_IMG_9710.jpg,,,,,,,,,0.0,48.0,48.0,48.0,,,,,,,,,,,,,,,718.7948525770335,None,,,0,1.1177447190275416,721.2467822509352,None,721.2467822509352,None,,,720.0784710539738,None,,,,,1,2022_Apr_04_1501,Real-fake-judgement-flashing-group1,2021.1.2
202,Trial # 50,Group1-stimuli/group1-block2/fake-group2-b2/encoded_Group2_IMG_9819.jpg,0,encoded_Group2_IMG_9819.jpg,,,,,,,,,0.0,49.0,49.0,49.0,,,,,,,,,,,,,,,722.3961484889733,None,,,0,0.5731209679506719,724.8634070960106,None,724.8634070960106,None,,,723.6962803379865,None,,,,,1,2022_Apr_04_1501,Real-fake-judgement-flashing-group1,2021.1.2
203,Trial # 51,Group1-stimuli/group1-block2/real-group1-b2/Group1_IMG_0064.jpg,1,Group1_IMG_0064.jpg,,,,,,,,,0.0,50.0,50.0,50.0,,,,,,,,,,,,,,,725.4630441030022,None,,,0,0.4814230079064145,727.9310275790049,None,727.9310275790049,None,,,726.7650399879785,None,,,,,1,2022_Apr_04_1501,Real-fake-judgement-flashing-group1,2021.1.2
204,Trial # 52,Group1-stimuli/group1-block2/fake-group2-b2/encoded_Group2_IMG_9756.jpg,0,encoded_Group2_IMG_9756.jpg,,,,,,,,,0.0,51.0,51.0,51.0,,,,,,,,,,,,,,,728.4311542729847,None,,,0,0.3374707419425249,730.8990575289354,None,730.8990575289354,None,,,729.748063353938,None,,,,,1,2022_Apr_04_1501,Real-fake-judgement-flashing-group1,2021.1.2
205,Trial # 53,Group1-stimuli/group1-block2/fake-group2-b2/encoded_Group2_IMG_5888.jpg,0,encoded_Group2_IMG_5888.jpg,,,,,,,,,0.0,52.0,52.0,52.0,,,,,,,,,,,,,,,731.2658376829932,None,,,0,0.6964162809308618,733.7161097819917,None,733.7161097819917,None,,,732.5501658149296,None,,,,,1,2022_Apr_04_1501,Real-fake-judgement-flashing-group1,2021.1.2
206,Trial # 54,Group1-stimuli/group1-block2/real-group1-b2/Group1_IMG_1476.jpg,1,Group1_IMG_1476.jpg,,,,,,,,,0.0,53.0,53.0,53.0,,,,,,,,,,,,,,,734.4330887079705,None,,,1,0.2142704540165141,736.9183224890148,None,736.9183224890148,None,,,735.7344097410096,None,,,,,1,2022_Apr_04_1501,Real-fake-judgement-flashing-group1,2021.1.2
207,Trial # 55,Group1-stimuli/group1-block2/real-group1-b2/Group1_IMG_1917.jpg,1,Group1_IMG_1917.jpg,,,,,,,,,0.0,54.0,54.0,54.0,,,,,,,,,,,,,,,737.1516248339321,None,,,1,1.8909160260809583,739.6176071439404,None,739.6176071439404,None,,,738.450890143984,None,,,,,1,2022_Apr_04_1501,Real-fake-judgement-flashing-group1,2021.1.2
208,Trial # 56,Group1-stimuli/group1-block2/real-group1-b2/Group1_IMG_0413.jpg,1,Group1_IMG_0413.jpg,,,,,,,,,0.0,55.0,55.0,55.0,,,,,,,,,,,,,,,741.5364205290098,None,,,1,0.3371318210847676,744.0193945920328,None,744.0193945920328,None,,,742.8694762199884,None,,,,,1,2022_Apr_04_1501,Real-fake-judgement-flashing-group1,2021.1.2
209,Trial # 57,Group1-stimuli/group1-block2/real-group1-b2/Group1_IMG_1001.jpg,1,Group1_IMG_1001.jpg,,,,,,,,,0.0,56.0,56.0,56.0,,,,,,,,,,,,,,,744.3872180019971,None,,,1,1.8537922069663184,746.8547342249658,None,746.8547342249658,None,,,745.6863857889548,None,,,,,1,2022_Apr_04_1501,Real-fake-judgement-flashing-group1,2021.1.2
210,Trial # 58,Group1-stimuli/group1-block2/fake-group2-b2/encoded_Group2_IMG_0441.jpg,0,encoded_Group2_IMG_0441.jpg,,,,,,,,,0.0,57.0,57.0,57.0,,,,,,,,,,,,,,,748.737252085004,None,,,0,0.1426106570288539,751.2059244320262,None,751.2059244320262,None,,,750.0376370770391,None,,,,,1,2022_Apr_04_1501,Real-fake-judgement-flashing-group1,2021.1.2
211,Trial # 59,Group1-stimuli/group1-block2/real-group1-b2/Group1_IMG_9774.jpg,1,Group1_IMG_9774.jpg,,,,,,,,,0.0,58.0,58.0,58.0,,,,,,,,,,,,,,,751.3728039199486,None,,,0,0.1095188300823792,753.8390059139347,None,753.8390059139347,None,,,752.6720291889505,None,,,,,1,2022_Apr_04_1501,Real-fake-judgement-flashing-group1,2021.1.2
212,Trial # 60,Group1-stimuli/group1-block2/fake-group2-b2/encoded_Group2_IMG_2751.jpg,0,encoded_Group2_IMG_2751.jpg,,,,,,,,,0.0,59.0,59.0,59.0,,,,,,,,,,,,,,,753.9721861749422,None,,,0,0.6841886860784143,756.4402524980251,None,756.4402524980251,None,,,755.2727134090383,None,,,,,1,2022_Apr_04_1501,Real-fake-judgement-flashing-group1,2021.1.2
213,Trial # 61,Group1-stimuli/group1-block2/fake-group2-b2/encoded_Group2_IMG_0409.jpg,0,encoded_Group2_IMG_0409.jpg,,,,,,,,,0.0,60.0,60.0,60.0,,,,,,,,,,,,,,,757.157999700983,None,,,1,0.3723565399413928,759.6241707890294,None,759.6241707890294,None,,,758.4569997119252,None,,,,,1,2022_Apr_04_1501,Real-fake-judgement-flashing-group1,2021.1.2
214,Trial # 62,Group1-stimuli/group1-block2/real-group1-b2/Group1_IMG_1346.jpg,1,Group1_IMG_1346.jpg,,,,,,,,,0.0,61.0,61.0,61.0,,,,,,,,,,,,,,,760.0243780999444,None,,,1,0.184880223008804,762.4916465189308,None,762.4916465189308,None,,,761.3256739670178,None,,,,,1,2022_Apr_04_1501,Real-fake-judgement-flashing-group1,2021.1.2
215,Trial # 63,Group1-stimuli/group1-block2/real-group1-b2/Group1_IMG_0481.jpg,1,Group1_IMG_0481.jpg,,,,,,,,,0.0,62.0,62.0,62.0,,,,,,,,,,,,,,,762.7091754940338,None,,,1,0.2841705209575593,765.1762915989384,None,765.1762915989384,None,,,764.0083407380152,None,,,,,1,2022_Apr_04_1501,Real-fake-judgement-flashing-group1,2021.1.2
216,Trial # 64,Group1-stimuli/group1-block2/fake-group2-b2/encoded_Group2_IMG_4718.jpg,0,encoded_Group2_IMG_4718.jpg,,,,,,,,,0.0,63.0,63.0,63.0,,,,,,,,,,,,,,,765.4927361930022,None,,,1,0.4207014419371262,767.9438227060018,None,767.9438227060018,None,,,766.7773400919978,None,,,,,1,2022_Apr_04_1501,Real-fake-judgement-flashing-group1,2021.1.2
217,Trial # 65,Group1-stimuli/group1-block2/real-group1-b2/Group1_IMG_0540.jpg,1,Group1_IMG_0540.jpg,,,,,,,,,0.0,64.0,64.0,64.0,,,,,,,,,,,,,,,768.3934850860387,None,,,1,0.4711359959328547,770.861391125014,None,770.861391125014,None,,,769.7104375669733,None,,,,,1,2022_Apr_04_1501,Real-fake-judgement-flashing-group1,2021.1.2
218,Trial # 66,Group1-stimuli/group1-block2/fake-group2-b2/encoded_Group2_IMG_0166.jpg,0,encoded_Group2_IMG_0166.jpg,,,,,,,,,0.0,65.0,65.0,65.0,,,,,,,,,,,,,,,771.3622834499693,None,,,0,0.1848548429552465,773.8116115529556,None,773.8116115529556,None,,,772.6457759499317,None,,,,,1,2022_Apr_04_1501,Real-fake-judgement-flashing-group1,2021.1.2
219,Trial # 67,Group1-stimuli/group1-block2/fake-group2-b2/encoded_Group2_IMG_0412.jpg,0,encoded_Group2_IMG_0412.jpg,,,,,,,,,0.0,66.0,66.0,66.0,,,,,,,,,,,,,,,774.0284978749696,None,,,0,0.3328571079764515,776.4797283209627,None,776.4797283209627,None,,,775.3121806730051,None,,,,,1,2022_Apr_04_1501,Real-fake-judgement-flashing-group1,2021.1.2
220,Trial # 68,Group1-stimuli/group1-block2/real-group1-b2/Group1_IMG_0485.jpg,1,Group1_IMG_0485.jpg,,,,,,,,,0.0,67.0,67.0,67.0,,,,,,,,,,,,,,,776.830712437979,None,,,0,0.2276222651125863,779.2969045219943,None,779.2969045219943,None,,,778.1300620880211,None,,,,,1,2022_Apr_04_1501,Real-fake-judgement-flashing-group1,2021.1.2
221,Trial # 69,Group1-stimuli/group1-block2/fake-group2-b2/encoded_Group2_IMG_1495.jpg,0,encoded_Group2_IMG_1495.jpg,,,,,,,,,0.0,68.0,68.0,68.0,,,,,,,,,,,,,,,779.5472905680072,None,,,0,0.2775931881042197,781.9989423919469,None,781.9989423919469,None,,,780.8318002809538,None,,,,,1,2022_Apr_04_1501,Real-fake-judgement-flashing-group1,2021.1.2
222,Trial # 70,Group1-stimuli/group1-block2/real-group1-b2/Group1_IMG_0426.jpg,1,Group1_IMG_0426.jpg,,,,,,,,,0.0,69.0,69.0,69.0,,,,,,,,,,,,,,,782.2977517599938,None,,,1,0.1107638949761167,784.7817629970377,None,784.7817629970377,None,,,783.59804690897,None,,,,,1,2022_Apr_04_1501,Real-fake-judgement-flashing-group1,2021.1.2
223,Trial # 71,Group1-stimuli/group1-block2/real-group1-b2/Group1_IMG_0349.jpg,1,Group1_IMG_0349.jpg,,,,,,,,,0.0,70.0,70.0,70.0,,,,,,,,,,,,,,,784.915228785947,None,,,1,0.1326994029805064,787.3837608220056,None,787.3837608220056,None,,,786.2165155209368,None,,,,,1,2022_Apr_04_1501,Real-fake-judgement-flashing-group1,2021.1.2
224,Trial # 72,Group1-stimuli/group1-block2/real-group1-b2/Group1_IMG_0414.jpg,1,Group1_IMG_0414.jpg,,,,,,,,,0.0,71.0,71.0,71.0,,,,,,,,,,,,,,,787.5493814009242,None,,,1,0.6357532059773803,790.0167742299382,None,790.0167742299382,None,,,788.8496481609764,None,,,,,1,2022_Apr_04_1501,Real-fake-judgement-flashing-group1,2021.1.2
225,Trial # 73,Group1-stimuli/group1-block2/fake-group2-b2/encoded_Group2_IMG_9856.jpg,0,encoded_Group2_IMG_9856.jpg,,,,,,,,,0.0,72.0,72.0,72.0,,,,,,,,,,,,,,,790.6850645199884,None,,,0,0.3413592210272327,793.1511667569866,None,793.1511667569866,None,,,791.9851787439547,None,,,,,1,2022_Apr_04_1501,Real-fake-judgement-flashing-group1,2021.1.2
226,Trial # 74,Group1-stimuli/group1-block2/fake-group2-b2/encoded_Group2_IMG_5313.jpg,0,encoded_Group2_IMG_5313.jpg,,,,,,,,,0.0,73.0,73.0,73.0,,,,,,,,,,,,,,,793.5179746659705,None,,,0,0.1939560850150883,795.9865681339288,None,795.9865681339288,None,,,794.8344517819351,None,,,,,1,2022_Apr_04_1501,Real-fake-judgement-flashing-group1,2021.1.2
227,Trial # 75,Group1-stimuli/group1-block2/fake-group2-b2/encoded_Group2_IMG_0421.jpg,0,encoded_Group2_IMG_0421.jpg,,,,,,,,,0.0,74.0,74.0,74.0,,,,,,,,,,,,,,,796.2034416919341,None,,,0,0.1992341929581016,798.6693058549426,None,798.6693058549426,None,,,797.503255788004,None,,,,,1,2022_Apr_04_1501,Real-fake-judgement-flashing-group1,2021.1.2
228,Trial # 76,Group1-stimuli/group1-block2/fake-group2-b2/encoded_Group2_IMG_0446.jpg,0,encoded_Group2_IMG_0446.jpg,,,,,,,,,0.0,75.0,75.0,75.0,,,,,,,,,,,,,,,798.886473526014,None,,,0,1.8660080099944023,801.3545280359685,None,801.3545280359685,None,,,800.1862131309463,None,,,,,1,2022_Apr_04_1501,Real-fake-judgement-flashing-group1,2021.1.2
229,Trial # 77,Group1-stimuli/group1-block2/real-group1-b2/Group1_IMG_5999.jpg,1,Group1_IMG_5999.jpg,,,,,,,,,0.0,76.0,76.0,76.0,,,,,,,,,,,,,,,803.2376107600285,None,,,1,0.3150047250092029,805.7055375339696,None,805.7055375339696,None,,,804.5545214070007,None,,,,,1,2022_Apr_04_1501,Real-fake-judgement-flashing-group1,2021.1.2
230,Trial # 78,Group1-stimuli/group1-block2/real-group1-b2/Group1_IMG_0107.jpg,1,Group1_IMG_0107.jpg,,,,,,,,,0.0,77.0,77.0,77.0,,,,,,,,,,,,,,,806.0396248060279,None,,,1,0.4660387110197916,808.5224306749878,None,808.5224306749878,None,,,807.356608720962,None,,,,,1,2022_Apr_04_1501,Real-fake-judgement-flashing-group1,2021.1.2
231,Trial # 79,Group1-stimuli/group1-block2/fake-group2-b2/encoded_Group2_IMG_0322.jpg,0,encoded_Group2_IMG_0322.jpg,,,,,,,,,0.0,78.0,78.0,78.0,,,,,,,,,,,,,,,809.0060585279716,None,,,0,0.1954387159785255,811.457086841925,None,811.457086841925,None,,,810.2891502960119,None,,,,,1,2022_Apr_04_1501,Real-fake-judgement-flashing-group1,2021.1.2
232,Trial # 80,Group1-stimuli/group1-block2/fake-group2-b2/encoded_Group2_IMG_4255.jpg,0,encoded_Group2_IMG_4255.jpg,,,,,,,,,0.0,79.0,79.0,79.0,,,,,,,,,,,,,,,811.6748426889535,None,,,0,0.2876225220970809,814.1409044750035,None,814.1409044750035,None,,,812.9738169369521,None,,,,,1,2022_Apr_04_1501,Real-fake-judgement-flashing-group1,2021.1.2
233,Trial # 81,Group1-stimuli/group1-block2/fake-group2-b2/encoded_Group2_IMG_0219.jpg,0,encoded_Group2_IMG_0219.jpg,,,,,,,,,0.0,80.0,80.0,80.0,,,,,,,,,,,,,,,814.4573851559544,None,,,0,1.9100900229532272,816.9264359950321,None,816.9264359950321,None,,,815.7424747690093,None,,,,,1,2022_Apr_04_1501,Real-fake-judgement-flashing-group1,2021.1.2
234,Trial # 82,Group1-stimuli/group1-block2/real-group1-b2/Group1_IMG_0548.jpg,1,Group1_IMG_0548.jpg,,,,,,,,,0.0,81.0,81.0,81.0,,,,,,,,,,,,,,,818.859421905945,None,,,1,0.1809698450379073,821.3275672949385,None,821.3275672949385,None,,,820.1594113180181,None,,,,,1,2022_Apr_04_1501,Real-fake-judgement-flashing-group1,2021.1.2
235,Trial # 83,Group1-stimuli/group1-block2/real-group1-b2/Group1_IMG_0229.jpg,1,Group1_IMG_0229.jpg,,,,,,,,,0.0,82.0,82.0,82.0,,,,,,,,,,,,,,,821.5270124989329,None,,,1,0.6503812840674073,823.994073824957,None,823.994073824957,None,,,822.8268899490358,None,,,,,1,2022_Apr_04_1501,Real-fake-judgement-flashing-group1,2021.1.2
236,Trial # 84,Group1-stimuli/group1-block2/fake-group2-b2/encoded_Group2_IMG_0365.jpg,0,encoded_Group2_IMG_0365.jpg,,,,,,,,,0.0,83.0,83.0,83.0,,,,,,,,,,,,,,,824.6775262459414,None,,,1,0.594904844998382,827.1296329179313,None,827.1296329179313,None,,,825.962328279973,None,,,,,1,2022_Apr_04_1501,Real-fake-judgement-flashing-group1,2021.1.2
237,Trial # 85,Group1-stimuli/group1-block2/real-group1-b2/Group1_IMG_9822.jpg,1,Group1_IMG_9822.jpg,,,,,,,,,0.0,84.0,84.0,84.0,,,,,,,,,,,,,,,827.7455218869727,None,,,1,0.2559780129231512,830.2125495190267,None,830.2125495190267,None,,,829.0454119549831,None,,,,,1,2022_Apr_04_1501,Real-fake-judgement-flashing-group1,2021.1.2
238,Trial # 86,Group1-stimuli/group1-block2/fake-group2-b2/encoded_Group2_IMG_0195.jpg,0,encoded_Group2_IMG_0195.jpg,,,,,,,,,0.0,85.0,85.0,85.0,,,,,,,,,,,,,,,830.4952303059399,None,,,0,0.2492133129853755,832.9632154209539,None,832.9632154209539,None,,,831.797460568021,None,,,,,1,2022_Apr_04_1501,Real-fake-judgement-flashing-group1,2021.1.2
239,Trial # 87,Group1-stimuli/group1-block2/fake-group2-b2/encoded_Group2_IMG_0494.jpg,0,encoded_Group2_IMG_0494.jpg,,,,,,,,,0.0,86.0,86.0,86.0,,,,,,,,,,,,,,,833.2302095729392,None,,,0,0.2111699960660189,835.6813572020037,None,835.6813572020037,None,,,834.5138475369895,None,,,,,1,2022_Apr_04_1501,Real-fake-judgement-flashing-group1,2021.1.2
240,Trial # 88,Group1-stimuli/group1-block2/real-group1-b2/Group1_IMG_0509.jpg,1,Group1_IMG_0509.jpg,,,,,,,,,0.0,87.0,87.0,87.0,,,,,,,,,,,,,,,835.914770519943,None,,,1,0.2707366970134899,838.381792429951,None,838.381792429951,None,,,837.2157705880236,None,,,,,1,2022_Apr_04_1501,Real-fake-judgement-flashing-group1,2021.1.2
241,Trial # 89,Group1-stimuli/group1-block2/fake-group2-b2/encoded_Group2_IMG_8924.jpg,0,encoded_Group2_IMG_8924.jpg,,,,,,,,,0.0,88.0,88.0,88.0,,,,,,,,,,,,,,,838.6828403780237,None,,,0,0.2070202729664743,841.1495013319654,None,841.1495013319654,None,,,839.9821398389759,None,,,,,1,2022_Apr_04_1501,Real-fake-judgement-flashing-group1,2021.1.2
242,Trial # 90,Group1-stimuli/group1-block2/real-group1-b2/Group1_IMG_0360.jpg,1,Group1_IMG_0360.jpg,,,,,,,,,0.0,89.0,89.0,89.0,,,,,,,,,,,,,,,841.3840870469576,None,,,1,1.3218417270109055,843.8666855510091,None,843.8666855510091,None,,,842.6996910480084,None,,,,,1,2022_Apr_04_1501,Real-fake-judgement-flashing-group1,2021.1.2
243,Trial # 91,Group1-stimuli/group1-block2/fake-group2-b2/encoded_Group2_IMG_0523.jpg,0,encoded_Group2_IMG_0523.jpg,,,,,,,,,0.0,90.0,90.0,90.0,,,,,,,,,,,,,,,845.2175262980163,None,,,0,0.295739779016003,847.6847848049365,None,847.6847848049365,None,,,846.5187216519844,None,,,,,1,2022_Apr_04_1501,Real-fake-judgement-flashing-group1,2021.1.2
244,Trial # 92,Group1-stimuli/group1-block2/real-group1-b2/Group1_IMG_0518.jpg,1,Group1_IMG_0518.jpg,,,,,,,,,0.0,91.0,91.0,91.0,,,,,,,,,,,,,,,848.0014220109442,None,,,1,0.239649177994579,850.4688785020262,None,850.4688785020262,None,,,849.3016328340163,None,,,,,1,2022_Apr_04_1501,Real-fake-judgement-flashing-group1,2021.1.2
245,Trial # 93,Group1-stimuli/group1-block2/fake-group2-b2/encoded_Group2_IMG_0372.jpg,0,encoded_Group2_IMG_0372.jpg,,,,,,,,,0.0,92.0,92.0,92.0,,,,,,,,,,,,,,,850.7369935719762,None,,,0,0.1382800990249961,853.1862473649671,None,853.1862473649671,None,,,852.0202714570332,None,,,,,1,2022_Apr_04_1501,Real-fake-judgement-flashing-group1,2021.1.2
246,Trial # 94,Group1-stimuli/group1-block2/fake-group2-b2/encoded_Group2_IMG_9761.jpg,0,encoded_Group2_IMG_9761.jpg,,,,,,,,,0.0,93.0,93.0,93.0,,,,,,,,,,,,,,,853.3530516049359,None,,,0,0.1750536679755896,855.8215202779975,None,855.8215202779975,None,,,854.6533357279841,None,,,,,1,2022_Apr_04_1501,Real-fake-judgement-flashing-group1,2021.1.2
247,Trial # 95,Group1-stimuli/group1-block2/real-group1-b2/Group1_IMG_2690.jpg,1,Group1_IMG_2690.jpg,,,,,,,,,0.0,94.0,94.0,94.0,,,,,,,,,,,,,,,856.021012370009,None,,,0,0.1725286060245707,858.4879987969762,None,858.4879987969762,None,,,857.3220542359632,None,,,,,1,2022_Apr_04_1501,Real-fake-judgement-flashing-group1,2021.1.2
248,Trial # 96,Group1-stimuli/group1-block2/real-group1-b2/Group1_IMG_9855.jpg,1,Group1_IMG_9855.jpg,,,,,,,,,0.0,95.0,95.0,95.0,,,,,,,,,,,,,,,858.6891915180022,None,,,1,0.2152499869698658,861.173288114951,None,861.173288114951,None,,,860.0214499289868,None,,,,,1,2022_Apr_04_1501,Real-fake-judgement-flashing-group1,2021.1.2
249,Trial # 97,Group1-stimuli/group1-block2/fake-group2-b2/encoded_Group2_IMG_0470.jpg,0,encoded_Group2_IMG_0470.jpg,,,,,,,,,0.0,96.0,96.0,96.0,,,,,,,,,,,,,,,861.4067990719341,None,,,1,0.3074889209819957,863.8730352689745,None,863.8730352689745,None,,,862.7058802309912,None,,,,,1,2022_Apr_04_1501,Real-fake-judgement-flashing-group1,2021.1.2
250,Trial # 98,Group1-stimuli/group1-block2/fake-group2-b2/encoded_Group2_IMG_1191.jpg,0,encoded_Group2_IMG_1191.jpg,,,,,,,,,0.0,97.0,97.0,97.0,,,,,,,,,,,,,,,864.2066178559326,None,,,1,0.2015241669723764,866.6749729110161,None,866.6749729110161,None,,,865.5061491079396,None,,,,,1,2022_Apr_04_1501,Real-fake-judgement-flashing-group1,2021.1.2
251,Trial # 99,Group1-stimuli/group1-block2/real-group1-b2/Group1_IMG_9937.jpg,1,Group1_IMG_9937.jpg,,,,,,,,,0.0,98.0,98.0,98.0,,,,,,,,,,,,,,,866.9083793689497,None,,,1,0.229804786038585,869.3747329439502,None,869.3747329439502,None,,,868.2074507829966,None,,,,,1,2022_Apr_04_1501,Real-fake-judgement-flashing-group1,2021.1.2
252,Trial # 100,Group1-stimuli/group1-block2/fake-group2-b2/encoded_Group2_IMG_0106.jpg,0,encoded_Group2_IMG_0106.jpg,,,,,,,,,0.0,99.0,99.0,99.0,,,,,,,,,,,,,,,869.6247344739968,None,,,0,0.1848581780213862,872.0756024459843,None,872.0756024459843,None,,,870.9085710209329,None,,,,,1,2022_Apr_04_1501,Real-fake-judgement-flashing-group1,2021.1.2
253,Trial # 101,Group1-stimuli/group1-block2/real-group1-b2/Group1_IMG_2790.jpg,1,Group1_IMG_2790.jpg,,,,,,,,,0.0,100.0,100.0,100.0,,,,,,,,,,,,,,,872.2932717319345,None,,,1,0.2049819900421425,874.7595450859517,None,874.7595450859517,None,,,873.5925781920087,None,,,,,1,2022_Apr_04_1501,Real-fake-judgement-flashing-group1,2021.1.2
254,Trial # 102,Group1-stimuli/group1-block2/real-group1-b2/Group1_IMG_9792.jpg,1,Group1_IMG_9792.jpg,,,,,,,,,0.0,101.0,101.0,101.0,,,,,,,,,,,,,,,874.9927205269923,None,,,1,0.1920647239312529,877.4604613649426,None,877.4604613649426,None,,,876.2947218569461,None,,,,,1,2022_Apr_04_1501,Real-fake-judgement-flashing-group1,2021.1.2
255,Trial # 103,Group1-stimuli/group1-block2/real-group1-b2/Group1_IMG_1640.jpg,1,Group1_IMG_1640.jpg,,,,,,,,,0.0,102.0,102.0,102.0,,,,,,,,,,,,,,,877.6775774789276,None,,,1,0.2359168169787153,880.1446019730065,None,880.1446019730065,None,,,878.9775373189477,None,,,,,1,2022_Apr_04_1501,Real-fake-judgement-flashing-group1,2021.1.2
256,Trial # 104,Group1-stimuli/group1-block2/real-group1-b2/Group1_IMG_0033.jpg,1,Group1_IMG_0033.jpg,,,,,,,,,0.0,103.0,103.0,103.0,,,,,,,,,,,,,,,880.4114401419647,None,,,1,0.2519231149926781,882.8966045320267,None,882.8966045320267,None,,,881.7295819940045,None,,,,,1,2022_Apr_04_1501,Real-fake-judgement-flashing-group1,2021.1.2
257,Trial # 105,Group1-stimuli/group1-block2/real-group1-b2/Group1_IMG_0079.jpg,1,Group1_IMG_0079.jpg,,,,,,,,,0.0,104.0,104.0,104.0,,,,,,,,,,,,,,,883.1789833009243,None,,,1,0.3578043150482699,885.6467196840094,None,885.6467196840094,None,,,884.4797291680006,None,,,,,1,2022_Apr_04_1501,Real-fake-judgement-flashing-group1,2021.1.2
258,Trial # 106,Group1-stimuli/group1-block2/fake-group2-b2/encoded_Group2_IMG_9909.jpg,0,encoded_Group2_IMG_9909.jpg,,,,,,,,,0.0,105.0,105.0,105.0,,,,,,,,,,,,,,,886.0311835899483,None,,,0,0.3791983649134636,888.4973710660124,None,888.4973710660124,None,,,887.331305476022,None,,,,,1,2022_Apr_04_1501,Real-fake-judgement-flashing-group1,2021.1.2
259,Trial # 107,Group1-stimuli/group1-block2/fake-group2-b2/encoded_Group2_IMG_0398.jpg,0,encoded_Group2_IMG_0398.jpg,,,,,,,,,0.0,106.0,106.0,106.0,,,,,,,,,,,,,,,888.8981030340074,None,,,0,0.174580035964027,891.3659573310288,None,891.3659573310288,None,,,890.1976714460179,None,,,,,1,2022_Apr_04_1501,Real-fake-judgement-flashing-group1,2021.1.2
260,Trial # 108,Group1-stimuli/group1-block2/real-group1-b2/Group1_IMG_4268.jpg,1,Group1_IMG_4268.jpg,,,,,,,,,0.0,107.0,107.0,107.0,,,,,,,,,,,,,,,891.5651996670058,None,,,1,0.1321256129303947,894.032396556926,None,894.032396556926,None,,,892.8652000810253,None,,,,,1,2022_Apr_04_1501,Real-fake-judgement-flashing-group1,2021.1.2
261,Trial # 109,Group1-stimuli/group1-block2/fake-group2-b2/encoded_Group2_IMG_9321.jpg,0,encoded_Group2_IMG_9321.jpg,,,,,,,,,0.0,108.0,108.0,108.0,,,,,,,,,,,,,,,894.1832663859241,None,,,1,0.1695177390938624,896.651011273032,None,896.651011273032,None,,,895.465503704967,None,,,,,1,2022_Apr_04_1501,Real-fake-judgement-flashing-group1,2021.1.2
262,Trial # 110,Group1-stimuli/group1-block2/fake-group2-b2/encoded_Group2_IMG_9964.jpg,0,encoded_Group2_IMG_9964.jpg,,,,,,,,,0.0,109.0,109.0,109.0,,,,,,,,,,,,,,,896.8509375009453,None,,,1,0.1761524219764396,899.3003727339674,None,899.3003727339674,None,,,898.1334199339617,None,,,,,1,2022_Apr_04_1501,Real-fake-judgement-flashing-group1,2021.1.2
263,Trial # 111,Group1-stimuli/group1-block2/real-group1-b2/Group1_IMG_0329.jpg,1,Group1_IMG_0329.jpg,,,,,,,,,0.0,110.0,110.0,110.0,,,,,,,,,,,,,,,899.5005935479421,None,,,1,0.1158791549969464,901.9686480029486,None,901.9686480029486,None,,,900.8022088869475,None,,,,,1,2022_Apr_04_1501,Real-fake-judgement-flashing-group1,2021.1.2
264,Trial # 112,Group1-stimuli/group1-block2/fake-group2-b2/encoded_Group2_IMG_0534.jpg,0,encoded_Group2_IMG_0534.jpg,,,,,,,,,0.0,111.0,111.0,111.0,,,,,,,,,,,,,,,902.102783496026,None,,,1,0.7469370430335402,904.5855816840194,None,904.5855816840194,None,,,903.4184846319258,None,,,,,1,2022_Apr_04_1501,Real-fake-judgement-flashing-group1,2021.1.2
265,Trial # 113,Group1-stimuli/group1-block2/fake-group2-b2/encoded_Group2_IMG_0054.jpg,0,encoded_Group2_IMG_0054.jpg,,,,,,,,,0.0,112.0,112.0,112.0,,,,,,,,,,,,,,,905.3530223609414,None,,,0,0.1109846049221232,907.837482345989,None,907.837482345989,None,,,906.65395880898,None,,,,,1,2022_Apr_04_1501,Real-fake-judgement-flashing-group1,2021.1.2
266,Trial # 114,Group1-stimuli/group1-block2/real-group1-b2/Group1_IMG_9979.jpg,1,Group1_IMG_9979.jpg,,,,,,,,,0.0,113.0,113.0,113.0,,,,,,,,,,,,,,,907.9697631780292,None,,,1,0.1585254789097234,910.4540003109724,None,910.4540003109724,None,,,909.2866974479984,None,,,,,1,2022_Apr_04_1501,Real-fake-judgement-flashing-group1,2021.1.2
267,Trial # 115,Group1-stimuli/group1-block2/real-group1-b2/Group1_IMG_0170.jpg,1,Group1_IMG_0170.jpg,,,,,,,,,0.0,114.0,114.0,114.0,,,,,,,,,,,,,,,910.6386454659514,None,,,1,0.2596975530032068,913.1047620460158,None,913.1047620460158,None,,,911.9377264369978,None,,,,,1,2022_Apr_04_1501,Real-fake-judgement-flashing-group1,2021.1.2
268,Trial # 116,Group1-stimuli/group1-block2/fake-group2-b2/encoded_Group2_IMG_0007.jpg,0,encoded_Group2_IMG_0007.jpg,,,,,,,,,0.0,115.0,115.0,115.0,,,,,,,,,,,,,,,913.3884005889996,None,,,0,0.1468116419855505,915.8736734089908,None,915.8736734089908,None,,,914.6885541529628,None,,,,,1,2022_Apr_04_1501,Real-fake-judgement-flashing-group1,2021.1.2
269,Trial # 117,Group1-stimuli/group1-block2/real-group1-b2/Group1_IMG_0192.jpg,1,Group1_IMG_0192.jpg,,,,,,,,,0.0,116.0,116.0,116.0,,,,,,,,,,,,,,,916.0406415229664,None,,,1,0.281297778012231,918.5231718899448,None,918.5231718899448,None,,,917.3406606189674,None,,,,,1,2022_Apr_04_1501,Real-fake-judgement-flashing-group1,2021.1.2
270,Trial # 118,Group1-stimuli/group1-block2/real-group1-b2/Group1_IMG_9786.jpg,1,Group1_IMG_9786.jpg,,,,,,,,,0.0,117.0,117.0,117.0,,,,,,,,,,,,,,,918.8234224820044,None,,,1,0.4415065190987661,921.291043467936,None,921.291043467936,None,,,920.1402798480121,None,,,,,1,2022_Apr_04_1501,Real-fake-judgement-flashing-group1,2021.1.2
271,Trial # 119,Group1-stimuli/group1-block2/real-group1-b2/Group1_IMG_0187.jpg,1,Group1_IMG_0187.jpg,,,,,,,,,0.0,118.0,118.0,118.0,,,,,,,,,,,,,,,921.7578876150072,None,,,1,0.2196083690505474,924.224918678985,None,924.224918678985,None,,,923.057850447949,None,,,,,1,2022_Apr_04_1501,Real-fake-judgement-flashing-group1,2021.1.2
272,Trial # 120,Group1-stimuli/group1-block2/fake-group2-b2/encoded_Group2_IMG_0249.jpg,0,encoded_Group2_IMG_0249.jpg,,,,,,,,,0.0,119.0,119.0,119.0,,,,,,,,,,,,,,,924.4750283550238,None,,,0,0.1329735449980944,926.9435660849558,None,926.9435660849558,None,,,925.7598390419735,None,,,,,1,2022_Apr_04_1501,Real-fake-judgement-flashing-group1,2021.1.2
273,Trial # 121,Group1-stimuli/group1-block2/fake-group2-b2/encoded_Group2_IMG_0074.jpg,0,encoded_Group2_IMG_0074.jpg,,,,,,,,,0.0,120.0,120.0,120.0,,,,,,,,,,,,,,,927.0928701959784,None,,,0,0.2845621319720521,929.5599100060062,None,929.5599100060062,None,,,928.3927940599388,None,,,,,1,2022_Apr_04_1501,Real-fake-judgement-flashing-group1,2021.1.2
274,Trial # 122,Group1-stimuli/group1-block2/real-group1-b2/Group1_IMG_0243.jpg,1,Group1_IMG_0243.jpg,,,,,,,,,0.0,121.0,121.0,121.0,,,,,,,,,,,,,,,929.877187557984,None,,,0,0.1470342410029843,932.345395714976,None,932.345395714976,None,,,931.1783621410141,None,,,,,1,2022_Apr_04_1501,Real-fake-judgement-flashing-group1,2021.1.2
275,Trial # 123,Group1-stimuli/group1-block2/real-group1-b2/Group1_IMG_0130.jpg,1,Group1_IMG_0130.jpg,,,,,,,,,0.0,122.0,122.0,122.0,,,,,,,,,,,,,,,932.5112390680006,None,,,1,0.1863606489496305,934.978221950936,None,934.978221950936,None,,,933.8111748049268,None,,,,,1,2022_Apr_04_1501,Real-fake-judgement-flashing-group1,2021.1.2
276,Trial # 124,Group1-stimuli/group1-block2/real-group1-b2/Group1_IMG_0298.jpg,1,Group1_IMG_0298.jpg,,,,,,,,,0.0,123.0,123.0,123.0,,,,,,,,,,,,,,,935.1951636059677,None,,,1,0.1978963749716058,937.6625225499738,None,937.6625225499738,None,,,936.4965201379964,None,,,,,1,2022_Apr_04_1501,Real-fake-judgement-flashing-group1,2021.1.2
277,Trial # 125,Group1-stimuli/group1-block2/real-group1-b2/Group1_IMG_5871.jpg,1,Group1_IMG_5871.jpg,,,,,,,,,0.0,124.0,124.0,124.0,,,,,,,,,,,,,,,937.8798694600118,None,,,1,0.2098369729937985,940.3466877749888,None,940.3466877749888,None,,,939.1795092439279,None,,,,,1,2022_Apr_04_1501,Real-fake-judgement-flashing-group1,2021.1.2
278,Trial # 126,Group1-stimuli/group1-block2/fake-group2-b2/encoded_Group2_IMG_0479.jpg,0,encoded_Group2_IMG_0479.jpg,,,,,,,,,0.0,125.0,125.0,125.0,,,,,,,,,,,,,,,940.5801341949264,None,,,0,0.6530234139645472,943.047538000974,None,943.047538000974,None,,,941.881517761969,None,,,,,1,2022_Apr_04_1501,Real-fake-judgement-flashing-group1,2021.1.2
279,Trial # 127,Group1-stimuli/group1-block2/fake-group2-b2/encoded_Group2_IMG_4971.jpg,0,encoded_Group2_IMG_4971.jpg,,,,,,,,,0.0,126.0,126.0,126.0,,,,,,,,,,,,,,,943.7311370089884,None,,,0,0.3009322999278083,946.1995272790082,None,946.1995272790082,None,,,945.0317614020314,None,,,,,1,2022_Apr_04_1501,Real-fake-judgement-flashing-group1,2021.1.2
280,Trial # 128,Group1-stimuli/group1-block2/real-group1-b2/Group1_IMG_0173.jpg,1,Group1_IMG_0173.jpg,,,,,,,,,0.0,127.0,127.0,127.0,,,,,,,,,,,,,,,946.5321878689574,None,,,1,0.1325058540096506,949.0160169579322,None,949.0160169579322,None,,,947.8488036589697,None,,,,,1,2022_Apr_04_1501,Real-fake-judgement-flashing-group1,2021.1.2
281,Trial # 129,Group1-stimuli/group1-block2/real-group1-b2/Group1_IMG_0213.jpg,1,Group1_IMG_0213.jpg,,,,,,,,,0.0,128.0,128.0,128.0,,,,,,,,,,,,,,,949.1661253370112,None,,,1,0.1778910069260746,951.6346451109276,None,951.6346451109276,None,,,950.4657822309528,None,,,,,1,2022_Apr_04_1501,Real-fake-judgement-flashing-group1,2021.1.2
282,Trial # 130,Group1-stimuli/group1-block2/fake-group2-b2/encoded_Group2_IMG_0260.jpg,0,encoded_Group2_IMG_0260.jpg,,,,,,,,,0.0,129.0,129.0,129.0,,,,,,,,,,,,,,,951.8346621639794,None,,,1,0.3430370530113578,954.3174994749716,None,954.3174994749716,None,,,953.1504355249926,None,,,,,1,2022_Apr_04_1501,Real-fake-judgement-flashing-group1,2021.1.2
283,Trial # 131,Group1-stimuli/group1-block2/fake-group2-b2/encoded_Group2_IMG_7291.jpg,0,encoded_Group2_IMG_7291.jpg,,,,,,,,,0.0,130.0,130.0,130.0,,,,,,,,,,,,,,,954.6838936469284,None,,,0,0.1329369849991053,957.1355355050182,None,957.1355355050182,None,,,955.9692112349439,None,,,,,1,2022_Apr_04_1501,Real-fake-judgement-flashing-group1,2021.1.2
284,Trial # 132,Group1-stimuli/group1-block2/fake-group2-b2/encoded_Group2_IMG_0176.jpg,0,encoded_Group2_IMG_0176.jpg,,,,,,,,,0.0,131.0,131.0,131.0,,,,,,,,,,,,,,,957.2864900039276,None,,,1,0.1873499860521406,959.7691874259616,None,959.7691874259616,None,,,958.6187890809961,None,,,,,1,2022_Apr_04_1501,Real-fake-judgement-flashing-group1,2021.1.2
285,Trial # 133,Group1-stimuli/group1-block2/real-group1-b2/Group1_IMG_9699.jpg,1,Group1_IMG_9699.jpg,,,,,,,,,0.0,132.0,132.0,132.0,,,,,,,,,,,,,,,959.9861255889992,None,,,1,2.1339063129853457,962.4545557670062,None,962.4545557670062,None,,,961.3041654579574,None,,,,,1,2022_Apr_04_1501,Real-fake-judgement-flashing-group1,2021.1.2
286,Trial # 134,Group1-stimuli/group1-block2/real-group1-b2/Group1_IMG_0381.jpg,1,Group1_IMG_0381.jpg,,,,,,,,,0.0,133.0,133.0,133.0,,,,,,,,,,,,,,,964.6208261009306,None,,,1,1.6751068539451808,967.0894181089244,None,967.0894181089244,None,,,965.9221154269762,None,,,,,1,2022_Apr_04_1501,Real-fake-judgement-flashing-group1,2021.1.2
287,Trial # 135,Group1-stimuli/group1-block2/real-group1-b2/Group1_IMG_0309.jpg,1,Group1_IMG_0309.jpg,,,,,,,,,0.0,134.0,134.0,134.0,,,,,,,,,,,,,,,968.7889214439784,None,,,1,0.3082326790317893,971.2562927149702,None,971.2562927149702,None,,,970.0885856270324,None,,,,,1,2022_Apr_04_1501,Real-fake-judgement-flashing-group1,2021.1.2
288,Trial # 136,Group1-stimuli/group1-block2/fake-group2-b2/encoded_Group2_IMG_0041.jpg,0,encoded_Group2_IMG_0041.jpg,,,,,,,,,0.0,135.0,135.0,135.0,,,,,,,,,,,,,,,971.5899712679676,None,,,0,0.2987944720080122,974.0737293339334,None,974.0737293339334,None,,,972.9565737530356,None,,,,,1,2022_Apr_04_1501,Real-fake-judgement-flashing-group1,2021.1.2
289,Trial # 137,Group1-stimuli/group1-block2/real-group1-b2/Group1_IMG_0303.jpg,1,Group1_IMG_0303.jpg,,,,,,,,,0.0,136.0,136.0,136.0,,,,,,,,,,,,,,,974.3907680059784,None,,,1,0.0421213870868086,976.858377623954,None,976.858377623954,None,,,975.6919467099942,None,,,,,1,2022_Apr_04_1501,Real-fake-judgement-flashing-group1,2021.1.2
290,Trial # 138,Group1-stimuli/group1-block2/fake-group2-b2/encoded_Group2_IMG_0419.jpg,0,encoded_Group2_IMG_0419.jpg,,,,,,,,,0.0,137.0,137.0,137.0,,,,,,,,,,,,,,,976.9249651340068,None,,,0,0.1158610510174185,979.4086768039268,None,979.4086768039268,None,,,978.2415330699878,None,,,,,1,2022_Apr_04_1501,Real-fake-judgement-flashing-group1,2021.1.2
291,Trial # 139,Group1-stimuli/group1-block2/real-group1-b2/Group1_IMG_0384.jpg,1,Group1_IMG_0384.jpg,,,,,,,,,0.0,138.0,138.0,138.0,,,,,,,,,,,,,,,979.5430303539616,None,,,1,0.2589187879348174,982.0096066809492,None,982.0096066809492,None,,,980.8432723629521,None,,,,,1,2022_Apr_04_1501,Real-fake-judgement-flashing-group1,2021.1.2
292,Trial # 140,Group1-stimuli/group1-block2/real-group1-b2/Group1_IMG_0147.jpg,1,Group1_IMG_0147.jpg,,,,,,,,,0.0,139.0,139.0,139.0,,,,,,,,,,,,,,,982.2941329139284,None,,,1,0.2921339329332113,984.7603939180262,None,984.7603939180262,None,,,983.5931510030059,None,,,,,1,2022_Apr_04_1501,Real-fake-judgement-flashing-group1,2021.1.2
293,Trial # 141,Group1-stimuli/group1-block2/real-group1-b2/Group1_IMG_9725.jpg,1,Group1_IMG_9725.jpg,,,,,,,,,0.0,140.0,140.0,140.0,,,,,,,,,,,,,,,985.0773353599944,None,,,1,0.3148116139927879,987.5457241879776,None,987.5457241879776,None,,,986.378406379954,None,,,,,1,2022_Apr_04_1501,Real-fake-judgement-flashing-group1,2021.1.2
294,Trial # 142,Group1-stimuli/group1-block2/real-group1-b2/Group1_IMG_0341.jpg,1,Group1_IMG_0341.jpg,,,,,,,,,0.0,141.0,141.0,141.0,,,,,,,,,,,,,,,987.8780702590012,None,,,1,0.0990525980014354,990.3454686379991,None,990.3454686379991,None,,,989.1785487489542,None,,,,,1,2022_Apr_04_1501,Real-fake-judgement-flashing-group1,2021.1.2
