,Trial_num,image_path,ground_truth,image_name,demos.thisRepN,demos.thisTrialN,demos.thisN,demos.thisIndex,block1.thisRepN,block1.thisTrialN,block1.thisN,block1.thisIndex,block2.thisRepN,block2.thisTrialN,block2.thisN,block2.thisIndex,block1_rep2.thisRepN,block1_rep2.thisTrialN,block1_rep2.thisN,block1_rep2.thisIndex,block2_rep.thisRepN,block2_rep.thisTrialN,block2_rep.thisN,block2_rep.thisIndex,text_3.started,text_3.stopped,text_4.started,text_4.stopped,text.started,text.stopped,trail_num.started,trail_num.stopped,image_6.started,image_6.stopped,Judgement.keys,Judgement.rt,Judgement.started,Judgement.stopped,text_19.started,text_19.stopped,text_12.started,text_12.stopped,image.started,image.stopped,text_2.started,text_2.stopped,text_13.started,text_13.stopped,session,date,expName,psychopyVersion
0,Demo 1,demo/Demo_IMG_0974.jpg,demo,Demo_IMG_0974.jpg,0.0,0.0,0.0,0.0,,,,,,,,,,,,,,,,,19.457490772998423,None,86.36127449199557,None,96.16433735698229,None,102.60077604698016,None,103.9834793289774,None,1,2.8015740129631013,105.06686895497842,None,105.06686895497842,None,,,,,,,,,1,2022_Mar_29_1153,Real-fake-judgement-flashing-group1,2021.1.2
1,Demo 2,demo/Demo_IMG_1024.jpg,demo,Demo_IMG_1024.jpg,0.0,1.0,1.0,1.0,,,,,,,,,,,,,,,,,,,,,,,107.88580190000356,None,109.28498128399951,None,1,54.12383131502429,110.36864468298154,None,110.36864468298154,None,,,,,,,,,1,2022_Mar_29_1153,Real-fake-judgement-flashing-group1,2021.1.2
2,Demo 3,demo/Demo_seed_80003.png,demo,Demo_seed_80003.png,0.0,2.0,2.0,2.0,,,,,,,,,,,,,,,,,,,,,,,164.5195707019884,None,165.9021908559953,None,0,2.449029660958331,167.00341659999685,None,167.00341659999685,None,,,,,,,,,1,2022_Mar_29_1153,Real-fake-judgement-flashing-group1,2021.1.2
3,Trial # 1,Group1-stimuli/group1-block1/real-group1-b1/Group1_IMG_0022.jpg,1,Group1_IMG_0022.jpg,,,,,0.0,0.0,0.0,0.0,,,,,,,,,,,,,,,,,,,186.65926568000577,None,,,0,0.6618775140377693,189.12656923895705,None,189.12656923895705,None,169.9537773469929,None,187.97696796996752,None,,,,,1,2022_Mar_29_1153,Real-fake-judgement-flashing-group1,2021.1.2
4,Trial # 2,Group1-stimuli/group1-block1/fake-group2-b1/encoded_Group2_IMG_0386.jpg,0,encoded_Group2_IMG_0386.jpg,,,,,0.0,1.0,1.0,1.0,,,,,,,,,,,,,,,,,,,189.8109455949744,None,,,1,0.6135361139895394,192.27885515696835,None,192.27885515696835,None,,,191.12697555701016,None,,,,,1,2022_Mar_29_1153,Real-fake-judgement-flashing-group1,2021.1.2
5,Trial # 3,Group1-stimuli/group1-block1/real-group1-b1/Group1_IMG_9704.jpg,1,Group1_IMG_9704.jpg,,,,,0.0,2.0,2.0,2.0,,,,,,,,,,,,,,,,,,,192.911491746956,None,,,0,0.2570838729734532,195.3953624739661,None,195.3953624739661,None,,,194.2279106740025,None,,,,,1,2022_Mar_29_1153,Real-fake-judgement-flashing-group1,2021.1.2
6,Trial # 4,Group1-stimuli/group1-block1/real-group1-b1/Group1_IMG_0406.jpg,1,Group1_IMG_0406.jpg,,,,,0.0,3.0,3.0,3.0,,,,,,,,,,,,,,,,,,,195.67843652697047,None,,,1,0.6332925020251423,198.1470916639664,None,198.1470916639664,None,,,197.11340777401347,None,,,,,1,2022_Mar_29_1153,Real-fake-judgement-flashing-group1,2021.1.2
7,Trial # 5,Group1-stimuli/group1-block1/fake-group2-b1/encoded_Group2_IMG_0364.jpg,0,encoded_Group2_IMG_0364.jpg,,,,,0.0,4.0,4.0,4.0,,,,,,,,,,,,,,,,,,,198.812889675959,None,,,0,0.4602496040170081,201.2801911549759,None,201.2801911549759,None,,,200.11315224098507,None,,,,,1,2022_Mar_29_1153,Real-fake-judgement-flashing-group1,2021.1.2
8,Trial # 6,Group1-stimuli/group1-block1/fake-group2-b1/encoded_Group2_IMG_0407.jpg,0,encoded_Group2_IMG_0407.jpg,,,,,0.0,5.0,5.0,5.0,,,,,,,,,,,,,,,,,,,201.7640372599708,None,,,1,0.5965224059764296,204.24792901496403,None,204.24792901496403,None,,,203.06529016798595,None,,,,,1,2022_Mar_29_1153,Real-fake-judgement-flashing-group1,2021.1.2
9,Trial # 7,Group1-stimuli/group1-block1/real-group1-b1/Group1_IMG_0428.jpg,1,Group1_IMG_0428.jpg,,,,,0.0,6.0,6.0,6.0,,,,,,,,,,,,,,,,,,,204.86497350700665,None,,,0,0.7911326489993371,207.333355484996,None,207.333355484996,None,,,206.1815910369624,None,,,,,1,2022_Mar_29_1153,Real-fake-judgement-flashing-group1,2021.1.2
10,Trial # 8,Group1-stimuli/group1-block1/fake-group2-b1/encoded_Group2_IMG_0474.jpg,0,encoded_Group2_IMG_0474.jpg,,,,,0.0,7.0,7.0,7.0,,,,,,,,,,,,,,,,,,,208.1497360150097,None,,,0,0.3390203989692963,210.64942476100987,None,210.64942476100987,None,,,209.466079787002,None,,,,,1,2022_Mar_29_1153,Real-fake-judgement-flashing-group1,2021.1.2
11,Trial # 9,Group1-stimuli/group1-block1/fake-group2-b1/encoded_Group2_IMG_1506.jpg,0,encoded_Group2_IMG_1506.jpg,,,,,0.0,8.0,8.0,8.0,,,,,,,,,,,,,,,,,,,211.0162691309816,None,,,0,0.3668227050220594,213.5014883999829,None,213.5014883999829,None,,,212.3342168839881,None,,,,,1,2022_Mar_29_1153,Real-fake-judgement-flashing-group1,2021.1.2
12,Trial # 10,Group1-stimuli/group1-block1/real-group1-b1/Group1_IMG_9789.jpg,1,Group1_IMG_9789.jpg,,,,,0.0,9.0,9.0,9.0,,,,,,,,,,,,,,,,,,,213.88419355801307,None,,,1,0.2922328449785709,216.3681065299897,None,216.3681065299897,None,,,215.20091422600672,None,,,,,1,2022_Mar_29_1153,Real-fake-judgement-flashing-group1,2021.1.2
13,Trial # 11,Group1-stimuli/group1-block1/real-group1-b1/Group1_IMG_9778.jpg,1,Group1_IMG_9778.jpg,,,,,0.0,10.0,10.0,10.0,,,,,,,,,,,,,,,,,,,216.6856326519628,None,,,1,0.3393040180089883,219.16914444300343,None,219.16914444300343,None,,,218.0033095749677,None,,,,,1,2022_Mar_29_1153,Real-fake-judgement-flashing-group1,2021.1.2
14,Trial # 12,Group1-stimuli/group1-block1/real-group1-b1/Group1_IMG_9813.jpg,1,Group1_IMG_9813.jpg,,,,,0.0,11.0,11.0,11.0,,,,,,,,,,,,,,,,,,,219.5361271839938,None,,,0,1.3918351480388085,222.00465453095967,None,222.00465453095967,None,,,220.8361947299564,None,,,,,1,2022_Mar_29_1153,Real-fake-judgement-flashing-group1,2021.1.2
15,Trial # 13,Group1-stimuli/group1-block1/real-group1-b1/Group1_IMG_0516.jpg,1,Group1_IMG_0516.jpg,,,,,0.0,12.0,12.0,12.0,,,,,,,,,,,,,,,,,,,223.4216247269651,None,,,0,0.251815929019358,225.9045950580039,None,225.9045950580039,None,,,224.7541040600045,None,,,,,1,2022_Mar_29_1153,Real-fake-judgement-flashing-group1,2021.1.2
16,Trial # 14,Group1-stimuli/group1-block1/fake-group2-b1/encoded_Group2_IMG_0038.jpg,0,encoded_Group2_IMG_0038.jpg,,,,,0.0,13.0,13.0,13.0,,,,,,,,,,,,,,,,,,,226.1875375129748,None,,,1,0.2683571149827912,228.67208470701007,None,228.67208470701007,None,,,227.5061936369748,None,,,,,1,2022_Mar_29_1153,Real-fake-judgement-flashing-group1,2021.1.2
17,Trial # 15,Group1-stimuli/group1-block1/real-group1-b1/Group1_IMG_5984.jpg,1,Group1_IMG_5984.jpg,,,,,0.0,14.0,14.0,14.0,,,,,,,,,,,,,,,,,,,228.9719673419604,None,,,1,0.8609250860172324,231.43951512000052,None,231.43951512000052,None,,,230.2893611319596,None,,,,,1,2022_Mar_29_1153,Real-fake-judgement-flashing-group1,2021.1.2
18,Trial # 16,Group1-stimuli/group1-block1/real-group1-b1/Group1_IMG_0383.jpg,1,Group1_IMG_0383.jpg,,,,,0.0,15.0,15.0,15.0,,,,,,,,,,,,,,,,,,,232.323794964992,None,,,1,0.3017746199620887,234.7906786680105,None,234.7906786680105,None,,,233.6234706430114,None,,,,,1,2022_Mar_29_1153,Real-fake-judgement-flashing-group1,2021.1.2
19,Trial # 17,Group1-stimuli/group1-block1/fake-group2-b1/encoded_Group2_IMG_0456.jpg,0,encoded_Group2_IMG_0456.jpg,,,,,0.0,16.0,16.0,16.0,,,,,,,,,,,,,,,,,,,235.12371912697563,None,,,0,0.2835729949874803,237.59283825499008,None,237.59283825499008,None,,,236.4410790689872,None,,,,,1,2022_Mar_29_1153,Real-fake-judgement-flashing-group1,2021.1.2
20,Trial # 18,Group1-stimuli/group1-block1/fake-group2-b1/encoded_Group2_IMG_8390.jpg,0,encoded_Group2_IMG_8390.jpg,,,,,0.0,17.0,17.0,17.0,,,,,,,,,,,,,,,,,,,237.90957698598504,None,,,0,1.9560494649922475,240.3923923639813,None,240.3923923639813,None,,,239.2419146960019,None,,,,,1,2022_Mar_29_1153,Real-fake-judgement-flashing-group1,2021.1.2
21,Trial # 19,Group1-stimuli/group1-block1/real-group1-b1/Group1_IMG_0011.jpg,1,Group1_IMG_0011.jpg,,,,,0.0,18.0,18.0,18.0,,,,,,,,,,,,,,,,,,,242.37683838396333,None,,,0,0.2158944889670238,244.860580278968,None,244.860580278968,None,,,243.6931977419881,None,,,,,1,2022_Mar_29_1153,Real-fake-judgement-flashing-group1,2021.1.2
22,Trial # 20,Group1-stimuli/group1-block1/fake-group2-b1/encoded_Group2_IMG_0328.jpg,0,encoded_Group2_IMG_0328.jpg,,,,,0.0,19.0,19.0,19.0,,,,,,,,,,,,,,,,,,,245.0940220389748,None,,,0,1.5386870779911987,247.561761977966,None,247.561761977966,None,,,246.410736610007,None,,,,,1,2022_Mar_29_1153,Real-fake-judgement-flashing-group1,2021.1.2
23,Trial # 21,Group1-stimuli/group1-block1/fake-group2-b1/encoded_Group2_IMG_0163.jpg,0,encoded_Group2_IMG_0163.jpg,,,,,0.0,20.0,20.0,20.0,,,,,,,,,,,,,,,,,,,249.1283780930098,None,,,0,1.055467910016887,251.61298863199767,None,251.61298863199767,None,,,250.4451644949732,None,,,,,1,2022_Mar_29_1153,Real-fake-judgement-flashing-group1,2021.1.2
24,Trial # 22,Group1-stimuli/group1-block1/real-group1-b1/Group1_IMG_9862.jpg,1,Group1_IMG_9862.jpg,,,,,0.0,21.0,21.0,21.0,,,,,,,,,,,,,,,,,,,252.69775576499524,None,,,0,0.7441574549884535,255.18029463099083,None,255.18029463099083,None,,,254.0132401169976,None,,,,,1,2022_Mar_29_1153,Real-fake-judgement-flashing-group1,2021.1.2
25,Trial # 23,Group1-stimuli/group1-block1/fake-group2-b1/encoded_Group2_IMG_0296.jpg,0,encoded_Group2_IMG_0296.jpg,,,,,0.0,22.0,22.0,22.0,,,,,,,,,,,,,,,,,,,255.94681907998165,None,,,1,0.2685924930265173,258.4158578289789,None,258.4158578289789,None,,,257.265316465986,None,,,,,1,2022_Mar_29_1153,Real-fake-judgement-flashing-group1,2021.1.2
26,Trial # 24,Group1-stimuli/group1-block1/fake-group2-b1/encoded_Group2_IMG_0503.jpg,0,encoded_Group2_IMG_0503.jpg,,,,,0.0,23.0,23.0,23.0,,,,,,,,,,,,,,,,,,,258.7161061759689,None,,,1,0.8377299549756572,261.19871246500406,None,261.19871246500406,None,,,260.03157941199606,None,,,,,1,2022_Mar_29_1153,Real-fake-judgement-flashing-group1,2021.1.2
27,Trial # 25,Group1-stimuli/group1-block1/fake-group2-b1/encoded_Group2_IMG_9804.jpg,0,encoded_Group2_IMG_9804.jpg,,,,,0.0,24.0,24.0,24.0,,,,,,,,,,,,,,,,,,,262.06720129196765,None,,,0,0.2059860720182769,264.5504518639645,None,264.5504518639645,None,,,263.38309965800727,None,,,,,1,2022_Mar_29_1153,Real-fake-judgement-flashing-group1,2021.1.2
28,Trial # 26,Group1-stimuli/group1-block1/real-group1-b1/Group1_IMG_0391.jpg,1,Group1_IMG_0391.jpg,,,,,0.0,25.0,25.0,25.0,,,,,,,,,,,,,,,,,,,264.78330442495644,None,,,1,0.2813350660144351,267.2511162359733,None,267.2511162359733,None,,,266.08332551899366,None,,,,,1,2022_Mar_29_1153,Real-fake-judgement-flashing-group1,2021.1.2
29,Trial # 27,Group1-stimuli/group1-block1/fake-group2-b1/encoded_Group2_IMG_3584.jpg,0,encoded_Group2_IMG_3584.jpg,,,,,0.0,26.0,26.0,26.0,,,,,,,,,,,,,,,,,,,267.5519789200044,None,,,1,1.322230820020195,270.01822316501057,None,270.01822316501057,None,,,268.8510780580109,None,,,,,1,2022_Mar_29_1153,Real-fake-judgement-flashing-group1,2021.1.2
30,Trial # 28,Group1-stimuli/group1-block1/fake-group2-b1/encoded_Group2_IMG_0434.jpg,0,encoded_Group2_IMG_0434.jpg,,,,,0.0,27.0,27.0,27.0,,,,,,,,,,,,,,,,,,,271.3692096049781,None,,,0,0.888403257005848,273.8360346200061,None,273.8360346200061,None,,,272.67005565197906,None,,,,,1,2022_Mar_29_1153,Real-fake-judgement-flashing-group1,2021.1.2
31,Trial # 29,Group1-stimuli/group1-block1/fake-group2-b1/encoded_Group2_IMG_9575.jpg,0,encoded_Group2_IMG_9575.jpg,,,,,0.0,28.0,28.0,28.0,,,,,,,,,,,,,,,,,,,274.75310849095695,None,,,0,0.3580171960056759,277.2384297800017,None,277.2384297800017,None,,,276.0529137100093,None,,,,,1,2022_Mar_29_1153,Real-fake-judgement-flashing-group1,2021.1.2
32,Trial # 30,Group1-stimuli/group1-block1/fake-group2-b1/encoded_Group2_IMG_1025.jpg,0,encoded_Group2_IMG_1025.jpg,,,,,0.0,29.0,29.0,29.0,,,,,,,,,,,,,,,,,,,277.6208243299625,None,,,0,0.5638524839887396,280.1045940819895,None,280.1045940819895,None,,,278.92084495996824,None,,,,,1,2022_Mar_29_1153,Real-fake-judgement-flashing-group1,2021.1.2
33,Trial # 31,Group1-stimuli/group1-block1/real-group1-b1/Group1_IMG_0502.jpg,1,Group1_IMG_0502.jpg,,,,,0.0,30.0,30.0,30.0,,,,,,,,,,,,,,,,,,,280.6882078599883,None,,,1,0.0727294909884221,283.1557113699964,None,283.1557113699964,None,,,282.0063814150053,None,,,,,1,2022_Mar_29_1153,Real-fake-judgement-flashing-group1,2021.1.2
34,Trial # 32,Group1-stimuli/group1-block1/real-group1-b1/Group1_IMG_0182.jpg,1,Group1_IMG_0182.jpg,,,,,0.0,31.0,31.0,31.0,,,,,,,,,,,,,,,,,,,283.25603816995863,None,,,1,1.9847762050339952,285.7396824460011,None,285.7396824460011,None,,,284.5892308439943,None,,,,,1,2022_Mar_29_1153,Real-fake-judgement-flashing-group1,2021.1.2
35,Trial # 33,Group1-stimuli/group1-block1/fake-group2-b1/encoded_Group2_IMG_2728.jpg,0,encoded_Group2_IMG_2728.jpg,,,,,0.0,32.0,32.0,32.0,,,,,,,,,,,,,,,,,,,287.74159750295803,None,,,0,0.2278896640054881,290.2245589699596,None,290.2245589699596,None,,,289.05733790795784,None,,,,,1,2022_Mar_29_1153,Real-fake-judgement-flashing-group1,2021.1.2
36,Trial # 34,Group1-stimuli/group1-block1/fake-group2-b1/encoded_Group2_IMG_4867.jpg,0,encoded_Group2_IMG_4867.jpg,,,,,0.0,33.0,33.0,33.0,,,,,,,,,,,,,,,,,,,290.4746070280089,None,,,0,0.0764991029864177,292.9599495870061,None,292.9599495870061,None,,,291.7760565399658,None,,,,,1,2022_Mar_29_1153,Real-fake-judgement-flashing-group1,2021.1.2
37,Trial # 35,Group1-stimuli/group1-block1/real-group1-b1/Group1_IMG_9894.jpg,1,Group1_IMG_9894.jpg,,,,,0.0,34.0,34.0,34.0,,,,,,,,,,,,,,,,,,,293.0592445349903,None,,,0,0.1183523450163193,295.52609779901104,None,295.52609779901104,None,,,294.3589439239586,None,,,,,1,2022_Mar_29_1153,Real-fake-judgement-flashing-group1,2021.1.2
38,Trial # 36,Group1-stimuli/group1-block1/fake-group2-b1/encoded_Group2_IMG_0444.jpg,0,encoded_Group2_IMG_0444.jpg,,,,,0.0,35.0,35.0,35.0,,,,,,,,,,,,,,,,,,,295.67616645101225,None,,,1,0.2759183790185489,298.14452647796134,None,298.14452647796134,None,,,296.9609611699707,None,,,,,1,2022_Mar_29_1153,Real-fake-judgement-flashing-group1,2021.1.2
39,Trial # 37,Group1-stimuli/group1-block1/real-group1-b1/Group1_IMG_2656.jpg,1,Group1_IMG_2656.jpg,,,,,0.0,36.0,36.0,36.0,,,,,,,,,,,,,,,,,,,298.4449119420024,None,,,0,0.1966972259688191,300.92775097396225,None,300.92775097396225,None,,,299.7772883399739,None,,,,,1,2022_Mar_29_1153,Real-fake-judgement-flashing-group1,2021.1.2
40,Trial # 38,Group1-stimuli/group1-block1/real-group1-b1/Group1_IMG_0207.jpg,1,Group1_IMG_0207.jpg,,,,,0.0,37.0,37.0,37.0,,,,,,,,,,,,,,,,,,,301.1446125959628,None,,,1,0.1444181980332359,303.6119471009588,None,303.6119471009588,None,,,302.46266455197474,None,,,,,1,2022_Mar_29_1153,Real-fake-judgement-flashing-group1,2021.1.2
41,Trial # 39,Group1-stimuli/group1-block1/real-group1-b1/Group1_IMG_9638.jpg,1,Group1_IMG_9638.jpg,,,,,0.0,38.0,38.0,38.0,,,,,,,,,,,,,,,,,,,303.7785110829864,None,,,0,0.4302277819951996,306.24620726000285,None,306.24620726000285,None,,,305.0789543240098,None,,,,,1,2022_Mar_29_1153,Real-fake-judgement-flashing-group1,2021.1.2
42,Trial # 40,Group1-stimuli/group1-block1/real-group1-b1/Group1_IMG_0148.jpg,1,Group1_IMG_0148.jpg,,,,,0.0,39.0,39.0,39.0,,,,,,,,,,,,,,,,,,,306.6973469249788,None,,,0,0.3354998080176301,309.1968119509984,None,309.1968119509984,None,,,308.0136965389829,None,,,,,1,2022_Mar_29_1153,Real-fake-judgement-flashing-group1,2021.1.2
43,Trial # 41,Group1-stimuli/group1-block1/real-group1-b1/Group1_IMG_2891.jpg,1,Group1_IMG_2891.jpg,,,,,0.0,40.0,40.0,40.0,,,,,,,,,,,,,,,,,,,309.5634421699797,None,,,0,0.5009528769878671,312.03143388801254,None,312.03143388801254,None,,,310.8810721010086,None,,,,,1,2022_Mar_29_1153,Real-fake-judgement-flashing-group1,2021.1.2
44,Trial # 42,Group1-stimuli/group1-block1/real-group1-b1/Group1_IMG_0157.jpg,1,Group1_IMG_0157.jpg,,,,,0.0,41.0,41.0,41.0,,,,,,,,,,,,,,,,,,,312.5656736170058,None,,,1,0.1719212380121462,315.0485384829808,None,315.0485384829808,None,,,314.0150231709704,None,,,,,1,2022_Mar_29_1153,Real-fake-judgement-flashing-group1,2021.1.2
45,Trial # 43,Group1-stimuli/group1-block1/real-group1-b1/Group1_IMG_9833.jpg,1,Group1_IMG_9833.jpg,,,,,0.0,42.0,42.0,42.0,,,,,,,,,,,,,,,,,,,315.24910061300034,None,,,0,0.9756865450181068,317.7167781299795,None,317.7167781299795,None,,,316.69990663201315,None,,,,,1,2022_Mar_29_1153,Real-fake-judgement-flashing-group1,2021.1.2
46,Trial # 44,Group1-stimuli/group1-block1/fake-group2-b1/encoded_Group2_IMG_2230.jpg,0,encoded_Group2_IMG_2230.jpg,,,,,0.0,43.0,43.0,43.0,,,,,,,,,,,,,,,,,,,318.7167191079934,None,,,0,0.0676098559633828,321.2007175019826,None,321.2007175019826,None,,,320.0502441569697,None,,,,,1,2022_Mar_29_1153,Real-fake-judgement-flashing-group1,2021.1.2
47,Trial # 45,Group1-stimuli/group1-block1/real-group1-b1/Group1_IMG_9966.jpg,1,Group1_IMG_9966.jpg,,,,,0.0,44.0,44.0,44.0,,,,,,,,,,,,,,,,,,,321.30077433399856,None,,,0,0.0682169039500877,323.7681602049852,None,323.7681602049852,None,,,322.6189104609657,None,,,,,1,2022_Mar_29_1153,Real-fake-judgement-flashing-group1,2021.1.2
48,Trial # 46,Group1-stimuli/group1-block1/real-group1-b1/Group1_IMG_0239.jpg,1,Group1_IMG_0239.jpg,,,,,0.0,45.0,45.0,45.0,,,,,,,,,,,,,,,,,,,323.8683739969856,None,,,1,0.108719129988458,326.3357288929983,None,326.3357288929983,None,,,325.1851575569599,None,,,,,1,2022_Mar_29_1153,Real-fake-judgement-flashing-group1,2021.1.2
49,Trial # 47,Group1-stimuli/group1-block1/fake-group2-b1/encoded_Group2_IMG_0536.jpg,0,encoded_Group2_IMG_0536.jpg,,,,,0.0,46.0,46.0,46.0,,,,,,,,,,,,,,,,,,,326.4689321379992,None,,,0,0.0669715389958582,328.9374282609788,None,328.9374282609788,None,,,327.78716283198446,None,,,,,1,2022_Mar_29_1153,Real-fake-judgement-flashing-group1,2021.1.2
50,Trial # 48,Group1-stimuli/group1-block1/fake-group2-b1/encoded_Group2_IMG_0521.jpg,0,encoded_Group2_IMG_0521.jpg,,,,,0.0,47.0,47.0,47.0,,,,,,,,,,,,,,,,,,,329.0370610720129,None,,,0,0.1158847250044345,331.52057136798976,None,331.52057136798976,None,,,330.3535362459952,None,,,,,1,2022_Mar_29_1153,Real-fake-judgement-flashing-group1,2021.1.2
51,Trial # 49,Group1-stimuli/group1-block1/fake-group2-b1/encoded_Group2_IMG_9924.jpg,0,encoded_Group2_IMG_9924.jpg,,,,,0.0,48.0,48.0,48.0,,,,,,,,,,,,,,,,,,,331.6543827609857,None,,,0,0.218366237997543,334.13808262196835,None,334.13808262196835,None,,,332.9553976499592,None,,,,,1,2022_Mar_29_1153,Real-fake-judgement-flashing-group1,2021.1.2
52,Trial # 50,Group1-stimuli/group1-block1/real-group1-b1/Group1_IMG_9730.jpg,1,Group1_IMG_9730.jpg,,,,,0.0,49.0,49.0,49.0,,,,,,,,,,,,,,,,,,,334.3879876550054,None,,,1,0.4044799060211517,336.8559633140103,None,336.8559633140103,None,,,335.7052106059855,None,,,,,1,2022_Mar_29_1153,Real-fake-judgement-flashing-group1,2021.1.2
53,Trial # 51,Group1-stimuli/group1-block1/real-group1-b1/Group1_IMG_0053.jpg,1,Group1_IMG_0053.jpg,,,,,0.0,50.0,50.0,50.0,,,,,,,,,,,,,,,,,,,337.2901893259841,None,,,1,0.1751073549967259,339.7733390890062,None,339.7733390890062,None,,,338.60591192595894,None,,,,,1,2022_Mar_29_1153,Real-fake-judgement-flashing-group1,2021.1.2
54,Trial # 52,Group1-stimuli/group1-block1/real-group1-b1/Group1_IMG_9698.jpg,1,Group1_IMG_9698.jpg,,,,,0.0,51.0,51.0,51.0,,,,,,,,,,,,,,,,,,,339.9733271879959,None,,,1,1.779337569954805,342.441103079007,None,342.441103079007,None,,,341.2902188799926,None,,,,,1,2022_Mar_29_1153,Real-fake-judgement-flashing-group1,2021.1.2
55,Trial # 53,Group1-stimuli/group1-block1/fake-group2-b1/encoded_Group2_IMG_0553.jpg,0,encoded_Group2_IMG_0553.jpg,,,,,0.0,52.0,52.0,52.0,,,,,,,,,,,,,,,,,,,344.24174625601154,None,,,0,0.4393907550256699,346.7090632659965,None,346.7090632659965,None,,,345.5414958409965,None,,,,,1,2022_Mar_29_1153,Real-fake-judgement-flashing-group1,2021.1.2
56,Trial # 54,Group1-stimuli/group1-block1/fake-group2-b1/encoded_Group2_IMG_9758.jpg,0,encoded_Group2_IMG_9758.jpg,,,,,0.0,53.0,53.0,53.0,,,,,,,,,,,,,,,,,,,347.17679838999175,None,,,0,0.2096069590188563,349.6428390459623,None,349.6428390459623,None,,,348.47567895200336,None,,,,,1,2022_Mar_29_1153,Real-fake-judgement-flashing-group1,2021.1.2
57,Trial # 55,Group1-stimuli/group1-block1/fake-group2-b1/encoded_Group2_IMG_0339.jpg,0,encoded_Group2_IMG_0339.jpg,,,,,0.0,54.0,54.0,54.0,,,,,,,,,,,,,,,,,,,349.8760081809596,None,,,1,0.2114725650171749,352.3449776959605,None,352.3449776959605,None,,,351.1928753950051,None,,,,,1,2022_Mar_29_1153,Real-fake-judgement-flashing-group1,2021.1.2
58,Trial # 56,Group1-stimuli/group1-block1/real-group1-b1/Group1_IMG_0314.jpg,1,Group1_IMG_0314.jpg,,,,,0.0,55.0,55.0,55.0,,,,,,,,,,,,,,,,,,,352.5783915419597,None,,,1,0.2550945359980687,355.0613557099714,None,355.0613557099714,None,,,353.89409260998946,None,,,,,1,2022_Mar_29_1153,Real-fake-judgement-flashing-group1,2021.1.2
59,Trial # 57,Group1-stimuli/group1-block1/fake-group2-b1/encoded_Group2_IMG_0532.jpg,0,encoded_Group2_IMG_0532.jpg,,,,,0.0,56.0,56.0,56.0,,,,,,,,,,,,,,,,,,,355.3447630640003,None,,,0,1.3766803669859655,357.7957651519682,None,357.7957651519682,None,,,356.6294187169988,None,,,,,1,2022_Mar_29_1153,Real-fake-judgement-flashing-group1,2021.1.2
60,Trial # 58,Group1-stimuli/group1-block1/fake-group2-b1/encoded_Group2_IMG_0462.jpg,0,encoded_Group2_IMG_0462.jpg,,,,,0.0,57.0,57.0,57.0,,,,,,,,,,,,,,,,,,,359.196338699956,None,,,1,0.3888239290099591,361.66362849000143,None,361.66362849000143,None,,,360.4959312109859,None,,,,,1,2022_Mar_29_1153,Real-fake-judgement-flashing-group1,2021.1.2
61,Trial # 59,Group1-stimuli/group1-block1/real-group1-b1/Group1_IMG_0172.jpg,1,Group1_IMG_0172.jpg,,,,,0.0,58.0,58.0,58.0,,,,,,,,,,,,,,,,,,,362.0812359059928,None,,,1,0.2084035139996558,364.56407798896544,None,364.56407798896544,None,,,363.3978356249863,None,,,,,1,2022_Mar_29_1153,Real-fake-judgement-flashing-group1,2021.1.2
62,Trial # 60,Group1-stimuli/group1-block1/real-group1-b1/Group1_IMG_4841.jpg,1,Group1_IMG_4841.jpg,,,,,0.0,59.0,59.0,59.0,,,,,,,,,,,,,,,,,,,364.79722023697104,None,,,0,0.083070894004777,367.2653888009954,None,367.2653888009954,None,,,366.1146063209744,None,,,,,1,2022_Mar_29_1153,Real-fake-judgement-flashing-group1,2021.1.2
63,Trial # 61,Group1-stimuli/group1-block1/fake-group2-b1/encoded_Group2_IMG_0352.jpg,0,encoded_Group2_IMG_0352.jpg,,,,,0.0,60.0,60.0,60.0,,,,,,,,,,,,,,,,,,,367.3664030279615,None,,,1,0.7313201590441167,369.8490747119649,None,369.8490747119649,None,,,368.6665879889624,None,,,,,1,2022_Mar_29_1153,Real-fake-judgement-flashing-group1,2021.1.2
64,Trial # 62,Group1-stimuli/group1-block1/fake-group2-b1/encoded_Group2_IMG_9726.jpg,0,encoded_Group2_IMG_9726.jpg,,,,,0.0,61.0,61.0,61.0,,,,,,,,,,,,,,,,,,,370.60000204498647,None,,,0,3.568197315966245,373.0681359519949,None,373.0681359519949,None,,,371.91728444298496,None,,,,,1,2022_Mar_29_1153,Real-fake-judgement-flashing-group1,2021.1.2
65,Trial # 63,Group1-stimuli/group1-block1/fake-group2-b1/encoded_Group2_IMG_9785.jpg,0,encoded_Group2_IMG_9785.jpg,,,,,0.0,62.0,62.0,62.0,,,,,,,,,,,,,,,,,,,376.66863515099976,None,,,0,12.180468145990744,379.1359651630046,None,379.1359651630046,None,,,377.96846373495646,None,,,,,1,2022_Mar_29_1153,Real-fake-judgement-flashing-group1,2021.1.2
66,Trial # 64,Group1-stimuli/group1-block1/fake-group2-b1/encoded_Group2_IMG_0440.jpg,0,encoded_Group2_IMG_0440.jpg,,,,,0.0,63.0,63.0,63.0,,,,,,,,,,,,,,,,,,,391.33955596695887,None,,,1,0.3251880049938336,393.8232518269797,None,393.8232518269797,None,,,392.6572621809901,None,,,,,1,2022_Mar_29_1153,Real-fake-judgement-flashing-group1,2021.1.2
67,Trial # 65,Group1-stimuli/group1-block1/fake-group2-b1/encoded_Group2_IMG_1695.jpg,0,encoded_Group2_IMG_1695.jpg,,,,,0.0,64.0,64.0,64.0,,,,,,,,,,,,,,,,,,,394.1736365009565,None,,,0,0.1385710430331528,396.6418699069764,None,396.6418699069764,None,,,395.4742304770043,None,,,,,1,2022_Mar_29_1153,Real-fake-judgement-flashing-group1,2021.1.2
68,Trial # 66,Group1-stimuli/group1-block1/real-group1-b1/Group1_IMG_0552.jpg,1,Group1_IMG_0552.jpg,,,,,0.0,65.0,65.0,65.0,,,,,,,,,,,,,,,,,,,396.8078223299817,None,,,1,0.3129504789831117,399.2914889379754,None,399.2914889379754,None,,,398.1254987689899,None,,,,,1,2022_Mar_29_1153,Real-fake-judgement-flashing-group1,2021.1.2
69,Trial # 67,Group1-stimuli/group1-block1/real-group1-b1/Group1_IMG_1029.jpg,1,Group1_IMG_1029.jpg,,,,,0.0,66.0,66.0,66.0,,,,,,,,,,,,,,,,,,,399.62605347897625,None,,,1,0.2476690129842609,402.0928074669792,None,402.0928074669792,None,,,400.9420210869866,None,,,,,1,2022_Mar_29_1153,Real-fake-judgement-flashing-group1,2021.1.2
70,Trial # 68,Group1-stimuli/group1-block1/fake-group2-b1/encoded_Group2_IMG_6517.jpg,0,encoded_Group2_IMG_6517.jpg,,,,,0.0,67.0,67.0,67.0,,,,,,,,,,,,,,,,,,,402.36066637799377,None,,,0,0.1370610350277274,404.8433747669915,None,404.8433747669915,None,,,403.6761512159719,None,,,,,1,2022_Mar_29_1153,Real-fake-judgement-flashing-group1,2021.1.2
71,Trial # 69,Group1-stimuli/group1-block1/fake-group2-b1/encoded_Group2_IMG_0002.jpg,0,encoded_Group2_IMG_0002.jpg,,,,,0.0,68.0,68.0,68.0,,,,,,,,,,,,,,,,,,,405.0108211739571,None,,,0,0.2217224269988946,407.4787246729829,None,407.4787246729829,None,,,406.310343369958,None,,,,,1,2022_Mar_29_1153,Real-fake-judgement-flashing-group1,2021.1.2
72,Trial # 70,Group1-stimuli/group1-block1/real-group1-b1/Group1_IMG_0495.jpg,1,Group1_IMG_0495.jpg,,,,,0.0,69.0,69.0,69.0,,,,,,,,,,,,,,,,,,,407.7281205409672,None,,,1,0.4247790030203759,410.2116609349614,None,410.2116609349614,None,,,409.0445049449918,None,,,,,1,2022_Mar_29_1153,Real-fake-judgement-flashing-group1,2021.1.2
73,Trial # 71,Group1-stimuli/group1-block1/real-group1-b1/Group1_IMG_1391.jpg,1,Group1_IMG_1391.jpg,,,,,0.0,70.0,70.0,70.0,,,,,,,,,,,,,,,,,,,410.6617632019916,None,,,1,0.3781234580092132,413.13031698798295,None,413.13031698798295,None,,,411.9799052730086,None,,,,,1,2022_Mar_29_1153,Real-fake-judgement-flashing-group1,2021.1.2
74,Trial # 72,Group1-stimuli/group1-block1/real-group1-b1/Group1_IMG_0343.jpg,1,Group1_IMG_0343.jpg,,,,,0.0,71.0,71.0,71.0,,,,,,,,,,,,,,,,,,,413.5303126379731,None,,,1,0.3351515759713948,416.0132985159871,None,416.0132985159871,None,,,414.8462368909968,None,,,,,1,2022_Mar_29_1153,Real-fake-judgement-flashing-group1,2021.1.2
75,Trial # 73,Group1-stimuli/group1-block1/fake-group2-b1/encoded_Group2_IMG_9810.jpg,0,encoded_Group2_IMG_9810.jpg,,,,,0.0,72.0,72.0,72.0,,,,,,,,,,,,,,,,,,,416.3803232799983,None,,,0,0.2917647050344385,418.8486883249716,None,418.8486883249716,None,,,417.6984837719938,None,,,,,1,2022_Mar_29_1153,Real-fake-judgement-flashing-group1,2021.1.2
76,Trial # 74,Group1-stimuli/group1-block1/fake-group2-b1/encoded_Group2_IMG_5900.jpg,0,encoded_Group2_IMG_5900.jpg,,,,,0.0,73.0,73.0,73.0,,,,,,,,,,,,,,,,,,,419.1644676429569,None,,,0,0.2988939820206724,421.6495635419851,None,421.6495635419851,None,,,420.4643948849989,None,,,,,1,2022_Mar_29_1153,Real-fake-judgement-flashing-group1,2021.1.2
77,Trial # 75,Group1-stimuli/group1-block1/real-group1-b1/Group1_IMG_9679.jpg,1,Group1_IMG_9679.jpg,,,,,0.0,74.0,74.0,74.0,,,,,,,,,,,,,,,,,,,421.96620207699016,None,,,1,0.3146973329712637,424.465738555009,None,424.465738555009,None,,,423.2834376459941,None,,,,,1,2022_Mar_29_1153,Real-fake-judgement-flashing-group1,2021.1.2
78,Trial # 76,Group1-stimuli/group1-block1/fake-group2-b1/encoded_Group2_IMG_4249.jpg,0,encoded_Group2_IMG_4249.jpg,,,,,0.0,75.0,75.0,75.0,,,,,,,,,,,,,,,,,,,424.7996069889632,None,,,0,0.3292941729887388,427.2671459210105,None,427.2671459210105,None,,,426.09949572896585,None,,,,,1,2022_Mar_29_1153,Real-fake-judgement-flashing-group1,2021.1.2
79,Trial # 77,Group1-stimuli/group1-block1/fake-group2-b1/encoded_Group2_IMG_0174.jpg,0,encoded_Group2_IMG_0174.jpg,,,,,0.0,76.0,76.0,76.0,,,,,,,,,,,,,,,,,,,427.6181677459972,None,,,0,0.4560000069905072,430.08444213395705,None,430.08444213395705,None,,,428.9172314039897,None,,,,,1,2022_Mar_29_1153,Real-fake-judgement-flashing-group1,2021.1.2
80,Trial # 78,Group1-stimuli/group1-block1/fake-group2-b1/encoded_Group2_IMG_0475.jpg,0,encoded_Group2_IMG_0475.jpg,,,,,0.0,77.0,77.0,77.0,,,,,,,,,,,,,,,,,,,430.5676890389877,None,,,0,0.0887086659786291,433.0197372320108,None,433.0197372320108,None,,,431.85258709295886,None,,,,,1,2022_Mar_29_1153,Real-fake-judgement-flashing-group1,2021.1.2
81,Trial # 79,Group1-stimuli/group1-block1/fake-group2-b1/encoded_Group2_IMG_9751.jpg,0,encoded_Group2_IMG_9751.jpg,,,,,0.0,78.0,78.0,78.0,,,,,,,,,,,,,,,,,,,433.1368397019687,None,,,0,0.3768758790101856,435.6195802550064,None,435.6195802550064,None,,,434.45239318697713,None,,,,,1,2022_Mar_29_1153,Real-fake-judgement-flashing-group1,2021.1.2
82,Trial # 80,Group1-stimuli/group1-block1/fake-group2-b1/encoded_Group2_IMG_0492.jpg,0,encoded_Group2_IMG_0492.jpg,,,,,0.0,79.0,79.0,79.0,,,,,,,,,,,,,,,,,,,436.0194099199725,None,,,0,0.324451352993492,438.48801229998935,None,438.48801229998935,None,,,437.3208962790086,None,,,,,1,2022_Mar_29_1153,Real-fake-judgement-flashing-group1,2021.1.2
83,Trial # 81,Group1-stimuli/group1-block1/real-group1-b1/Group1_IMG_0535.jpg,1,Group1_IMG_0535.jpg,,,,,0.0,80.0,80.0,80.0,,,,,,,,,,,,,,,,,,,438.838136358012,None,,,1,0.0991902009700425,441.3212429229752,None,441.3212429229752,None,,,440.170793962956,None,,,,,1,2022_Mar_29_1153,Real-fake-judgement-flashing-group1,2021.1.2
84,Trial # 82,Group1-stimuli/group1-block1/real-group1-b1/Group1_IMG_0077.jpg,1,Group1_IMG_0077.jpg,,,,,0.0,81.0,81.0,81.0,,,,,,,,,,,,,,,,,,,441.4381015689578,None,,,1,0.1623748749843798,443.9220948820002,None,443.9220948820002,None,,,442.7556294929818,None,,,,,1,2022_Mar_29_1153,Real-fake-judgement-flashing-group1,2021.1.2
85,Trial # 83,Group1-stimuli/group1-block1/fake-group2-b1/encoded_Group2_IMG_9702.jpg,0,encoded_Group2_IMG_9702.jpg,,,,,0.0,82.0,82.0,82.0,,,,,,,,,,,,,,,,,,,444.1055168369785,None,,,0,0.1506759309559129,446.605776982964,None,446.605776982964,None,,,445.4224070989876,None,,,,,1,2022_Mar_29_1153,Real-fake-judgement-flashing-group1,2021.1.2
86,Trial # 84,Group1-stimuli/group1-block1/real-group1-b1/Group1_IMG_0357.jpg,1,Group1_IMG_0357.jpg,,,,,0.0,83.0,83.0,83.0,,,,,,,,,,,,,,,,,,,446.7744917650125,None,,,1,0.0595025540096685,449.25694826996187,None,449.25694826996187,None,,,448.0911302049644,None,,,,,1,2022_Mar_29_1153,Real-fake-judgement-flashing-group1,2021.1.2
87,Trial # 85,Group1-stimuli/group1-block1/real-group1-b1/Group1_IMG_9772.jpg,1,Group1_IMG_9772.jpg,,,,,0.0,84.0,84.0,84.0,,,,,,,,,,,,,,,,,,,449.34063647995936,None,,,1,0.201990942005068,451.84245820500655,None,451.84245820500655,None,,,450.6573321640026,None,,,,,1,2022_Mar_29_1153,Real-fake-judgement-flashing-group1,2021.1.2
88,Trial # 86,Group1-stimuli/group1-block1/real-group1-b1/Group1_IMG_0482.jpg,1,Group1_IMG_0482.jpg,,,,,0.0,85.0,85.0,85.0,,,,,,,,,,,,,,,,,,,452.0760876159766,None,,,1,0.0937875809613615,454.55866103898734,None,454.55866103898734,None,,,453.3916646770085,None,,,,,1,2022_Mar_29_1153,Real-fake-judgement-flashing-group1,2021.1.2
89,Trial # 87,Group1-stimuli/group1-block1/real-group1-b1/Group1_IMG_0299.jpg,1,Group1_IMG_0299.jpg,,,,,0.0,86.0,86.0,86.0,,,,,,,,,,,,,,,,,,,454.6749633959844,None,,,1,0.1814895140123553,457.14296728099,None,457.14296728099,None,,,455.9752738350071,None,,,,,1,2022_Mar_29_1153,Real-fake-judgement-flashing-group1,2021.1.2
90,Trial # 88,Group1-stimuli/group1-block1/fake-group2-b1/encoded_Group2_IMG_0301.jpg,0,encoded_Group2_IMG_0301.jpg,,,,,0.0,87.0,87.0,87.0,,,,,,,,,,,,,,,,,,,457.34411375800846,None,,,0,0.3937306230072863,459.8267162039992,None,459.8267162039992,None,,,458.6444714560057,None,,,,,1,2022_Mar_29_1153,Real-fake-judgement-flashing-group1,2021.1.2
91,Trial # 89,Group1-stimuli/group1-block1/fake-group2-b1/encoded_Group2_IMG_5136.jpg,0,encoded_Group2_IMG_5136.jpg,,,,,0.0,88.0,88.0,88.0,,,,,,,,,,,,,,,,,,,460.2442385739996,None,,,0,0.6290043029584922,462.7114430459915,None,462.7114430459915,None,,,461.5436431890121,None,,,,,1,2022_Mar_29_1153,Real-fake-judgement-flashing-group1,2021.1.2
92,Trial # 90,Group1-stimuli/group1-block1/real-group1-b1/Group1_IMG_0460.jpg,1,Group1_IMG_0460.jpg,,,,,0.0,89.0,89.0,89.0,,,,,,,,,,,,,,,,,,,463.3618741289829,None,,,1,0.127235636988189,465.845205235004,None,465.845205235004,None,,,464.67800313798944,None,,,,,1,2022_Mar_29_1153,Real-fake-judgement-flashing-group1,2021.1.2
93,Trial # 91,Group1-stimuli/group1-block1/fake-group2-b1/encoded_Group2_IMG_0068.jpg,0,encoded_Group2_IMG_0068.jpg,,,,,0.0,90.0,90.0,90.0,,,,,,,,,,,,,,,,,,,465.9950860299869,None,,,1,0.2773688319721259,468.463096048974,None,468.463096048974,None,,,467.29707584995776,None,,,,,1,2022_Mar_29_1153,Real-fake-judgement-flashing-group1,2021.1.2
94,Trial # 92,Group1-stimuli/group1-block1/real-group1-b1/Group1_IMG_0337.jpg,1,Group1_IMG_0337.jpg,,,,,0.0,91.0,91.0,91.0,,,,,,,,,,,,,,,,,,,468.7629590299912,None,,,1,0.3579480749904178,471.230500036967,None,471.230500036967,None,,,470.0634337749798,None,,,,,1,2022_Mar_29_1153,Real-fake-judgement-flashing-group1,2021.1.2
95,Trial # 93,Group1-stimuli/group1-block1/fake-group2-b1/encoded_Group2_IMG_0346.jpg,0,encoded_Group2_IMG_0346.jpg,,,,,0.0,92.0,92.0,92.0,,,,,,,,,,,,,,,,,,,471.6135135960066,None,,,0,0.2984910949598998,474.0979618830024,None,474.0979618830024,None,,,472.9143257559626,None,,,,,1,2022_Mar_29_1153,Real-fake-judgement-flashing-group1,2021.1.2
96,Trial # 94,Group1-stimuli/group1-block1/real-group1-b1/Group1_IMG_4253.jpg,1,Group1_IMG_4253.jpg,,,,,0.0,93.0,93.0,93.0,,,,,,,,,,,,,,,,,,,474.4147648260114,None,,,1,1.28971740801353,476.88272571598645,None,476.88272571598645,None,,,475.73170008696616,None,,,,,1,2022_Mar_29_1153,Real-fake-judgement-flashing-group1,2021.1.2
97,Trial # 95,Group1-stimuli/group1-block1/fake-group2-b1/encoded_Group2_IMG_9280.jpg,0,encoded_Group2_IMG_9280.jpg,,,,,0.0,94.0,94.0,94.0,,,,,,,,,,,,,,,,,,,478.2005866119871,None,,,0,0.1458505589980632,480.6665969970054,None,480.6665969970054,None,,,479.4996036579832,None,,,,,1,2022_Mar_29_1153,Real-fake-judgement-flashing-group1,2021.1.2
98,Trial # 96,Group1-stimuli/group1-block1/real-group1-b1/Group1_IMG_0417.jpg,1,Group1_IMG_0417.jpg,,,,,0.0,95.0,95.0,95.0,,,,,,,,,,,,,,,,,,,480.83378944097785,None,,,0,1.0143249509856105,483.3021312310011,None,483.3021312310011,None,,,482.151613235008,None,,,,,1,2022_Mar_29_1153,Real-fake-judgement-flashing-group1,2021.1.2
99,Trial # 97,Group1-stimuli/group1-block1/fake-group2-b1/encoded_Group2_IMG_9695.jpg,0,encoded_Group2_IMG_9695.jpg,,,,,0.0,96.0,96.0,96.0,,,,,,,,,,,,,,,,,,,484.3352321549901,None,,,0,2.2492899029748514,486.8031823639758,None,486.8031823639758,None,,,485.6348469959921,None,,,,,1,2022_Mar_29_1153,Real-fake-judgement-flashing-group1,2021.1.2
100,Trial # 98,Group1-stimuli/group1-block1/real-group1-b1/Group1_IMG_1160.jpg,1,Group1_IMG_1160.jpg,,,,,0.0,97.0,97.0,97.0,,,,,,,,,,,,,,,,,,,489.0695883979788,None,,,1,0.1950427079573273,491.5534052369767,None,491.5534052369767,None,,,490.386339935998,None,,,,,1,2022_Mar_29_1153,Real-fake-judgement-flashing-group1,2021.1.2
101,Trial # 99,Group1-stimuli/group1-block1/real-group1-b1/Group1_IMG_0448.jpg,1,Group1_IMG_0448.jpg,,,,,0.0,98.0,98.0,98.0,,,,,,,,,,,,,,,,,,,491.7713768630056,None,,,1,0.3102219140273519,494.25421837199247,None,494.25421837199247,None,,,493.0716589349904,None,,,,,1,2022_Mar_29_1153,Real-fake-judgement-flashing-group1,2021.1.2
102,Trial # 100,Group1-stimuli/group1-block1/fake-group2-b1/encoded_Group2_IMG_0393.jpg,0,encoded_Group2_IMG_0393.jpg,,,,,0.0,99.0,99.0,99.0,,,,,,,,,,,,,,,,,,,494.5888623019564,None,,,0,1.7319178860052489,497.0564552939613,None,497.0564552939613,None,,,495.9042119010119,None,,,,,1,2022_Mar_29_1153,Real-fake-judgement-flashing-group1,2021.1.2
103,Trial # 101,Group1-stimuli/group1-block1/real-group1-b1/Group1_IMG_0090.jpg,1,Group1_IMG_0090.jpg,,,,,0.0,100.0,100.0,100.0,,,,,,,,,,,,,,,,,,,498.8071899979841,None,,,1,0.2586565249948762,501.2897835039767,None,501.2897835039767,None,,,500.139280650008,None,,,,,1,2022_Mar_29_1153,Real-fake-judgement-flashing-group1,2021.1.2
104,Trial # 102,Group1-stimuli/group1-block1/real-group1-b1/Group1_IMG_0310.jpg,1,Group1_IMG_0310.jpg,,,,,0.0,101.0,101.0,101.0,,,,,,,,,,,,,,,,,,,501.57279880699934,None,,,1,0.1878092569531873,504.0406311840052,None,504.0406311840052,None,,,502.8912979019806,None,,,,,1,2022_Mar_29_1153,Real-fake-judgement-flashing-group1,2021.1.2
105,Trial # 103,Group1-stimuli/group1-block1/fake-group2-b1/encoded_Group2_IMG_0528.jpg,0,encoded_Group2_IMG_0528.jpg,,,,,0.0,102.0,102.0,102.0,,,,,,,,,,,,,,,,,,,504.2571036409936,None,,,0,0.063157484983094,506.7253156380029,None,506.7253156380029,None,,,505.557668607973,None,,,,,1,2022_Mar_29_1153,Real-fake-judgement-flashing-group1,2021.1.2
106,Trial # 104,Group1-stimuli/group1-block1/fake-group2-b1/encoded_Group2_IMG_1975.jpg,0,encoded_Group2_IMG_1975.jpg,,,,,0.0,103.0,103.0,103.0,,,,,,,,,,,,,,,,,,,506.8085056699929,None,,,0,0.759809780982323,509.2926283190027,None,509.2926283190027,None,,,508.1096024159924,None,,,,,1,2022_Mar_29_1153,Real-fake-judgement-flashing-group1,2021.1.2
107,Trial # 105,Group1-stimuli/group1-block1/fake-group2-b1/encoded_Group2_IMG_0052.jpg,0,encoded_Group2_IMG_0052.jpg,,,,,0.0,104.0,104.0,104.0,,,,,,,,,,,,,,,,,,,510.0762344760005,None,,,0,0.2520494250347838,512.5444166839588,None,512.5444166839588,None,,,511.3760912409634,None,,,,,1,2022_Mar_29_1153,Real-fake-judgement-flashing-group1,2021.1.2
108,Trial # 106,Group1-stimuli/group1-block1/fake-group2-b1/encoded_Group2_IMG_0225.jpg,0,encoded_Group2_IMG_0225.jpg,,,,,0.0,105.0,105.0,105.0,,,,,,,,,,,,,,,,,,,512.8269661219674,None,,,0,1.2370157099794596,515.3274252460105,None,515.3274252460105,None,,,514.1436174800037,None,,,,,1,2022_Mar_29_1153,Real-fake-judgement-flashing-group1,2021.1.2
109,Trial # 107,Group1-stimuli/group1-block1/real-group1-b1/Group1_IMG_2231.jpg,1,Group1_IMG_2231.jpg,,,,,0.0,106.0,106.0,106.0,,,,,,,,,,,,,,,,,,,516.5942278779694,None,,,1,0.1984566450119018,519.0619928159867,None,519.0619928159867,None,,,517.912773574004,None,,,,,1,2022_Mar_29_1153,Real-fake-judgement-flashing-group1,2021.1.2
110,Trial # 108,Group1-stimuli/group1-block1/real-group1-b1/Group1_IMG_0217.jpg,1,Group1_IMG_0217.jpg,,,,,0.0,107.0,107.0,107.0,,,,,,,,,,,,,,,,,,,519.2790586919873,None,,,1,0.2252057410078123,521.7632339149714,None,521.7632339149714,None,,,520.5956690869643,None,,,,,1,2022_Mar_29_1153,Real-fake-judgement-flashing-group1,2021.1.2
111,Trial # 109,Group1-stimuli/group1-block1/real-group1-b1/Group1_IMG_0264.jpg,1,Group1_IMG_0264.jpg,,,,,0.0,108.0,108.0,108.0,,,,,,,,,,,,,,,,,,,522.0138386699837,None,,,1,0.2674962049932219,524.4969108849764,None,524.4969108849764,None,,,523.3309606600087,None,,,,,1,2022_Mar_29_1153,Real-fake-judgement-flashing-group1,2021.1.2
112,Trial # 110,Group1-stimuli/group1-block1/fake-group2-b1/encoded_Group2_IMG_0254.jpg,0,encoded_Group2_IMG_0254.jpg,,,,,0.0,109.0,109.0,109.0,,,,,,,,,,,,,,,,,,,524.7970933849574,None,,,0,0.2668853650102392,527.2815732139861,None,527.2815732139861,None,,,526.0968523779884,None,,,,,1,2022_Mar_29_1153,Real-fake-judgement-flashing-group1,2021.1.2
113,Trial # 111,Group1-stimuli/group1-block1/fake-group2-b1/encoded_Group2_IMG_5433.jpg,0,encoded_Group2_IMG_5433.jpg,,,,,0.0,110.0,110.0,110.0,,,,,,,,,,,,,,,,,,,527.5648081559921,None,,,0,0.2124818839947693,530.0320077840006,None,530.0320077840006,None,,,528.8659953809693,None,,,,,1,2022_Mar_29_1153,Real-fake-judgement-flashing-group1,2021.1.2
114,Trial # 112,Group1-stimuli/group1-block1/real-group1-b1/Group1_IMG_0252.jpg,1,Group1_IMG_0252.jpg,,,,,0.0,111.0,111.0,111.0,,,,,,,,,,,,,,,,,,,530.2652869590092,None,,,0,0.2624730039970018,532.7339777799789,None,532.7339777799789,None,,,531.582411831012,None,,,,,1,2022_Mar_29_1153,Real-fake-judgement-flashing-group1,2021.1.2
115,Trial # 113,Group1-stimuli/group1-block1/real-group1-b1/Group1_IMG_9720.jpg,1,Group1_IMG_9720.jpg,,,,,0.0,112.0,112.0,112.0,,,,,,,,,,,,,,,,,,,533.0164603999583,None,,,0,18.456441642018035,535.4999355910113,None,535.4999355910113,None,,,534.3832947209594,None,,,,,1,2022_Mar_29_1153,Real-fake-judgement-flashing-group1,2021.1.2
116,Trial # 114,Group1-stimuli/group1-block1/fake-group2-b1/encoded_Group2_IMG_0550.jpg,0,encoded_Group2_IMG_0550.jpg,,,,,0.0,113.0,113.0,113.0,,,,,,,,,,,,,,,,,,,553.9894201369607,None,,,0,0.355282966978848,556.4731596339843,None,556.4731596339843,None,,,555.3062733130064,None,,,,,1,2022_Mar_29_1153,Real-fake-judgement-flashing-group1,2021.1.2
117,Trial # 115,Group1-stimuli/group1-block1/real-group1-b1/Group1_IMG_9915.jpg,1,Group1_IMG_9915.jpg,,,,,0.0,114.0,114.0,114.0,,,,,,,,,,,,,,,,,,,556.8575320509844,None,,,1,0.2383362730033695,559.3421030759928,None,559.3421030759928,None,,,558.1752249890123,None,,,,,1,2022_Mar_29_1153,Real-fake-judgement-flashing-group1,2021.1.2
118,Trial # 116,Group1-stimuli/group1-block1/real-group1-b1/Group1_IMG_9850.jpg,1,Group1_IMG_9850.jpg,,,,,0.0,115.0,115.0,115.0,,,,,,,,,,,,,,,,,,,559.6090759439976,None,,,1,0.0960466209799051,562.0764024530072,None,562.0764024530072,None,,,560.9243410300114,None,,,,,1,2022_Mar_29_1153,Real-fake-judgement-flashing-group1,2021.1.2
119,Trial # 117,Group1-stimuli/group1-block1/real-group1-b1/Group1_IMG_3579.jpg,1,Group1_IMG_3579.jpg,,,,,0.0,116.0,116.0,116.0,,,,,,,,,,,,,,,,,,,562.193417485978,None,,,1,0.6076601519598626,564.6767762859818,None,564.6767762859818,None,,,563.4924115279573,None,,,,,1,2022_Mar_29_1153,Real-fake-judgement-flashing-group1,2021.1.2
120,Trial # 118,Group1-stimuli/group1-block1/fake-group2-b1/encoded_Group2_IMG_0377.jpg,0,encoded_Group2_IMG_0377.jpg,,,,,0.0,117.0,117.0,117.0,,,,,,,,,,,,,,,,,,,565.3092244609725,None,,,0,0.2898122790502384,567.7946272239788,None,567.7946272239788,None,,,566.626000704011,None,,,,,1,2022_Mar_29_1153,Real-fake-judgement-flashing-group1,2021.1.2
121,Trial # 119,Group1-stimuli/group1-block1/real-group1-b1/Group1_IMG_0469.jpg,1,Group1_IMG_0469.jpg,,,,,0.0,118.0,118.0,118.0,,,,,,,,,,,,,,,,,,,568.1105542609585,None,,,0,0.8579161480301991,570.5945321019972,None,570.5945321019972,None,,,569.4275054539903,None,,,,,1,2022_Mar_29_1153,Real-fake-judgement-flashing-group1,2021.1.2
122,Trial # 120,Group1-stimuli/group1-block1/fake-group2-b1/encoded_Group2_IMG_0100.jpg,0,encoded_Group2_IMG_0100.jpg,,,,,0.0,119.0,119.0,119.0,,,,,,,,,,,,,,,,,,,571.478622422961,None,,,0,0.2348286950145848,573.9455843819887,None,573.9455843819887,None,,,572.779648288968,None,,,,,1,2022_Mar_29_1153,Real-fake-judgement-flashing-group1,2021.1.2
123,Trial # 121,Group1-stimuli/group1-block1/real-group1-b1/Group1_IMG_5359.jpg,1,Group1_IMG_5359.jpg,,,,,0.0,120.0,120.0,120.0,,,,,,,,,,,,,,,,,,,574.2130971839651,None,,,1,0.1712074560346081,576.6972425190033,None,576.6972425190033,None,,,575.5292602319969,None,,,,,1,2022_Mar_29_1153,Real-fake-judgement-flashing-group1,2021.1.2
124,Trial # 122,Group1-stimuli/group1-block1/fake-group2-b1/encoded_Group2_IMG_0304.jpg,0,encoded_Group2_IMG_0304.jpg,,,,,0.0,121.0,121.0,121.0,,,,,,,,,,,,,,,,,,,576.8978988149902,None,,,0,0.7444940019631758,579.3639536320115,None,579.3639536320115,None,,,578.1977088300046,None,,,,,1,2022_Mar_29_1153,Real-fake-judgement-flashing-group1,2021.1.2
125,Trial # 123,Group1-stimuli/group1-block1/real-group1-b1/Group1_IMG_0306.jpg,1,Group1_IMG_0306.jpg,,,,,0.0,122.0,122.0,122.0,,,,,,,,,,,,,,,,,,,580.1303660449921,None,,,1,0.0841568249743431,582.6162226839806,None,582.6162226839806,None,,,581.4472415259806,None,,,,,1,2022_Mar_29_1153,Real-fake-judgement-flashing-group1,2021.1.2
126,Trial # 124,Group1-stimuli/group1-block1/real-group1-b1/Group1_IMG_0224.jpg,1,Group1_IMG_0224.jpg,,,,,0.0,123.0,123.0,123.0,,,,,,,,,,,,,,,,,,,582.7329099319759,None,,,1,0.0922149309772066,585.2161626939778,None,585.2161626939778,None,,,584.0485609119642,None,,,,,1,2022_Mar_29_1153,Real-fake-judgement-flashing-group1,2021.1.2
127,Trial # 125,Group1-stimuli/group1-block1/real-group1-b1/Group1_IMG_9889.jpg,1,Group1_IMG_9889.jpg,,,,,0.0,124.0,124.0,124.0,,,,,,,,,,,,,,,,,,,585.3330497269635,None,,,0,4.267664167040493,587.8007760079927,None,587.8007760079927,None,,,586.6323565769708,None,,,,,1,2022_Mar_29_1153,Real-fake-judgement-flashing-group1,2021.1.2
128,Trial # 126,Group1-stimuli/group1-block1/real-group1-b1/Group1_IMG_0293.jpg,1,Group1_IMG_0293.jpg,,,,,0.0,125.0,125.0,125.0,,,,,,,,,,,,,,,,,,,592.0847496439819,None,,,1,20.588779991026968,594.5515611639712,None,594.5515611639712,None,,,593.385673162993,None,,,,,1,2022_Mar_29_1153,Real-fake-judgement-flashing-group1,2021.1.2
129,Trial # 127,Group1-stimuli/group1-block1/fake-group2-b1/encoded_Group2_IMG_0321.jpg,0,encoded_Group2_IMG_0321.jpg,,,,,0.0,126.0,126.0,126.0,,,,,,,,,,,,,,,,,,,615.1581740949769,None,,,1,0.2982434270088561,617.6261259469902,None,617.6261259469902,None,,,616.4418697499787,None,,,,,1,2022_Mar_29_1153,Real-fake-judgement-flashing-group1,2021.1.2
130,Trial # 128,Group1-stimuli/group1-block1/fake-group2-b1/encoded_Group2_IMG_0400.jpg,0,encoded_Group2_IMG_0400.jpg,,,,,0.0,127.0,127.0,127.0,,,,,,,,,,,,,,,,,,,617.9426678029704,None,,,0,1.0339154159883035,620.4264449200127,None,620.4264449200127,None,,,619.2429234950105,None,,,,,1,2022_Mar_29_1153,Real-fake-judgement-flashing-group1,2021.1.2
131,Trial # 129,Group1-stimuli/group1-block1/fake-group2-b1/encoded_Group2_IMG_0443.jpg,0,encoded_Group2_IMG_0443.jpg,,,,,0.0,128.0,128.0,128.0,,,,,,,,,,,,,,,,,,,621.4933841649909,None,,,0,1.179454798984807,623.9609848869732,None,623.9609848869732,None,,,622.7951923669898,None,,,,,1,2022_Mar_29_1153,Real-fake-judgement-flashing-group1,2021.1.2
132,Trial # 130,Group1-stimuli/group1-block1/fake-group2-b1/encoded_Group2_IMG_0542.jpg,0,encoded_Group2_IMG_0542.jpg,,,,,0.0,129.0,129.0,129.0,,,,,,,,,,,,,,,,,,,625.1618743659928,None,,,1,0.311125774984248,627.629313376965,None,627.629313376965,None,,,626.5284282049979,None,,,,,1,2022_Mar_29_1153,Real-fake-judgement-flashing-group1,2021.1.2
133,Trial # 131,Group1-stimuli/group1-block1/real-group1-b1/Group1_IMG_0885.jpg,1,Group1_IMG_0885.jpg,,,,,0.0,130.0,130.0,130.0,,,,,,,,,,,,,,,,,,,627.962812223006,None,,,1,0.4139236229821108,630.4465079309884,None,630.4465079309884,None,,,629.2632504299982,None,,,,,1,2022_Mar_29_1153,Real-fake-judgement-flashing-group1,2021.1.2
134,Trial # 132,Group1-stimuli/group1-block1/real-group1-b1/Group1_IMG_0375.jpg,1,Group1_IMG_0375.jpg,,,,,0.0,131.0,131.0,131.0,,,,,,,,,,,,,,,,,,,630.8798590959632,None,,,1,0.8321668609860353,633.3482728750096,None,633.3482728750096,None,,,632.1810351589811,None,,,,,1,2022_Mar_29_1153,Real-fake-judgement-flashing-group1,2021.1.2
135,Trial # 133,Group1-stimuli/group1-block1/fake-group2-b1/encoded_Group2_IMG_7351.jpg,0,encoded_Group2_IMG_7351.jpg,,,,,0.0,132.0,132.0,132.0,,,,,,,,,,,,,,,,,,,634.1978333339794,None,,,0,0.3156171560403891,636.6648518499569,None,636.6648518499569,None,,,635.4978134559933,None,,,,,1,2022_Mar_29_1153,Real-fake-judgement-flashing-group1,2021.1.2
136,Trial # 134,Group1-stimuli/group1-block1/fake-group2-b1/encoded_Group2_IMG_0416.jpg,0,encoded_Group2_IMG_0416.jpg,,,,,0.0,133.0,133.0,133.0,,,,,,,,,,,,,,,,,,,636.9994252939941,None,,,0,0.2825940640177578,639.4658582779812,None,639.4658582779812,None,,,638.2992104229634,None,,,,,1,2022_Mar_29_1153,Real-fake-judgement-flashing-group1,2021.1.2
137,Trial # 135,Group1-stimuli/group1-block1/fake-group2-b1/encoded_Group2_IMG_0139.jpg,0,encoded_Group2_IMG_0139.jpg,,,,,0.0,134.0,134.0,134.0,,,,,,,,,,,,,,,,,,,639.7658875769703,None,,,0,1.305250340024941,642.2511913439957,None,642.2511913439957,None,,,641.0662271459587,None,,,,,1,2022_Mar_29_1153,Real-fake-judgement-flashing-group1,2021.1.2
138,Trial # 136,Group1-stimuli/group1-block1/real-group1-b1/Group1_IMG_9677.jpg,1,Group1_IMG_9677.jpg,,,,,0.0,135.0,135.0,135.0,,,,,,,,,,,,,,,,,,,643.5843290939811,None,,,0,0.1047231339616701,646.067717089958,None,646.067717089958,None,,,644.9674094200018,None,,,,,1,2022_Mar_29_1153,Real-fake-judgement-flashing-group1,2021.1.2
139,Trial # 137,Group1-stimuli/group1-block1/fake-group2-b1/encoded_Group2_IMG_5982.jpg,0,encoded_Group2_IMG_5982.jpg,,,,,0.0,136.0,136.0,136.0,,,,,,,,,,,,,,,,,,,646.2011999390088,None,,,0,1.7432962709572166,648.6531443059794,None,648.6531443059794,None,,,647.4858515899978,None,,,,,1,2022_Mar_29_1153,Real-fake-judgement-flashing-group1,2021.1.2
140,Trial # 138,Group1-stimuli/group1-block1/fake-group2-b1/encoded_Group2_IMG_1144.jpg,0,encoded_Group2_IMG_1144.jpg,,,,,0.0,137.0,137.0,137.0,,,,,,,,,,,,,,,,,,,650.4196403559763,None,,,1,0.1961220569792203,652.9043239289895,None,652.9043239289895,None,,,651.7206426089979,None,,,,,1,2022_Mar_29_1153,Real-fake-judgement-flashing-group1,2021.1.2
141,Trial # 139,Group1-stimuli/group1-block1/fake-group2-b1/encoded_Group2_IMG_0315.jpg,0,encoded_Group2_IMG_0315.jpg,,,,,0.0,138.0,138.0,138.0,,,,,,,,,,,,,,,,,,,653.1212134939851,None,,,1,0.2968401029938832,655.6035989350057,None,655.6035989350057,None,,,654.4370685630129,None,,,,,1,2022_Mar_29_1153,Real-fake-judgement-flashing-group1,2021.1.2
142,Trial # 140,Group1-stimuli/group1-block1/real-group1-b1/Group1_IMG_130.jpg,1,Group1_IMG_130.jpg,,,,,0.0,139.0,139.0,139.0,,,,,,,,,,,,,,,,,,,655.9211666809861,None,,,1,0.3516651020036079,658.404709563998,None,658.404709563998,None,,,657.2557988949702,None,,,,,1,2022_Mar_29_1153,Real-fake-judgement-flashing-group1,2021.1.2
143,Trial # 141,Group1-stimuli/group1-block1/real-group1-b1/Group1_IMG_0024.jpg,1,Group1_IMG_0024.jpg,,,,,0.0,140.0,140.0,140.0,,,,,,,,,,,,,,,,,,,658.7883189250133,None,,,0,0.2844812840339727,661.2559010719997,None,661.2559010719997,None,,,660.0888062489685,None,,,,,1,2022_Mar_29_1153,Real-fake-judgement-flashing-group1,2021.1.2
144,Trial # 142,Group1-stimuli/group1-block1/fake-group2-b1/encoded_Group2_IMG_5012.jpg,0,encoded_Group2_IMG_5012.jpg,,,,,0.0,141.0,141.0,141.0,,,,,,,,,,,,,,,,,,,661.5729785749572,None,,,0,0.1163614179822616,664.0400797969778,None,664.0400797969778,None,,,662.8743114669924,None,,,,,1,2022_Mar_29_1153,Real-fake-judgement-flashing-group1,2021.1.2
145,Trial # 143,Group1-stimuli/group1-block1/fake-group2-b1/encoded_Group2_IMG_0209.jpg,0,encoded_Group2_IMG_0209.jpg,,,,,0.0,142.0,142.0,142.0,,,,,,,,,,,,,,,,,,,664.1732749989606,None,,,1,0.3068507969728671,666.6575917879818,None,666.6575917879818,None,,,665.4737521279603,None,,,,,1,2022_Mar_29_1153,Real-fake-judgement-flashing-group1,2021.1.2
146,Trial # 144,Group1-stimuli/group1-block1/real-group1-b1/Group1_IMG_0373.jpg,1,Group1_IMG_0373.jpg,,,,,0.0,143.0,143.0,143.0,,,,,,,,,,,,,,,,,,,666.9911111369729,None,,,1,0.8653980540111661,669.4750531709869,None,669.4750531709869,None,,,668.3092394960113,None,,,,,1,2022_Mar_29_1153,Real-fake-judgement-flashing-group1,2021.1.2
147,Trial # 145,Group1-stimuli/group1-block1/real-group1-b1/Group1_IMG_5899.jpg,1,Group1_IMG_5899.jpg,,,,,0.0,144.0,144.0,144.0,,,,,,,,,,,,,,,,,,,670.3585220059613,None,,,1,0.6170726139680482,672.8273284909665,None,672.8273284909665,None,,,671.6590266359854,None,,,,,1,2022_Mar_29_1153,Real-fake-judgement-flashing-group1,2021.1.2
148,Trial # 146,Group1-stimuli/group1-block1/real-group1-b1/Group1_IMG_0162.jpg,1,Group1_IMG_0162.jpg,,,,,0.0,145.0,145.0,145.0,,,,,,,,,,,,,,,,,,,673.4761050679954,None,,,1,0.2600777950137853,675.9603718459839,None,675.9603718459839,None,,,674.7942821559845,None,,,,,1,2022_Mar_29_1153,Real-fake-judgement-flashing-group1,2021.1.2
149,Trial # 147,Group1-stimuli/group1-block1/real-group1-b1/Group1_IMG_0543.jpg,1,Group1_IMG_0543.jpg,,,,,0.0,146.0,146.0,146.0,,,,,,,,,,,,,,,,,,,676.2437255620025,None,,,1,0.2522290039923973,678.7122117260005,None,678.7122117260005,None,,,677.5621686849627,None,,,,,1,2022_Mar_29_1153,Real-fake-judgement-flashing-group1,2021.1.2
150,Trial # 148,Group1-stimuli/group1-block1/fake-group2-b1/encoded_Group2_IMG_0355.jpg,0,encoded_Group2_IMG_0355.jpg,,,,,0.0,147.0,147.0,147.0,,,,,,,,,,,,,,,,,,,678.995933639002,None,,,1,0.3733130189939402,681.4951398400008,None,681.4951398400008,None,,,680.3118242869969,None,,,,,1,2022_Mar_29_1153,Real-fake-judgement-flashing-group1,2021.1.2
151,Trial # 149,Group1-stimuli/group1-block1/real-group1-b1/Group1_IMG_9765.jpg,1,Group1_IMG_9765.jpg,,,,,0.0,148.0,148.0,148.0,,,,,,,,,,,,,,,,,,,681.8969546139706,None,,,1,2.3446977810235694,684.3797944369726,None,684.3797944369726,None,,,683.1972542479634,None,,,,,1,2022_Mar_29_1153,Real-fake-judgement-flashing-group1,2021.1.2
152,Trial # 150,Group1-stimuli/group1-block1/fake-group2-b1/encoded_Group2_IMG_1378.jpg,0,encoded_Group2_IMG_1378.jpg,,,,,0.0,149.0,149.0,149.0,,,,,,,,,,,,,,,,,,,686.7472768379957,None,,,0,0.3330973149859346,689.2313388729817,None,689.2313388729817,None,,,688.0652596600121,None,,,,,1,2022_Mar_29_1153,Real-fake-judgement-flashing-group1,2021.1.2
153,Trial # 1,Group1-stimuli/group1-block2/fake-group2-b2/encoded_Group2_IMG_0155.jpg,0,encoded_Group2_IMG_0155.jpg,,,,,,,,,0.0,0.0,0.0,0.0,,,,,,,,,,,,,,,703.2523283049813,None,,,0,1.326212376006879,705.6862264369847,None,705.6862264369847,None,693.8869441149873,None,704.5201607049676,None,689.5814588089706,None,,,1,2022_Mar_29_1153,Real-fake-judgement-flashing-group1,2021.1.2
154,Trial # 2,Group1-stimuli/group1-block2/real-group1-b2/Group1_IMG_0519.jpg,1,Group1_IMG_0519.jpg,,,,,,,,,0.0,1.0,1.0,1.0,,,,,,,,,,,,,,,707.0369005539687,None,,,0,0.123543233028613,709.5209001699695,None,709.5209001699695,None,,,708.355045208009,None,,,,,1,2022_Mar_29_1153,Real-fake-judgement-flashing-group1,2021.1.2
155,Trial # 3,Group1-stimuli/group1-block2/fake-group2-b2/encoded_Group2_IMG_0135.jpg,0,encoded_Group2_IMG_0135.jpg,,,,,,,,,0.0,2.0,2.0,2.0,,,,,,,,,,,,,,,709.6708638789714,None,,,0,0.0570338090183213,712.155408599996,None,712.155408599996,None,,,710.987973899988,None,,,,,1,2022_Mar_29_1153,Real-fake-judgement-flashing-group1,2021.1.2
156,Trial # 4,Group1-stimuli/group1-block2/real-group1-b2/Group1_IMG_5310.jpg,1,Group1_IMG_5310.jpg,,,,,,,,,0.0,3.0,3.0,3.0,,,,,,,,,,,,,,,712.2389367379947,None,,,1,0.0574375430005602,714.7390018230071,None,714.7390018230071,None,,,713.5560971829691,None,,,,,1,2022_Mar_29_1153,Real-fake-judgement-flashing-group1,2021.1.2
157,Trial # 5,Group1-stimuli/group1-block2/real-group1-b2/Group1_IMG_0522.jpg,1,Group1_IMG_0522.jpg,,,,,,,,,0.0,4.0,4.0,4.0,,,,,,,,,,,,,,,714.8227593699703,None,,,1,0.5454979109927081,717.2909494029591,None,717.2909494029591,None,,,716.139182659972,None,,,,,1,2022_Mar_29_1153,Real-fake-judgement-flashing-group1,2021.1.2
158,Trial # 6,Group1-stimuli/group1-block2/fake-group2-b2/encoded_Group2_IMG_0484.jpg,0,encoded_Group2_IMG_0484.jpg,,,,,,,,,0.0,5.0,5.0,5.0,,,,,,,,,,,,,,,717.8576655139914,None,,,1,0.2787992390221916,720.357518173987,None,720.357518173987,None,,,719.1737005260075,None,,,,,1,2022_Mar_29_1153,Real-fake-judgement-flashing-group1,2021.1.2
159,Trial # 7,Group1-stimuli/group1-block2/fake-group2-b2/encoded_Group2_IMG_5948.jpg,0,encoded_Group2_IMG_5948.jpg,,,,,,,,,0.0,6.0,6.0,6.0,,,,,,,,,,,,,,,720.6569690539618,None,,,1,0.2787216670112684,723.125649449008,None,723.125649449008,None,,,721.959075169987,None,,,,,1,2022_Mar_29_1153,Real-fake-judgement-flashing-group1,2021.1.2
160,Trial # 8,Group1-stimuli/group1-block2/fake-group2-b2/encoded_Group2_IMG_3591.jpg,0,encoded_Group2_IMG_3591.jpg,,,,,,,,,0.0,7.0,7.0,7.0,,,,,,,,,,,,,,,723.4258967929636,None,,,0,0.0462985240155831,725.9260148659814,None,725.9260148659814,None,,,724.7427113199956,None,,,,,1,2022_Mar_29_1153,Real-fake-judgement-flashing-group1,2021.1.2
161,Trial # 9,Group1-stimuli/group1-block2/real-group1-b2/Group1_IMG_9835.jpg,1,Group1_IMG_9835.jpg,,,,,,,,,0.0,8.0,8.0,8.0,,,,,,,,,,,,,,,725.9919680739986,None,,,1,0.6634789980016649,728.4609826540109,None,728.4609826540109,None,,,727.310637766961,None,,,,,1,2022_Mar_29_1153,Real-fake-judgement-flashing-group1,2021.1.2
162,Trial # 10,Group1-stimuli/group1-block2/real-group1-b2/Group1_IMG_0556.jpg,1,Group1_IMG_0556.jpg,,,,,,,,,0.0,9.0,9.0,9.0,,,,,,,,,,,,,,,729.143321999989,None,,,1,0.2411388109903782,731.6273381129722,None,731.6273381129722,None,,,730.577136695967,None,,,,,1,2022_Mar_29_1153,Real-fake-judgement-flashing-group1,2021.1.2
163,Trial # 11,Group1-stimuli/group1-block2/fake-group2-b2/encoded_Group2_IMG_9736.jpg,0,encoded_Group2_IMG_9736.jpg,,,,,,,,,0.0,10.0,10.0,10.0,,,,,,,,,,,,,,,731.8958755109925,None,,,0,0.3300932460115291,734.3783953079837,None,734.3783953079837,None,,,733.2123100939789,None,,,,,1,2022_Mar_29_1153,Real-fake-judgement-flashing-group1,2021.1.2
164,Trial # 12,Group1-stimuli/group1-block2/real-group1-b2/Group1_IMG_9867.jpg,1,Group1_IMG_9867.jpg,,,,,,,,,0.0,11.0,11.0,11.0,,,,,,,,,,,,,,,734.7285255439929,None,,,0,0.7358426259597763,737.196560730983,None,737.196560730983,None,,,736.0453274499741,None,,,,,1,2022_Mar_29_1153,Real-fake-judgement-flashing-group1,2021.1.2
165,Trial # 13,Group1-stimuli/group1-block2/fake-group2-b2/encoded_Group2_IMG_9886.jpg,0,encoded_Group2_IMG_9886.jpg,,,,,,,,,0.0,12.0,12.0,12.0,,,,,,,,,,,,,,,737.9640265179914,None,,,0,0.093587185954675,740.4468856779858,None,740.4468856779858,None,,,739.2799331530114,None,,,,,1,2022_Mar_29_1153,Real-fake-judgement-flashing-group1,2021.1.2
166,Trial # 14,Group1-stimuli/group1-block2/fake-group2-b2/encoded_Group2_IMG_2245.jpg,0,encoded_Group2_IMG_2245.jpg,,,,,,,,,0.0,13.0,13.0,13.0,,,,,,,,,,,,,,,740.5641976069892,None,,,1,0.2434732579858973,743.048967028968,None,743.048967028968,None,,,741.865221488988,None,,,,,1,2022_Mar_29_1153,Real-fake-judgement-flashing-group1,2021.1.2
167,Trial # 15,Group1-stimuli/group1-block2/fake-group2-b2/encoded_Group2_IMG_0507.jpg,0,encoded_Group2_IMG_0507.jpg,,,,,,,,,0.0,14.0,14.0,14.0,,,,,,,,,,,,,,,743.3159840609878,None,,,1,0.3498202500049956,745.7986304739607,None,745.7986304739607,None,,,744.6322340469924,None,,,,,1,2022_Mar_29_1153,Real-fake-judgement-flashing-group1,2021.1.2
168,Trial # 16,Group1-stimuli/group1-block2/fake-group2-b2/encoded_Group2_IMG_0338.jpg,0,encoded_Group2_IMG_0338.jpg,,,,,,,,,0.0,15.0,15.0,15.0,,,,,,,,,,,,,,,746.165630034986,None,,,1,0.2342147649615071,748.6341561040026,None,748.6341561040026,None,,,747.4834767879802,None,,,,,1,2022_Mar_29_1153,Real-fake-judgement-flashing-group1,2021.1.2
169,Trial # 17,Group1-stimuli/group1-block2/real-group1-b2/Group1_IMG_0376.jpg,1,Group1_IMG_0376.jpg,,,,,,,,,0.0,16.0,16.0,16.0,,,,,,,,,,,,,,,748.9006688119844,None,,,1,0.108642526960466,751.3837992390036,None,751.3837992390036,None,,,750.2330278119771,None,,,,,1,2022_Mar_29_1153,Real-fake-judgement-flashing-group1,2021.1.2
170,Trial # 18,Group1-stimuli/group1-block2/real-group1-b2/Group1_IMG_9821.jpg,1,Group1_IMG_9821.jpg,,,,,,,,,0.0,17.0,17.0,17.0,,,,,,,,,,,,,,,751.5171410319745,None,,,0,0.0591158550232648,754.0013245139853,None,754.0013245139853,None,,,752.8186411570059,None,,,,,1,2022_Mar_29_1153,Real-fake-judgement-flashing-group1,2021.1.2
171,Trial # 19,Group1-stimuli/group1-block2/fake-group2-b2/encoded_Group2_IMG_0388.jpg,0,encoded_Group2_IMG_0388.jpg,,,,,,,,,0.0,18.0,18.0,18.0,,,,,,,,,,,,,,,754.0849300969858,None,,,1,0.2041982689988799,756.5521346469759,None,756.5521346469759,None,,,755.3850634109695,None,,,,,1,2022_Mar_29_1153,Real-fake-judgement-flashing-group1,2021.1.2
172,Trial # 20,Group1-stimuli/group1-block2/fake-group2-b2/encoded_Group2_IMG_0222.jpg,0,encoded_Group2_IMG_0222.jpg,,,,,,,,,0.0,19.0,19.0,19.0,,,,,,,,,,,,,,,756.7864775059861,None,,,0,0.0218852469697594,759.2864290099824,None,759.2864290099824,None,,,758.102842283959,None,,,,,1,2022_Mar_29_1153,Real-fake-judgement-flashing-group1,2021.1.2
173,Trial # 21,Group1-stimuli/group1-block2/fake-group2-b2/encoded_Group2_IMG_2215.jpg,0,encoded_Group2_IMG_2215.jpg,,,,,,,,,0.0,20.0,20.0,20.0,,,,,,,,,,,,,,,759.336398593965,None,,,1,0.2645641629933379,761.8037498070044,None,761.8037498070044,None,,,760.6367303999723,None,,,,,1,2022_Mar_29_1153,Real-fake-judgement-flashing-group1,2021.1.2
174,Trial # 22,Group1-stimuli/group1-block2/real-group1-b2/Group1_IMG_9760.jpg,1,Group1_IMG_9760.jpg,,,,,,,,,0.0,21.0,21.0,21.0,,,,,,,,,,,,,,,762.0879797379603,None,,,1,0.2252702389960177,764.5711924830102,None,764.5711924830102,None,,,763.554056199966,None,,,,,1,2022_Mar_29_1153,Real-fake-judgement-flashing-group1,2021.1.2
175,Trial # 23,Group1-stimuli/group1-block2/real-group1-b2/Group1_IMG_9897.jpg,1,Group1_IMG_9897.jpg,,,,,,,,,0.0,22.0,22.0,22.0,,,,,,,,,,,,,,,764.821276513976,None,,,1,0.3952892710221931,767.2891701729968,None,767.2891701729968,None,,,766.1382692829939,None,,,,,1,2022_Mar_29_1153,Real-fake-judgement-flashing-group1,2021.1.2
176,Trial # 24,Group1-stimuli/group1-block2/real-group1-b2/Group1_IMG_4250.jpg,1,Group1_IMG_4250.jpg,,,,,,,,,0.0,23.0,23.0,23.0,,,,,,,,,,,,,,,767.706460558984,None,,,1,2.4862659630016424,770.20610545401,None,770.20610545401,None,,,769.0723829669878,None,,,,,1,2022_Mar_29_1153,Real-fake-judgement-flashing-group1,2021.1.2
177,Trial # 25,Group1-stimuli/group1-block2/real-group1-b2/Group1_IMG_2244.jpg,1,Group1_IMG_2244.jpg,,,,,,,,,0.0,24.0,24.0,24.0,,,,,,,,,,,,,,,772.7240886269719,None,,,1,0.3252090539899654,775.1912264410057,None,775.1912264410057,None,,,774.0239725369611,None,,,,,1,2022_Mar_29_1153,Real-fake-judgement-flashing-group1,2021.1.2
178,Trial # 26,Group1-stimuli/group1-block2/fake-group2-b2/encoded_Group2_IMG_0501.jpg,0,encoded_Group2_IMG_0501.jpg,,,,,,,,,0.0,25.0,25.0,25.0,,,,,,,,,,,,,,,775.5411923690117,None,,,1,0.2985365479835309,778.0099128179718,None,778.0099128179718,None,,,776.8594001589809,None,,,,,1,2022_Mar_29_1153,Real-fake-judgement-flashing-group1,2021.1.2
179,Trial # 27,Group1-stimuli/group1-block2/real-group1-b2/Group1_IMG_9684.jpg,1,Group1_IMG_9684.jpg,,,,,,,,,0.0,26.0,26.0,26.0,,,,,,,,,,,,,,,778.3261714630062,None,,,1,0.1147365430369973,780.8096052719629,None,780.8096052719629,None,,,779.6424540819717,None,,,,,1,2022_Mar_29_1153,Real-fake-judgement-flashing-group1,2021.1.2
180,Trial # 28,Group1-stimuli/group1-block2/real-group1-b2/Group1_IMG_1039.jpg,1,Group1_IMG_1039.jpg,,,,,,,,,0.0,27.0,27.0,27.0,,,,,,,,,,,,,,,780.9429934149957,None,,,1,0.4099196660099551,783.4105171500123,None,783.4105171500123,None,,,782.2610452249646,None,,,,,1,2022_Mar_29_1153,Real-fake-judgement-flashing-group1,2021.1.2
181,Trial # 29,Group1-stimuli/group1-block2/fake-group2-b2/encoded_Group2_IMG_0251.jpg,0,encoded_Group2_IMG_0251.jpg,,,,,,,,,0.0,28.0,28.0,28.0,,,,,,,,,,,,,,,783.8440200749901,None,,,0,0.0685754939913749,786.327879000979,None,786.327879000979,None,,,785.1439837919897,None,,,,,1,2022_Mar_29_1153,Real-fake-judgement-flashing-group1,2021.1.2
182,Trial # 30,Group1-stimuli/group1-block2/real-group1-b2/Group1_IMG_9692.jpg,1,Group1_IMG_9692.jpg,,,,,,,,,0.0,29.0,29.0,29.0,,,,,,,,,,,,,,,786.4277396749821,None,,,0,1.1562799520324916,788.912034576002,None,788.912034576002,None,,,787.7294177679578,None,,,,,1,2022_Mar_29_1153,Real-fake-judgement-flashing-group1,2021.1.2
183,Trial # 31,Group1-stimuli/group1-block2/real-group1-b2/Group1_IMG_0512.jpg,1,Group1_IMG_0512.jpg,,,,,,,,,0.0,30.0,30.0,30.0,,,,,,,,,,,,,,,790.0956452940009,None,,,1,1.1201414169627242,792.5802338770009,None,792.5802338770009,None,,,791.4129735300085,None,,,,,1,2022_Mar_29_1153,Real-fake-judgement-flashing-group1,2021.1.2
184,Trial # 32,Group1-stimuli/group1-block2/fake-group2-b2/encoded_Group2_IMG_9673.jpg,0,encoded_Group2_IMG_9673.jpg,,,,,,,,,0.0,31.0,31.0,31.0,,,,,,,,,,,,,,,793.7307389049674,None,,,1,0.7492790249525569,796.2311179499957,None,796.2311179499957,None,,,795.0471306549734,None,,,,,1,2022_Mar_29_1153,Real-fake-judgement-flashing-group1,2021.1.2
185,Trial # 33,Group1-stimuli/group1-block2/fake-group2-b2/encoded_Group2_IMG_5135.jpg,0,encoded_Group2_IMG_5135.jpg,,,,,,,,,0.0,32.0,32.0,32.0,,,,,,,,,,,,,,,796.9988445719937,None,,,0,1.0103266300284304,799.4821200369624,None,799.4821200369624,None,,,798.3161472029751,None,,,,,1,2022_Mar_29_1153,Real-fake-judgement-flashing-group1,2021.1.2
186,Trial # 34,Group1-stimuli/group1-block2/real-group1-b2/Group1_IMG_0396.jpg,1,Group1_IMG_0396.jpg,,,,,,,,,0.0,33.0,33.0,33.0,,,,,,,,,,,,,,,800.5159404340084,None,,,0,0.4354803019668907,803.0009648799896,None,803.0009648799896,None,,,801.9173022310133,None,,,,,1,2022_Mar_29_1153,Real-fake-judgement-flashing-group1,2021.1.2
187,Trial # 35,Group1-stimuli/group1-block2/real-group1-b2/Group1_IMG_4919.jpg,1,Group1_IMG_4919.jpg,,,,,,,,,0.0,34.0,34.0,34.0,,,,,,,,,,,,,,,803.4666640110081,None,,,1,0.8770931030157954,805.9673477089964,None,805.9673477089964,None,,,804.8337927829707,None,,,,,1,2022_Mar_29_1153,Real-fake-judgement-flashing-group1,2021.1.2
188,Trial # 36,Group1-stimuli/group1-block2/real-group1-b2/Group1_IMG_0449.jpg,1,Group1_IMG_0449.jpg,,,,,,,,,0.0,35.0,35.0,35.0,,,,,,,,,,,,,,,806.8679897270049,None,,,1,0.3801456809742376,809.3683108729892,None,809.3683108729892,None,,,808.1858124390128,None,,,,,1,2022_Mar_29_1153,Real-fake-judgement-flashing-group1,2021.1.2
189,Trial # 37,Group1-stimuli/group1-block2/fake-group2-b2/encoded_Group2_IMG_0539.jpg,0,encoded_Group2_IMG_0539.jpg,,,,,,,,,0.0,36.0,36.0,36.0,,,,,,,,,,,,,,,809.7688723789761,None,,,0,0.4387583339703269,812.2536871889606,None,812.2536871889606,None,,,811.0854517180123,None,,,,,1,2022_Mar_29_1153,Real-fake-judgement-flashing-group1,2021.1.2
190,Trial # 38,Group1-stimuli/group1-block2/real-group1-b2/Group1_IMG_0453.jpg,1,Group1_IMG_0453.jpg,,,,,,,,,0.0,37.0,37.0,37.0,,,,,,,,,,,,,,,812.7199425849831,None,,,1,1.416858084034175,815.2036224359763,None,815.2036224359763,None,,,814.0363826439716,None,,,,,1,2022_Mar_29_1153,Real-fake-judgement-flashing-group1,2021.1.2
191,Trial # 39,Group1-stimuli/group1-block2/fake-group2-b2/encoded_Group2_IMG_0318.jpg,0,encoded_Group2_IMG_0318.jpg,,,,,,,,,0.0,38.0,38.0,38.0,,,,,,,,,,,,,,,816.6378751089796,None,,,1,0.5950824209721759,819.1213574989815,None,819.1213574989815,None,,,817.955403135973,None,,,,,1,2022_Mar_29_1153,Real-fake-judgement-flashing-group1,2021.1.2
192,Trial # 40,Group1-stimuli/group1-block2/real-group1-b2/Group1_IMG_1678.jpg,1,Group1_IMG_1678.jpg,,,,,,,,,0.0,39.0,39.0,39.0,,,,,,,,,,,,,,,819.7390628379653,None,,,1,0.1823907319922,822.2059610399883,None,822.2059610399883,None,,,821.055238535977,None,,,,,1,2022_Mar_29_1153,Real-fake-judgement-flashing-group1,2021.1.2
193,Trial # 41,Group1-stimuli/group1-block2/fake-group2-b2/encoded_Group2_IMG_0325.jpg,0,encoded_Group2_IMG_0325.jpg,,,,,,,,,0.0,40.0,40.0,40.0,,,,,,,,,,,,,,,822.406247878971,None,,,0,0.0912064419826492,824.8731026139576,None,824.8731026139576,None,,,823.7060104199918,None,,,,,1,2022_Mar_29_1153,Real-fake-judgement-flashing-group1,2021.1.2
194,Trial # 42,Group1-stimuli/group1-block2/fake-group2-b2/encoded_Group2_IMG_9935.jpg,0,encoded_Group2_IMG_9935.jpg,,,,,,,,,0.0,41.0,41.0,41.0,,,,,,,,,,,,,,,824.990411937004,None,,,0,0.4333689530030824,827.4750225080061,None,827.4750225080061,None,,,826.3064482379705,None,,,,,1,2022_Mar_29_1153,Real-fake-judgement-flashing-group1,2021.1.2
195,Trial # 43,Group1-stimuli/group1-block2/fake-group2-b2/encoded_Group2_IMG_0308.jpg,0,encoded_Group2_IMG_0308.jpg,,,,,,,,,0.0,42.0,42.0,42.0,,,,,,,,,,,,,,,827.9409948620014,None,,,0,0.4265262950211763,830.4418623480015,None,830.4418623480015,None,,,829.2748617620091,None,,,,,1,2022_Mar_29_1153,Real-fake-judgement-flashing-group1,2021.1.2
196,Trial # 44,Group1-stimuli/group1-block2/real-group1-b2/Group1_IMG_0467.jpg,1,Group1_IMG_0467.jpg,,,,,,,,,0.0,43.0,43.0,43.0,,,,,,,,,,,,,,,830.8920371339773,None,,,1,0.17233996395953,833.3600640069926,None,833.3600640069926,None,,,832.2097228399944,None,,,,,1,2022_Mar_29_1153,Real-fake-judgement-flashing-group1,2021.1.2
197,Trial # 45,Group1-stimuli/group1-block2/fake-group2-b2/encoded_Group2_IMG_9839.jpg,0,encoded_Group2_IMG_9839.jpg,,,,,,,,,0.0,44.0,44.0,44.0,,,,,,,,,,,,,,,833.5595997509663,None,,,1,0.4174721449962817,836.0429320259718,None,836.0429320259718,None,,,834.8761564560118,None,,,,,1,2022_Mar_29_1153,Real-fake-judgement-flashing-group1,2021.1.2
198,Trial # 46,Group1-stimuli/group1-block2/fake-group2-b2/encoded_Group2_IMG_9681.jpg,0,encoded_Group2_IMG_9681.jpg,,,,,,,,,0.0,45.0,45.0,45.0,,,,,,,,,,,,,,,836.4764307959704,None,,,0,2.0116397159872577,838.9608520569745,None,838.9608520569745,None,,,837.7950109879603,None,,,,,1,2022_Mar_29_1153,Real-fake-judgement-flashing-group1,2021.1.2
199,Trial # 47,Group1-stimuli/group1-block2/fake-group2-b2/encoded_Group2_IMG_0458.jpg,0,encoded_Group2_IMG_0458.jpg,,,,,,,,,0.0,46.0,46.0,46.0,,,,,,,,,,,,,,,840.9946258449927,None,,,1,0.6625912199961022,843.4618485049577,None,843.4618485049577,None,,,842.278541889973,None,,,,,1,2022_Mar_29_1153,Real-fake-judgement-flashing-group1,2021.1.2
200,Trial # 48,Group1-stimuli/group1-block2/real-group1-b2/Group1_IMG_1095.jpg,1,Group1_IMG_1095.jpg,,,,,,,,,0.0,47.0,47.0,47.0,,,,,,,,,,,,,,,844.1457520679687,None,,,1,1.502767892961856,846.6296709490125,None,846.6296709490125,None,,,845.4627350479714,None,,,,,1,2022_Mar_29_1153,Real-fake-judgement-flashing-group1,2021.1.2
201,Trial # 49,Group1-stimuli/group1-block2/fake-group2-b2/encoded_Group2_IMG_9710.jpg,0,encoded_Group2_IMG_9710.jpg,,,,,,,,,0.0,48.0,48.0,48.0,,,,,,,,,,,,,,,848.1647871999885,None,,,0,0.0772947589866817,850.6471455869614,None,850.6471455869614,None,,,849.4806224720087,None,,,,,1,2022_Mar_29_1153,Real-fake-judgement-flashing-group1,2021.1.2
202,Trial # 50,Group1-stimuli/group1-block2/fake-group2-b2/encoded_Group2_IMG_9819.jpg,0,encoded_Group2_IMG_9819.jpg,,,,,,,,,0.0,49.0,49.0,49.0,,,,,,,,,,,,,,,850.748129799962,None,,,0,0.2844397129956633,853.2160375629901,None,853.2160375629901,None,,,852.066010657989,None,,,,,1,2022_Mar_29_1153,Real-fake-judgement-flashing-group1,2021.1.2
203,Trial # 51,Group1-stimuli/group1-block2/real-group1-b2/Group1_IMG_0064.jpg,1,Group1_IMG_0064.jpg,,,,,,,,,0.0,50.0,50.0,50.0,,,,,,,,,,,,,,,853.5320758419693,None,,,1,1.5485402040067129,856.015930294001,None,856.015930294001,None,,,854.8491389040137,None,,,,,1,2022_Mar_29_1153,Real-fake-judgement-flashing-group1,2021.1.2
204,Trial # 52,Group1-stimuli/group1-block2/fake-group2-b2/encoded_Group2_IMG_9756.jpg,0,encoded_Group2_IMG_9756.jpg,,,,,,,,,0.0,51.0,51.0,51.0,,,,,,,,,,,,,,,857.584392660996,None,,,0,0.090088851051405,860.0503543119994,None,860.0503543119994,None,,,858.9002381360042,None,,,,,1,2022_Mar_29_1153,Real-fake-judgement-flashing-group1,2021.1.2
205,Trial # 53,Group1-stimuli/group1-block2/fake-group2-b2/encoded_Group2_IMG_5888.jpg,0,encoded_Group2_IMG_5888.jpg,,,,,,,,,0.0,52.0,52.0,52.0,,,,,,,,,,,,,,,860.1669756479678,None,,,1,0.2325325070414692,862.6358195479843,None,862.6358195479843,None,,,861.4681109609664,None,,,,,1,2022_Mar_29_1153,Real-fake-judgement-flashing-group1,2021.1.2
206,Trial # 54,Group1-stimuli/group1-block2/real-group1-b2/Group1_IMG_1476.jpg,1,Group1_IMG_1476.jpg,,,,,,,,,0.0,53.0,53.0,53.0,,,,,,,,,,,,,,,862.8853462410043,None,,,1,0.3862677949946373,865.3860981529579,None,865.3860981529579,None,,,864.2027238879818,None,,,,,1,2022_Mar_29_1153,Real-fake-judgement-flashing-group1,2021.1.2
207,Trial # 55,Group1-stimuli/group1-block2/real-group1-b2/Group1_IMG_1917.jpg,1,Group1_IMG_1917.jpg,,,,,,,,,0.0,54.0,54.0,54.0,,,,,,,,,,,,,,,865.8023126629996,None,,,0,0.109907530946657,868.2865319550037,None,868.2865319550037,None,,,867.1036865659989,None,,,,,1,2022_Mar_29_1153,Real-fake-judgement-flashing-group1,2021.1.2
208,Trial # 56,Group1-stimuli/group1-block2/real-group1-b2/Group1_IMG_0413.jpg,1,Group1_IMG_0413.jpg,,,,,,,,,0.0,55.0,55.0,55.0,,,,,,,,,,,,,,,868.4199860049994,None,,,1,0.8126205479493365,870.9038249030127,None,870.9038249030127,None,,,869.7541374049615,None,,,,,1,2022_Mar_29_1153,Real-fake-judgement-flashing-group1,2021.1.2
209,Trial # 57,Group1-stimuli/group1-block2/real-group1-b2/Group1_IMG_1001.jpg,1,Group1_IMG_1001.jpg,,,,,,,,,0.0,56.0,56.0,56.0,,,,,,,,,,,,,,,871.7373858719948,None,,,1,1.4155184490373358,874.2049379000091,None,874.2049379000091,None,,,873.1726403759676,None,,,,,1,2022_Mar_29_1153,Real-fake-judgement-flashing-group1,2021.1.2
210,Trial # 58,Group1-stimuli/group1-block2/fake-group2-b2/encoded_Group2_IMG_0441.jpg,0,encoded_Group2_IMG_0441.jpg,,,,,,,,,0.0,57.0,57.0,57.0,,,,,,,,,,,,,,,875.6395037499606,None,,,1,0.7608398940064944,878.1076092050062,None,878.1076092050062,None,,,876.9571047109785,None,,,,,1,2022_Mar_29_1153,Real-fake-judgement-flashing-group1,2021.1.2
211,Trial # 59,Group1-stimuli/group1-block2/real-group1-b2/Group1_IMG_9774.jpg,1,Group1_IMG_9774.jpg,,,,,,,,,0.0,58.0,58.0,58.0,,,,,,,,,,,,,,,878.8913044609944,None,,,0,0.4708695199806243,881.3735761819989,None,881.3735761819989,None,,,880.2234172229655,None,,,,,1,2022_Mar_29_1153,Real-fake-judgement-flashing-group1,2021.1.2
212,Trial # 60,Group1-stimuli/group1-block2/fake-group2-b2/encoded_Group2_IMG_2751.jpg,0,encoded_Group2_IMG_2751.jpg,,,,,,,,,0.0,59.0,59.0,59.0,,,,,,,,,,,,,,,881.8743206899962,None,,,0,0.0542538929730653,884.3581928909989,None,884.3581928909989,None,,,883.1756218919763,None,,,,,1,2022_Mar_29_1153,Real-fake-judgement-flashing-group1,2021.1.2
213,Trial # 61,Group1-stimuli/group1-block2/fake-group2-b2/encoded_Group2_IMG_0409.jpg,0,encoded_Group2_IMG_0409.jpg,,,,,,,,,0.0,60.0,60.0,60.0,,,,,,,,,,,,,,,884.4415391209768,None,,,0,0.0857595449779182,886.9267585150083,None,886.9267585150083,None,,,885.7582809429732,None,,,,,1,2022_Mar_29_1153,Real-fake-judgement-flashing-group1,2021.1.2
214,Trial # 62,Group1-stimuli/group1-block2/real-group1-b2/Group1_IMG_1346.jpg,1,Group1_IMG_1346.jpg,,,,,,,,,0.0,61.0,61.0,61.0,,,,,,,,,,,,,,,887.0436980680097,None,,,1,0.2462219009757973,889.5262175609823,None,889.5262175609823,None,,,888.3604650169727,None,,,,,1,2022_Mar_29_1153,Real-fake-judgement-flashing-group1,2021.1.2
215,Trial # 63,Group1-stimuli/group1-block2/real-group1-b2/Group1_IMG_0481.jpg,1,Group1_IMG_0481.jpg,,,,,,,,,0.0,62.0,62.0,62.0,,,,,,,,,,,,,,,889.7930728949723,None,,,1,1.054525098006707,892.2619147549849,None,892.2619147549849,None,,,891.0935609939625,None,,,,,1,2022_Mar_29_1153,Real-fake-judgement-flashing-group1,2021.1.2
216,Trial # 64,Group1-stimuli/group1-block2/fake-group2-b2/encoded_Group2_IMG_4718.jpg,0,encoded_Group2_IMG_4718.jpg,,,,,,,,,0.0,63.0,63.0,63.0,,,,,,,,,,,,,,,893.3453114180011,None,,,1,0.5281082529691048,895.8122161699575,None,895.8122161699575,None,,,894.6450098519563,None,,,,,1,2022_Mar_29_1153,Real-fake-judgement-flashing-group1,2021.1.2
217,Trial # 65,Group1-stimuli/group1-block2/real-group1-b2/Group1_IMG_0540.jpg,1,Group1_IMG_0540.jpg,,,,,,,,,0.0,64.0,64.0,64.0,,,,,,,,,,,,,,,896.3611151879886,None,,,1,1.4395083909621462,898.828818576003,None,898.828818576003,None,,,897.6800173899974,None,,,,,1,2022_Mar_29_1153,Real-fake-judgement-flashing-group1,2021.1.2
218,Trial # 66,Group1-stimuli/group1-block2/fake-group2-b2/encoded_Group2_IMG_0166.jpg,0,encoded_Group2_IMG_0166.jpg,,,,,,,,,0.0,65.0,65.0,65.0,,,,,,,,,,,,,,,900.2961434589815,None,,,1,0.5277458510245197,902.7646896080114,None,902.7646896080114,None,,,901.6134805330076,None,,,,,1,2022_Mar_29_1153,Real-fake-judgement-flashing-group1,2021.1.2
219,Trial # 67,Group1-stimuli/group1-block2/fake-group2-b2/encoded_Group2_IMG_0412.jpg,0,encoded_Group2_IMG_0412.jpg,,,,,,,,,0.0,66.0,66.0,66.0,,,,,,,,,,,,,,,903.3148166720056,None,,,0,0.3022933609900065,905.7981655279872,None,905.7981655279872,None,,,904.6141997639788,None,,,,,1,2022_Mar_29_1153,Real-fake-judgement-flashing-group1,2021.1.2
220,Trial # 68,Group1-stimuli/group1-block2/real-group1-b2/Group1_IMG_0485.jpg,1,Group1_IMG_0485.jpg,,,,,,,,,0.0,67.0,67.0,67.0,,,,,,,,,,,,,,,906.1317222469952,None,,,1,1.853426500048954,908.5990237389924,None,908.5990237389924,None,,,907.4496951389592,None,,,,,1,2022_Mar_29_1153,Real-fake-judgement-flashing-group1,2021.1.2
221,Trial # 69,Group1-stimuli/group1-block2/fake-group2-b2/encoded_Group2_IMG_1495.jpg,0,encoded_Group2_IMG_1495.jpg,,,,,,,,,0.0,68.0,68.0,68.0,,,,,,,,,,,,,,,910.4826989590074,None,,,1,0.8691464589792304,912.9513045009808,None,912.9513045009808,None,,,911.8011409089668,None,,,,,1,2022_Mar_29_1153,Real-fake-judgement-flashing-group1,2021.1.2
222,Trial # 70,Group1-stimuli/group1-block2/real-group1-b2/Group1_IMG_0426.jpg,1,Group1_IMG_0426.jpg,,,,,,,,,0.0,69.0,69.0,69.0,,,,,,,,,,,,,,,913.8516210640082,None,,,1,0.2450858810334466,916.351354184968,None,916.351354184968,None,,,915.1675231219853,None,,,,,1,2022_Mar_29_1153,Real-fake-judgement-flashing-group1,2021.1.2
223,Trial # 71,Group1-stimuli/group1-block2/real-group1-b2/Group1_IMG_0349.jpg,1,Group1_IMG_0349.jpg,,,,,,,,,0.0,70.0,70.0,70.0,,,,,,,,,,,,,,,916.6176426729652,None,,,1,0.16656276199501,919.101890200982,None,919.101890200982,None,,,917.935237308964,None,,,,,1,2022_Mar_29_1153,Real-fake-judgement-flashing-group1,2021.1.2
224,Trial # 72,Group1-stimuli/group1-block2/real-group1-b2/Group1_IMG_0414.jpg,1,Group1_IMG_0414.jpg,,,,,,,,,0.0,71.0,71.0,71.0,,,,,,,,,,,,,,,919.2857102009584,None,,,1,0.0975703799631446,921.7869020369836,None,921.7869020369836,None,,,920.602648333006,None,,,,,1,2022_Mar_29_1153,Real-fake-judgement-flashing-group1,2021.1.2
225,Trial # 73,Group1-stimuli/group1-block2/fake-group2-b2/encoded_Group2_IMG_9856.jpg,0,encoded_Group2_IMG_9856.jpg,,,,,,,,,0.0,72.0,72.0,72.0,,,,,,,,,,,,,,,921.9042963599786,None,,,0,0.1211041139904409,924.3873232019832,None,924.3873232019832,None,,,923.2214573469828,None,,,,,1,2022_Mar_29_1153,Real-fake-judgement-flashing-group1,2021.1.2
226,Trial # 74,Group1-stimuli/group1-block2/fake-group2-b2/encoded_Group2_IMG_5313.jpg,0,encoded_Group2_IMG_5313.jpg,,,,,,,,,0.0,73.0,73.0,73.0,,,,,,,,,,,,,,,924.5371207079734,None,,,1,0.0869995249668136,927.0054481709958,None,927.0054481709958,None,,,925.8543558300008,None,,,,,1,2022_Mar_29_1153,Real-fake-judgement-flashing-group1,2021.1.2
227,Trial # 75,Group1-stimuli/group1-block2/fake-group2-b2/encoded_Group2_IMG_0421.jpg,0,encoded_Group2_IMG_0421.jpg,,,,,,,,,0.0,74.0,74.0,74.0,,,,,,,,,,,,,,,927.1232058079912,None,,,0,0.1756531079881824,929.5887841609656,None,929.5887841609656,None,,,928.4218804750126,None,,,,,1,2022_Mar_29_1153,Real-fake-judgement-flashing-group1,2021.1.2
228,Trial # 76,Group1-stimuli/group1-block2/fake-group2-b2/encoded_Group2_IMG_0446.jpg,0,encoded_Group2_IMG_0446.jpg,,,,,,,,,0.0,75.0,75.0,75.0,,,,,,,,,,,,,,,929.788566385978,None,,,0,0.24287032202119,932.257617403986,None,932.257617403986,None,,,931.0891931129736,None,,,,,1,2022_Mar_29_1153,Real-fake-judgement-flashing-group1,2021.1.2
229,Trial # 77,Group1-stimuli/group1-block2/real-group1-b2/Group1_IMG_5999.jpg,1,Group1_IMG_5999.jpg,,,,,,,,,0.0,76.0,76.0,76.0,,,,,,,,,,,,,,,932.5240325129708,None,,,1,0.1015799430315382,935.0068600240048,None,935.0068600240048,None,,,933.8400638829916,None,,,,,1,2022_Mar_29_1153,Real-fake-judgement-flashing-group1,2021.1.2
230,Trial # 78,Group1-stimuli/group1-block2/real-group1-b2/Group1_IMG_0107.jpg,1,Group1_IMG_0107.jpg,,,,,,,,,0.0,77.0,77.0,77.0,,,,,,,,,,,,,,,935.140370927984,None,,,0,0.7156193160335533,937.608831090969,None,937.608831090969,None,,,936.4571332159684,None,,,,,1,2022_Mar_29_1153,Real-fake-judgement-flashing-group1,2021.1.2
231,Trial # 79,Group1-stimuli/group1-block2/fake-group2-b2/encoded_Group2_IMG_0322.jpg,0,encoded_Group2_IMG_0322.jpg,,,,,,,,,0.0,78.0,78.0,78.0,,,,,,,,,,,,,,,938.3417555469788,None,,,0,0.7541827299864963,940.842258405988,None,940.842258405988,None,,,939.659141406999,None,,,,,1,2022_Mar_29_1153,Real-fake-judgement-flashing-group1,2021.1.2
232,Trial # 80,Group1-stimuli/group1-block2/fake-group2-b2/encoded_Group2_IMG_4255.jpg,0,encoded_Group2_IMG_4255.jpg,,,,,,,,,0.0,79.0,79.0,79.0,,,,,,,,,,,,,,,941.626095574,None,,,1,0.1181620369898155,944.1102773919702,None,944.1102773919702,None,,,942.9437878979952,None,,,,,1,2022_Mar_29_1153,Real-fake-judgement-flashing-group1,2021.1.2
233,Trial # 81,Group1-stimuli/group1-block2/fake-group2-b2/encoded_Group2_IMG_0219.jpg,0,encoded_Group2_IMG_0219.jpg,,,,,,,,,0.0,80.0,80.0,80.0,,,,,,,,,,,,,,,944.2603402299574,None,,,0,0.1097646680427715,946.710675735958,None,946.710675735958,None,,,945.5438419349956,None,,,,,1,2022_Mar_29_1153,Real-fake-judgement-flashing-group1,2021.1.2
234,Trial # 82,Group1-stimuli/group1-block2/real-group1-b2/Group1_IMG_0548.jpg,1,Group1_IMG_0548.jpg,,,,,,,,,0.0,81.0,81.0,81.0,,,,,,,,,,,,,,,946.844647549966,None,,,0,0.716320059960708,949.3281135879806,None,949.3281135879806,None,,,948.1622889089632,None,,,,,1,2022_Mar_29_1153,Real-fake-judgement-flashing-group1,2021.1.2
235,Trial # 83,Group1-stimuli/group1-block2/real-group1-b2/Group1_IMG_0229.jpg,1,Group1_IMG_0229.jpg,,,,,,,,,0.0,82.0,82.0,82.0,,,,,,,,,,,,,,,950.0621496060048,None,,,1,0.1060996399610303,952.530338666984,None,952.530338666984,None,,,951.3613756319974,None,,,,,1,2022_Mar_29_1153,Real-fake-judgement-flashing-group1,2021.1.2
236,Trial # 84,Group1-stimuli/group1-block2/fake-group2-b2/encoded_Group2_IMG_0365.jpg,0,encoded_Group2_IMG_0365.jpg,,,,,,,,,0.0,83.0,83.0,83.0,,,,,,,,,,,,,,,952.6641274350112,None,,,0,0.8577841009828262,955.1467014760128,None,955.1467014760128,None,,,953.9807603689842,None,,,,,1,2022_Mar_29_1153,Real-fake-judgement-flashing-group1,2021.1.2
237,Trial # 85,Group1-stimuli/group1-block2/real-group1-b2/Group1_IMG_9822.jpg,1,Group1_IMG_9822.jpg,,,,,,,,,0.0,84.0,84.0,84.0,,,,,,,,,,,,,,,956.0303697679774,None,,,0,0.0582362179993651,958.4982037009904,None,958.4982037009904,None,,,957.3484976969776,None,,,,,1,2022_Mar_29_1153,Real-fake-judgement-flashing-group1,2021.1.2
238,Trial # 86,Group1-stimuli/group1-block2/fake-group2-b2/encoded_Group2_IMG_0195.jpg,0,encoded_Group2_IMG_0195.jpg,,,,,,,,,0.0,85.0,85.0,85.0,,,,,,,,,,,,,,,958.5823354509776,None,,,0,0.0593274839920923,961.0651133930078,None,961.0651133930078,None,,,959.8980525299556,None,,,,,1,2022_Mar_29_1153,Real-fake-judgement-flashing-group1,2021.1.2
239,Trial # 87,Group1-stimuli/group1-block2/fake-group2-b2/encoded_Group2_IMG_0494.jpg,0,encoded_Group2_IMG_0494.jpg,,,,,,,,,0.0,86.0,86.0,86.0,,,,,,,,,,,,,,,961.1483963269856,None,,,0,0.0843037529848516,963.6160719089676,None,963.6160719089676,None,,,962.4501058089664,None,,,,,1,2022_Mar_29_1153,Real-fake-judgement-flashing-group1,2021.1.2
240,Trial # 88,Group1-stimuli/group1-block2/real-group1-b2/Group1_IMG_0509.jpg,1,Group1_IMG_0509.jpg,,,,,,,,,0.0,87.0,87.0,87.0,,,,,,,,,,,,,,,963.7327856029732,None,,,1,0.1641296519665047,966.2002022239612,None,966.2002022239612,None,,,965.0330363059766,None,,,,,1,2022_Mar_29_1153,Real-fake-judgement-flashing-group1,2021.1.2
241,Trial # 89,Group1-stimuli/group1-block2/fake-group2-b2/encoded_Group2_IMG_8924.jpg,0,encoded_Group2_IMG_8924.jpg,,,,,,,,,0.0,88.0,88.0,88.0,,,,,,,,,,,,,,,966.3840067079872,None,,,0,3.609401678026188,968.8510391379824,None,968.8510391379824,None,,,967.6683400459588,None,,,,,1,2022_Mar_29_1153,Real-fake-judgement-flashing-group1,2021.1.2
242,Trial # 90,Group1-stimuli/group1-block2/real-group1-b2/Group1_IMG_0360.jpg,1,Group1_IMG_0360.jpg,,,,,,,,,0.0,89.0,89.0,89.0,,,,,,,,,,,,,,,972.48647484096,None,,,1,0.3707759570097551,974.969598494994,None,974.969598494994,None,,,973.802501936967,None,,,,,1,2022_Mar_29_1153,Real-fake-judgement-flashing-group1,2021.1.2
243,Trial # 91,Group1-stimuli/group1-block2/fake-group2-b2/encoded_Group2_IMG_0523.jpg,0,encoded_Group2_IMG_0523.jpg,,,,,,,,,0.0,90.0,90.0,90.0,,,,,,,,,,,,,,,975.3701177709736,None,,,0,0.2948926599929109,977.8375461180112,None,977.8375461180112,None,,,976.7361148999772,None,,,,,1,2022_Mar_29_1153,Real-fake-judgement-flashing-group1,2021.1.2
244,Trial # 92,Group1-stimuli/group1-block2/real-group1-b2/Group1_IMG_0518.jpg,1,Group1_IMG_0518.jpg,,,,,,,,,0.0,91.0,91.0,91.0,,,,,,,,,,,,,,,978.1542975889752,None,,,0,0.7984072489780374,980.6379572019796,None,980.6379572019796,None,,,979.4708138169954,None,,,,,1,2022_Mar_29_1153,Real-fake-judgement-flashing-group1,2021.1.2
245,Trial # 93,Group1-stimuli/group1-block2/fake-group2-b2/encoded_Group2_IMG_0372.jpg,0,encoded_Group2_IMG_0372.jpg,,,,,,,,,0.0,92.0,92.0,92.0,,,,,,,,,,,,,,,981.4548274779808,None,,,0,0.2980450830073096,983.9222961959896,None,983.9222961959896,None,,,982.756349030009,None,,,,,1,2022_Mar_29_1153,Real-fake-judgement-flashing-group1,2021.1.2
246,Trial # 94,Group1-stimuli/group1-block2/fake-group2-b2/encoded_Group2_IMG_9761.jpg,0,encoded_Group2_IMG_9761.jpg,,,,,,,,,0.0,93.0,93.0,93.0,,,,,,,,,,,,,,,984.2394225879688,None,,,0,0.4019534299732186,986.7064372010065,None,986.7064372010065,None,,,985.5391835200136,None,,,,,1,2022_Mar_29_1153,Real-fake-judgement-flashing-group1,2021.1.2
247,Trial # 95,Group1-stimuli/group1-block2/real-group1-b2/Group1_IMG_2690.jpg,1,Group1_IMG_2690.jpg,,,,,,,,,0.0,94.0,94.0,94.0,,,,,,,,,,,,,,,987.1403698049836,None,,,1,1.1075469549978152,989.6248916710028,None,989.6248916710028,None,,,988.4581620789832,None,,,,,1,2022_Mar_29_1153,Real-fake-judgement-flashing-group1,2021.1.2
248,Trial # 96,Group1-stimuli/group1-block2/real-group1-b2/Group1_IMG_9855.jpg,1,Group1_IMG_9855.jpg,,,,,,,,,0.0,95.0,95.0,95.0,,,,,,,,,,,,,,,990.7581907209824,None,,,1,0.1309967330307699,993.2254643389606,None,993.2254643389606,None,,,992.109236090968,None,,,,,1,2022_Mar_29_1153,Real-fake-judgement-flashing-group1,2021.1.2
249,Trial # 97,Group1-stimuli/group1-block2/fake-group2-b2/encoded_Group2_IMG_0470.jpg,0,encoded_Group2_IMG_0470.jpg,,,,,,,,,0.0,96.0,96.0,96.0,,,,,,,,,,,,,,,993.3762374770012,None,,,0,0.0170433029998093,995.8593256889726,None,995.8593256889726,None,,,994.675630115962,None,,,,,1,2022_Mar_29_1153,Real-fake-judgement-flashing-group1,2021.1.2
250,Trial # 98,Group1-stimuli/group1-block2/fake-group2-b2/encoded_Group2_IMG_1191.jpg,0,encoded_Group2_IMG_1191.jpg,,,,,,,,,0.0,97.0,97.0,97.0,,,,,,,,,,,,,,,995.9092451659964,None,,,0,0.802483236999251,998.3779713920084,None,998.3779713920084,None,,,997.2107764689716,None,,,,,1,2022_Mar_29_1153,Real-fake-judgement-flashing-group1,2021.1.2
251,Trial # 99,Group1-stimuli/group1-block2/real-group1-b2/Group1_IMG_9937.jpg,1,Group1_IMG_9937.jpg,,,,,,,,,0.0,98.0,98.0,98.0,,,,,,,,,,,,,,,999.2101699580088,None,,,0,0.5818386260070838,1001.6945088749636,None,1001.6945088749636,None,,,1000.5106238239678,None,,,,,1,2022_Mar_29_1153,Real-fake-judgement-flashing-group1,2021.1.2
252,Trial # 100,Group1-stimuli/group1-block2/fake-group2-b2/encoded_Group2_IMG_0106.jpg,0,encoded_Group2_IMG_0106.jpg,,,,,,,,,0.0,99.0,99.0,99.0,,,,,,,,,,,,,,,1002.2950707859708,None,,,0,0.0656521039782092,1004.7787863049888,None,1004.7787863049888,None,,,1003.596132481005,None,,,,,1,2022_Mar_29_1153,Real-fake-judgement-flashing-group1,2021.1.2
253,Trial # 101,Group1-stimuli/group1-block2/real-group1-b2/Group1_IMG_2790.jpg,1,Group1_IMG_2790.jpg,,,,,,,,,0.0,100.0,100.0,100.0,,,,,,,,,,,,,,,1004.8619878210012,None,,,0,0.0257198669714853,1007.330686811998,None,1007.330686811998,None,,,1006.1620160989696,None,,,,,1,2022_Mar_29_1153,Real-fake-judgement-flashing-group1,2021.1.2
254,Trial # 102,Group1-stimuli/group1-block2/real-group1-b2/Group1_IMG_9792.jpg,1,Group1_IMG_9792.jpg,,,,,,,,,0.0,101.0,101.0,101.0,,,,,,,,,,,,,,,1007.3808120889588,None,,,0,0.0607601010124199,1009.8636751779704,None,1009.8636751779704,None,,,1008.6977282610025,None,,,,,1,2022_Mar_29_1153,Real-fake-judgement-flashing-group1,2021.1.2
255,Trial # 103,Group1-stimuli/group1-block2/real-group1-b2/Group1_IMG_1640.jpg,1,Group1_IMG_1640.jpg,,,,,,,,,0.0,102.0,102.0,102.0,,,,,,,,,,,,,,,1009.9470575239976,None,,,1,0.5965187709662132,1012.4158746469766,None,1012.4158746469766,None,,,1011.2641744819704,None,,,,,1,2022_Mar_29_1153,Real-fake-judgement-flashing-group1,2021.1.2
256,Trial # 104,Group1-stimuli/group1-block2/real-group1-b2/Group1_IMG_0033.jpg,1,Group1_IMG_0033.jpg,,,,,,,,,0.0,103.0,103.0,103.0,,,,,,,,,,,,,,,1013.0363456769846,None,,,0,0.1127550179953686,1015.5156078349684,None,1015.5156078349684,None,,,1014.348477927968,None,,,,,1,2022_Mar_29_1153,Real-fake-judgement-flashing-group1,2021.1.2
257,Trial # 105,Group1-stimuli/group1-block2/real-group1-b2/Group1_IMG_0079.jpg,1,Group1_IMG_0079.jpg,,,,,,,,,0.0,104.0,104.0,104.0,,,,,,,,,,,,,,,1015.6491134089885,None,,,1,0.4224590169615112,1018.1340185810112,None,1018.1340185810112,None,,,1016.9661670789936,None,,,,,1,2022_Mar_29_1153,Real-fake-judgement-flashing-group1,2021.1.2
258,Trial # 106,Group1-stimuli/group1-block2/fake-group2-b2/encoded_Group2_IMG_9909.jpg,0,encoded_Group2_IMG_9909.jpg,,,,,,,,,0.0,105.0,105.0,105.0,,,,,,,,,,,,,,,1018.5834382119938,None,,,0,0.1289533649687655,1021.0675088780116,None,1021.0675088780116,None,,,1019.8997170949588,None,,,,,1,2022_Mar_29_1153,Real-fake-judgement-flashing-group1,2021.1.2
259,Trial # 107,Group1-stimuli/group1-block2/fake-group2-b2/encoded_Group2_IMG_0398.jpg,0,encoded_Group2_IMG_0398.jpg,,,,,,,,,0.0,106.0,106.0,106.0,,,,,,,,,,,,,,,1021.2172170680132,None,,,1,0.0959013109677471,1023.6845379929872,None,1023.6845379929872,None,,,1022.5019963739906,None,,,,,1,2022_Mar_29_1153,Real-fake-judgement-flashing-group1,2021.1.2
260,Trial # 108,Group1-stimuli/group1-block2/real-group1-b2/Group1_IMG_4268.jpg,1,Group1_IMG_4268.jpg,,,,,,,,,0.0,107.0,107.0,107.0,,,,,,,,,,,,,,,1023.8011589939706,None,,,1,1.0159410979831591,1026.2684057310107,None,1026.2684057310107,None,,,1025.1013149410137,None,,,,,1,2022_Mar_29_1153,Real-fake-judgement-flashing-group1,2021.1.2
261,Trial # 109,Group1-stimuli/group1-block2/fake-group2-b2/encoded_Group2_IMG_9321.jpg,0,encoded_Group2_IMG_9321.jpg,,,,,,,,,0.0,108.0,108.0,108.0,,,,,,,,,,,,,,,1027.3025505899568,None,,,0,0.1461323320399969,1029.7863068910085,None,1029.7863068910085,None,,,1028.619392115972,None,,,,,1,2022_Mar_29_1153,Real-fake-judgement-flashing-group1,2021.1.2
262,Trial # 110,Group1-stimuli/group1-block2/fake-group2-b2/encoded_Group2_IMG_9964.jpg,0,encoded_Group2_IMG_9964.jpg,,,,,,,,,0.0,109.0,109.0,109.0,,,,,,,,,,,,,,,1029.9533607439953,None,,,0,0.0637087720097042,1032.4207267519669,None,1032.4207267519669,None,,,1031.2530213069986,None,,,,,1,2022_Mar_29_1153,Real-fake-judgement-flashing-group1,2021.1.2
263,Trial # 111,Group1-stimuli/group1-block2/real-group1-b2/Group1_IMG_0329.jpg,1,Group1_IMG_0329.jpg,,,,,,,,,0.0,110.0,110.0,110.0,,,,,,,,,,,,,,,1032.5042235589935,None,,,0,0.5522689169738442,1034.9881688070018,None,1034.9881688070018,None,,,1033.8220779899857,None,,,,,1,2022_Mar_29_1153,Real-fake-judgement-flashing-group1,2021.1.2
264,Trial # 112,Group1-stimuli/group1-block2/fake-group2-b2/encoded_Group2_IMG_0534.jpg,0,encoded_Group2_IMG_0534.jpg,,,,,,,,,0.0,111.0,111.0,111.0,,,,,,,,,,,,,,,1035.572251755977,None,,,0,0.0682526779710315,1038.040264226962,None,1038.040264226962,None,,,1036.873236902,None,,,,,1,2022_Mar_29_1153,Real-fake-judgement-flashing-group1,2021.1.2
265,Trial # 113,Group1-stimuli/group1-block2/fake-group2-b2/encoded_Group2_IMG_0054.jpg,0,encoded_Group2_IMG_0054.jpg,,,,,,,,,0.0,112.0,112.0,112.0,,,,,,,,,,,,,,,1038.140119329968,None,,,0,0.1662990620243363,1040.606152819004,None,1040.606152819004,None,,,1039.4392627310008,None,,,,,1,2022_Mar_29_1153,Real-fake-judgement-flashing-group1,2021.1.2
266,Trial # 114,Group1-stimuli/group1-block2/real-group1-b2/Group1_IMG_9979.jpg,1,Group1_IMG_9979.jpg,,,,,,,,,0.0,113.0,113.0,113.0,,,,,,,,,,,,,,,1040.7900491349865,None,,,1,0.2019568959949538,1043.2584823479992,None,1043.2584823479992,None,,,1042.091111509013,None,,,,,1,2022_Mar_29_1153,Real-fake-judgement-flashing-group1,2021.1.2
267,Trial # 115,Group1-stimuli/group1-block2/real-group1-b2/Group1_IMG_0170.jpg,1,Group1_IMG_0170.jpg,,,,,,,,,0.0,114.0,114.0,114.0,,,,,,,,,,,,,,,1043.4906357100117,None,,,1,0.0856973310001194,1045.9747661759611,None,1045.9747661759611,None,,,1044.807726814004,None,,,,,1,2022_Mar_29_1153,Real-fake-judgement-flashing-group1,2021.1.2
268,Trial # 116,Group1-stimuli/group1-block2/fake-group2-b2/encoded_Group2_IMG_0007.jpg,0,encoded_Group2_IMG_0007.jpg,,,,,,,,,0.0,115.0,115.0,115.0,,,,,,,,,,,,,,,1046.0913866200135,None,,,0,0.0844062989926897,1048.559962645988,None,1048.559962645988,None,,,1047.3762319769594,None,,,,,1,2022_Mar_29_1153,Real-fake-judgement-flashing-group1,2021.1.2
269,Trial # 117,Group1-stimuli/group1-block2/real-group1-b2/Group1_IMG_0192.jpg,1,Group1_IMG_0192.jpg,,,,,,,,,0.0,116.0,116.0,116.0,,,,,,,,,,,,,,,1048.6767311950098,None,,,1,0.0847413379815407,1051.1596368949977,None,1051.1596368949977,None,,,1050.008908262011,None,,,,,1,2022_Mar_29_1153,Real-fake-judgement-flashing-group1,2021.1.2
270,Trial # 118,Group1-stimuli/group1-block2/real-group1-b2/Group1_IMG_9786.jpg,1,Group1_IMG_9786.jpg,,,,,,,,,0.0,117.0,117.0,117.0,,,,,,,,,,,,,,,1051.2759188580094,None,,,1,0.3712865530396811,1053.7611558299975,None,1053.7611558299975,None,,,1052.5943207489909,None,,,,,1,2022_Mar_29_1153,Real-fake-judgement-flashing-group1,2021.1.2
271,Trial # 119,Group1-stimuli/group1-block2/real-group1-b2/Group1_IMG_0187.jpg,1,Group1_IMG_0187.jpg,,,,,,,,,0.0,118.0,118.0,118.0,,,,,,,,,,,,,,,1054.160498149984,None,,,0,5.487781967967749,1056.6445720269694,None,1056.6445720269694,None,,,1055.4774171999888,None,,,,,1,2022_Mar_29_1153,Real-fake-judgement-flashing-group1,2021.1.2
272,Trial # 120,Group1-stimuli/group1-block2/fake-group2-b2/encoded_Group2_IMG_0249.jpg,0,encoded_Group2_IMG_0249.jpg,,,,,,,,,0.0,119.0,119.0,119.0,,,,,,,,,,,,,,,1062.1642298210063,None,,,0,0.2770827249623835,1064.6473547209753,None,1064.6473547209753,None,,,1063.4813800189877,None,,,,,1,2022_Mar_29_1153,Real-fake-judgement-flashing-group1,2021.1.2
273,Trial # 121,Group1-stimuli/group1-block2/fake-group2-b2/encoded_Group2_IMG_0074.jpg,0,encoded_Group2_IMG_0074.jpg,,,,,,,,,0.0,120.0,120.0,120.0,,,,,,,,,,,,,,,1064.9474582609837,None,,,1,0.0846261629485525,1067.4158158240025,None,1067.4158158240025,None,,,1066.247365004965,None,,,,,1,2022_Mar_29_1153,Real-fake-judgement-flashing-group1,2021.1.2
274,Trial # 122,Group1-stimuli/group1-block2/real-group1-b2/Group1_IMG_0243.jpg,1,Group1_IMG_0243.jpg,,,,,,,,,0.0,121.0,121.0,121.0,,,,,,,,,,,,,,,1067.5317770990075,None,,,1,0.2688412720453925,1070.015643680992,None,1070.015643680992,None,,,1068.9164416620042,None,,,,,1,2022_Mar_29_1153,Real-fake-judgement-flashing-group1,2021.1.2
275,Trial # 123,Group1-stimuli/group1-block2/real-group1-b2/Group1_IMG_0130.jpg,1,Group1_IMG_0130.jpg,,,,,,,,,0.0,122.0,122.0,122.0,,,,,,,,,,,,,,,1070.3164157829597,None,,,1,0.1003488459973596,1072.800091687997,None,1072.800091687997,None,,,1071.632104460965,None,,,,,1,2022_Mar_29_1153,Real-fake-judgement-flashing-group1,2021.1.2
276,Trial # 124,Group1-stimuli/group1-block2/real-group1-b2/Group1_IMG_0298.jpg,1,Group1_IMG_0298.jpg,,,,,,,,,0.0,123.0,123.0,123.0,,,,,,,,,,,,,,,1072.9177574070054,None,,,1,0.2358832749887369,1075.4005575279589,None,1075.4005575279589,None,,,1074.233422796009,None,,,,,1,2022_Mar_29_1153,Real-fake-judgement-flashing-group1,2021.1.2
277,Trial # 125,Group1-stimuli/group1-block2/real-group1-b2/Group1_IMG_5871.jpg,1,Group1_IMG_5871.jpg,,,,,,,,,0.0,124.0,124.0,124.0,,,,,,,,,,,,,,,1075.6675689399708,None,,,0,0.540522036026232,1078.1358112230082,None,1078.1358112230082,None,,,1076.985493968008,None,,,,,1,2022_Mar_29_1153,Real-fake-judgement-flashing-group1,2021.1.2
278,Trial # 126,Group1-stimuli/group1-block2/fake-group2-b2/encoded_Group2_IMG_0479.jpg,0,encoded_Group2_IMG_0479.jpg,,,,,,,,,0.0,125.0,125.0,125.0,,,,,,,,,,,,,,,1078.7020982899703,None,,,0,0.1945881330175325,1081.1858576840025,None,1081.1858576840025,None,,,1080.018529310997,None,,,,,1,2022_Mar_29_1153,Real-fake-judgement-flashing-group1,2021.1.2
279,Trial # 127,Group1-stimuli/group1-block2/fake-group2-b2/encoded_Group2_IMG_4971.jpg,0,encoded_Group2_IMG_4971.jpg,,,,,,,,,0.0,126.0,126.0,126.0,,,,,,,,,,,,,,,1081.4024967000005,None,,,1,0.3820730049628764,1083.8864207089646,None,1083.8864207089646,None,,,1082.7199826099677,None,,,,,1,2022_Mar_29_1153,Real-fake-judgement-flashing-group1,2021.1.2
280,Trial # 128,Group1-stimuli/group1-block2/real-group1-b2/Group1_IMG_0173.jpg,1,Group1_IMG_0173.jpg,,,,,,,,,0.0,127.0,127.0,127.0,,,,,,,,,,,,,,,1084.2866556749796,None,,,1,0.6498272069729865,1086.7706249209589,None,1086.7706249209589,None,,,1085.6036318669794,None,,,,,1,2022_Mar_29_1153,Real-fake-judgement-flashing-group1,2021.1.2
281,Trial # 129,Group1-stimuli/group1-block2/real-group1-b2/Group1_IMG_0213.jpg,1,Group1_IMG_0213.jpg,,,,,,,,,0.0,128.0,128.0,128.0,,,,,,,,,,,,,,,1087.4378868009662,None,,,0,0.114821067021694,1089.921582172974,None,1089.921582172974,None,,,1088.7546647280103,None,,,,,1,2022_Mar_29_1153,Real-fake-judgement-flashing-group1,2021.1.2
282,Trial # 130,Group1-stimuli/group1-block2/fake-group2-b2/encoded_Group2_IMG_0260.jpg,0,encoded_Group2_IMG_0260.jpg,,,,,,,,,0.0,129.0,129.0,129.0,,,,,,,,,,,,,,,1090.0551904420136,None,,,1,0.3289300949545577,1092.5235169229563,None,1092.5235169229563,None,,,1091.3716848259792,None,,,,,1,2022_Mar_29_1153,Real-fake-judgement-flashing-group1,2021.1.2
283,Trial # 131,Group1-stimuli/group1-block2/fake-group2-b2/encoded_Group2_IMG_7291.jpg,0,encoded_Group2_IMG_7291.jpg,,,,,,,,,0.0,130.0,130.0,130.0,,,,,,,,,,,,,,,1092.8728228170075,None,,,0,0.1111606080085039,1095.3732739610132,None,1095.3732739610132,None,,,1094.189685545978,None,,,,,1,2022_Mar_29_1153,Real-fake-judgement-flashing-group1,2021.1.2
284,Trial # 132,Group1-stimuli/group1-block2/fake-group2-b2/encoded_Group2_IMG_0176.jpg,0,encoded_Group2_IMG_0176.jpg,,,,,,,,,0.0,131.0,131.0,131.0,,,,,,,,,,,,,,,1095.5072772299754,None,,,1,0.1576180619886145,1097.9747702979948,None,1097.9747702979948,None,,,1096.82303157798,None,,,,,1,2022_Mar_29_1153,Real-fake-judgement-flashing-group1,2021.1.2
285,Trial # 133,Group1-stimuli/group1-block2/real-group1-b2/Group1_IMG_9699.jpg,1,Group1_IMG_9699.jpg,,,,,,,,,0.0,132.0,132.0,132.0,,,,,,,,,,,,,,,1098.1589391689631,None,,,1,1.0506601860397495,1100.6417264330084,None,1100.6417264330084,None,,,1099.4912259439589,None,,,,,1,2022_Mar_29_1153,Real-fake-judgement-flashing-group1,2021.1.2
286,Trial # 134,Group1-stimuli/group1-block2/real-group1-b2/Group1_IMG_0381.jpg,1,Group1_IMG_0381.jpg,,,,,,,,,0.0,133.0,133.0,133.0,,,,,,,,,,,,,,,1101.7249120000051,None,,,1,0.4675183320068754,1104.192856959009,None,1104.192856959009,None,,,1103.0435221279622,None,,,,,1,2022_Mar_29_1153,Real-fake-judgement-flashing-group1,2021.1.2
287,Trial # 135,Group1-stimuli/group1-block2/real-group1-b2/Group1_IMG_0309.jpg,1,Group1_IMG_0309.jpg,,,,,,,,,0.0,134.0,134.0,134.0,,,,,,,,,,,,,,,1104.692975338956,None,,,1,0.1960479019908234,1107.1604154550005,None,1107.1604154550005,None,,,1105.9937683469616,None,,,,,1,2022_Mar_29_1153,Real-fake-judgement-flashing-group1,2021.1.2
288,Trial # 136,Group1-stimuli/group1-block2/fake-group2-b2/encoded_Group2_IMG_0041.jpg,0,encoded_Group2_IMG_0041.jpg,,,,,,,,,0.0,135.0,135.0,135.0,,,,,,,,,,,,,,,1107.3775811470114,None,,,1,1.511830008996185,1109.844600531971,None,1109.844600531971,None,,,1108.677425220958,None,,,,,1,2022_Mar_29_1153,Real-fake-judgement-flashing-group1,2021.1.2
289,Trial # 137,Group1-stimuli/group1-block2/real-group1-b2/Group1_IMG_0303.jpg,1,Group1_IMG_0303.jpg,,,,,,,,,0.0,136.0,136.0,136.0,,,,,,,,,,,,,,,1111.378933975997,None,,,1,0.0859408499673008,1113.8625239770045,None,1113.8625239770045,None,,,1112.6964552960126,None,,,,,1,2022_Mar_29_1153,Real-fake-judgement-flashing-group1,2021.1.2
290,Trial # 138,Group1-stimuli/group1-block2/fake-group2-b2/encoded_Group2_IMG_0419.jpg,0,encoded_Group2_IMG_0419.jpg,,,,,,,,,0.0,137.0,137.0,137.0,,,,,,,,,,,,,,,1113.9791236500023,None,,,0,0.1330340710119344,1116.463402747002,None,1116.463402747002,None,,,1115.2961524719722,None,,,,,1,2022_Mar_29_1153,Real-fake-judgement-flashing-group1,2021.1.2
291,Trial # 139,Group1-stimuli/group1-block2/real-group1-b2/Group1_IMG_0384.jpg,1,Group1_IMG_0384.jpg,,,,,,,,,0.0,138.0,138.0,138.0,,,,,,,,,,,,,,,1116.6127906650072,None,,,1,0.0918240439496003,1119.0806164289825,None,1119.0806164289825,None,,,1117.9147792499862,None,,,,,1,2022_Mar_29_1153,Real-fake-judgement-flashing-group1,2021.1.2
292,Trial # 140,Group1-stimuli/group1-block2/real-group1-b2/Group1_IMG_0147.jpg,1,Group1_IMG_0147.jpg,,,,,,,,,0.0,139.0,139.0,139.0,,,,,,,,,,,,,,,1119.1986622409895,None,,,1,0.1625221439753659,1121.681940342998,None,1121.681940342998,None,,,1120.53125196998,None,,,,,1,2022_Mar_29_1153,Real-fake-judgement-flashing-group1,2021.1.2
293,Trial # 141,Group1-stimuli/group1-block2/real-group1-b2/Group1_IMG_9725.jpg,1,Group1_IMG_9725.jpg,,,,,,,,,0.0,140.0,140.0,140.0,,,,,,,,,,,,,,,1121.8652151699644,None,,,0,1.343255683023017,1124.3331822459586,None,1124.3331822459586,None,,,1123.165682382998,None,,,,,1,2022_Mar_29_1153,Real-fake-judgement-flashing-group1,2021.1.2
294,Trial # 142,Group1-stimuli/group1-block2/real-group1-b2/Group1_IMG_0341.jpg,1,Group1_IMG_0341.jpg,,,,,,,,,0.0,141.0,141.0,141.0,,,,,,,,,,,,,,,1125.6994436520035,None,,,1,0.6450673950021155,1128.1673677599756,None,1128.1673677599756,None,,,1127.017626309011,None,,,,,1,2022_Mar_29_1153,Real-fake-judgement-flashing-group1,2021.1.2
