,Trial_num,image_path,ground_truth,image_name,demos.thisRepN,demos.thisTrialN,demos.thisN,demos.thisIndex,block1.thisRepN,block1.thisTrialN,block1.thisN,block1.thisIndex,block2.thisRepN,block2.thisTrialN,block2.thisN,block2.thisIndex,block1_rep2.thisRepN,block1_rep2.thisTrialN,block1_rep2.thisN,block1_rep2.thisIndex,block2_rep.thisRepN,block2_rep.thisTrialN,block2_rep.thisN,block2_rep.thisIndex,text_3.started,text_3.stopped,text_4.started,text_4.stopped,text.started,text.stopped,trail_num.started,trail_num.stopped,image_6.started,image_6.stopped,Judgement.keys,Judgement.rt,Judgement.started,Judgement.stopped,text_19.started,text_19.stopped,text_12.started,text_12.stopped,image.started,image.stopped,text_2.started,text_2.stopped,text_13.started,text_13.stopped,session,date,expName,psychopyVersion
0,Demo 1,demo/Demo_IMG_0974.jpg,demo,Demo_IMG_0974.jpg,0.0,0.0,0.0,0.0,,,,,,,,,,,,,,,,,19.67111273598857,None,23.29540534305852,None,32.064431820996106,None,33.55622740997933,None,34.93230916408356,None,1,7.549819273059256,35.9988637160277,None,35.9988637160277,None,,,,,,,,,1,2022_Apr_01_0949,Real-fake-judgement-flashing-group1,2021.1.2
1,Demo 2,demo/Demo_IMG_1024.jpg,demo,Demo_IMG_1024.jpg,0.0,1.0,1.0,1.0,,,,,,,,,,,,,,,,,,,,,,,43.57305879099295,None,44.93635318800807,None,1,3.224133711890317,46.05254837707616,None,46.05254837707616,None,,,,,,,,,1,2022_Apr_01_0949,Real-fake-judgement-flashing-group1,2021.1.2
2,Demo 3,demo/Demo_seed_80003.png,demo,Demo_seed_80003.png,0.0,2.0,2.0,2.0,,,,,,,,,,,,,,,,,,,,,,,49.30447037599515,None,50.67029674106743,None,0,1.817199811921455,51.787486554007046,None,51.787486554007046,None,,,,,,,,,1,2022_Apr_01_0949,Real-fake-judgement-flashing-group1,2021.1.2
3,Trial # 1,Group1-stimuli/group1-block1/real-group1-b1/Group1_IMG_0022.jpg,1,Group1_IMG_0022.jpg,,,,,0.0,0.0,0.0,0.0,,,,,,,,,,,,,,,,,,,65.89143432897981,None,,,1,0.5569097810657695,68.35977591306437,None,68.35977591306437,None,54.08815436006989,None,67.22517808305565,None,,,,,1,2022_Apr_01_0949,Real-fake-judgement-flashing-group1,2021.1.2
4,Trial # 2,Group1-stimuli/group1-block1/fake-group2-b1/encoded_Group2_IMG_0386.jpg,0,encoded_Group2_IMG_0386.jpg,,,,,0.0,1.0,1.0,1.0,,,,,,,,,,,,,,,,,,,68.94322299701162,None,,,0,1.8663566319737583,71.42633730603848,None,71.42633730603848,None,,,70.25922080897726,None,,,,,1,2022_Apr_01_0949,Real-fake-judgement-flashing-group1,2021.1.2
5,Trial # 3,Group1-stimuli/group1-block1/real-group1-b1/Group1_IMG_9704.jpg,1,Group1_IMG_9704.jpg,,,,,0.0,2.0,2.0,2.0,,,,,,,,,,,,,,,,,,,73.31111984606832,None,,,0,1.513216475956142,75.81146658200305,None,75.81146658200305,None,,,74.62813903798815,None,,,,,1,2022_Apr_01_0949,Real-fake-judgement-flashing-group1,2021.1.2
6,Trial # 4,Group1-stimuli/group1-block1/real-group1-b1/Group1_IMG_0406.jpg,1,Group1_IMG_0406.jpg,,,,,0.0,3.0,3.0,3.0,,,,,,,,,,,,,,,,,,,77.3456848920323,None,,,1,1.1026004700688643,79.81403298606165,None,79.81403298606165,None,,,78.66327289899345,None,,,,,1,2022_Apr_01_0949,Real-fake-judgement-flashing-group1,2021.1.2
7,Trial # 5,Group1-stimuli/group1-block1/fake-group2-b1/encoded_Group2_IMG_0364.jpg,0,encoded_Group2_IMG_0364.jpg,,,,,0.0,4.0,4.0,4.0,,,,,,,,,,,,,,,,,,,80.94665456900839,None,,,0,0.4621460690395906,83.39853715302888,None,83.39853715302888,None,,,82.23028982698452,None,,,,,1,2022_Apr_01_0949,Real-fake-judgement-flashing-group1,2021.1.2
8,Trial # 6,Group1-stimuli/group1-block1/fake-group2-b1/encoded_Group2_IMG_0407.jpg,0,encoded_Group2_IMG_0407.jpg,,,,,0.0,5.0,5.0,5.0,,,,,,,,,,,,,,,,,,,83.88182836701162,None,,,0,0.5038257540436462,86.36485809506848,None,86.36485809506848,None,,,85.19892945408355,None,,,,,1,2022_Apr_01_0949,Real-fake-judgement-flashing-group1,2021.1.2
9,Trial # 7,Group1-stimuli/group1-block1/real-group1-b1/Group1_IMG_0428.jpg,1,Group1_IMG_0428.jpg,,,,,0.0,6.0,6.0,6.0,,,,,,,,,,,,,,,,,,,86.8981688390486,None,,,1,0.6778768310323358,89.38280277198646,None,89.38280277198646,None,,,88.1983150090091,None,,,,,1,2022_Apr_01_0949,Real-fake-judgement-flashing-group1,2021.1.2
10,Trial # 8,Group1-stimuli/group1-block1/fake-group2-b1/encoded_Group2_IMG_0474.jpg,0,encoded_Group2_IMG_0474.jpg,,,,,0.0,7.0,7.0,7.0,,,,,,,,,,,,,,,,,,,90.08363634801935,None,,,0,1.365815847995691,92.56686786701904,None,92.56686786701904,None,,,91.41625705407932,None,,,,,1,2022_Apr_01_0949,Real-fake-judgement-flashing-group1,2021.1.2
11,Trial # 9,Group1-stimuli/group1-block1/fake-group2-b1/encoded_Group2_IMG_1506.jpg,0,encoded_Group2_IMG_1506.jpg,,,,,0.0,8.0,8.0,8.0,,,,,,,,,,,,,,,,,,,93.9507562200306,None,,,0,0.4581610630266368,96.43455290899146,None,96.43455290899146,None,,,95.26858196302784,None,,,,,1,2022_Apr_01_0949,Real-fake-judgement-flashing-group1,2021.1.2
12,Trial # 10,Group1-stimuli/group1-block1/real-group1-b1/Group1_IMG_9789.jpg,1,Group1_IMG_9789.jpg,,,,,0.0,9.0,9.0,9.0,,,,,,,,,,,,,,,,,,,96.91873084800318,None,,,1,0.3058942250208929,99.38679864897858,None,99.38679864897858,None,,,98.23594596597832,None,,,,,1,2022_Apr_01_0949,Real-fake-judgement-flashing-group1,2021.1.2
13,Trial # 11,Group1-stimuli/group1-block1/real-group1-b1/Group1_IMG_9778.jpg,1,Group1_IMG_9778.jpg,,,,,0.0,10.0,10.0,10.0,,,,,,,,,,,,,,,,,,,99.720206020982,None,,,1,0.7618060669628903,102.20288602705114,None,102.20288602705114,None,,,101.03570867108648,None,,,,,1,2022_Apr_01_0949,Real-fake-judgement-flashing-group1,2021.1.2
14,Trial # 12,Group1-stimuli/group1-block1/real-group1-b1/Group1_IMG_9813.jpg,1,Group1_IMG_9813.jpg,,,,,0.0,11.0,11.0,11.0,,,,,,,,,,,,,,,,,,,102.98657590697984,None,,,1,0.430883041000925,105.45379963505547,None,105.45379963505547,None,,,104.288058779086,None,,,,,1,2022_Apr_01_0949,Real-fake-judgement-flashing-group1,2021.1.2
15,Trial # 13,Group1-stimuli/group1-block1/real-group1-b1/Group1_IMG_0516.jpg,1,Group1_IMG_0516.jpg,,,,,0.0,12.0,12.0,12.0,,,,,,,,,,,,,,,,,,,105.90436046302784,None,,,0,0.3276408259989694,108.37305150309112,None,108.37305150309112,None,,,107.2044558940688,None,,,,,1,2022_Apr_01_0949,Real-fake-judgement-flashing-group1,2021.1.2
16,Trial # 14,Group1-stimuli/group1-block1/fake-group2-b1/encoded_Group2_IMG_0038.jpg,0,encoded_Group2_IMG_0038.jpg,,,,,0.0,13.0,13.0,13.0,,,,,,,,,,,,,,,,,,,108.72308831999544,None,,,0,0.5589057169854641,111.2057789330138,None,111.2057789330138,None,,,110.03971036802976,None,,,,,1,2022_Apr_01_0949,Real-fake-judgement-flashing-group1,2021.1.2
17,Trial # 15,Group1-stimuli/group1-block1/real-group1-b1/Group1_IMG_5984.jpg,1,Group1_IMG_5984.jpg,,,,,0.0,14.0,14.0,14.0,,,,,,,,,,,,,,,,,,,111.7893666710006,None,,,1,0.3627363190753385,114.25794727005996,None,114.25794727005996,None,,,113.10589839506429,None,,,,,1,2022_Apr_01_0949,Real-fake-judgement-flashing-group1,2021.1.2
18,Trial # 16,Group1-stimuli/group1-block1/real-group1-b1/Group1_IMG_0383.jpg,1,Group1_IMG_0383.jpg,,,,,0.0,15.0,15.0,15.0,,,,,,,,,,,,,,,,,,,114.64135045406874,None,,,1,0.4090170409763232,117.1075611190172,None,117.1075611190172,None,,,115.9402876580134,None,,,,,1,2022_Apr_01_0949,Real-fake-judgement-flashing-group1,2021.1.2
19,Trial # 17,Group1-stimuli/group1-block1/fake-group2-b1/encoded_Group2_IMG_0456.jpg,0,encoded_Group2_IMG_0456.jpg,,,,,0.0,16.0,16.0,16.0,,,,,,,,,,,,,,,,,,,117.54132398299409,None,,,0,0.3952687729615718,120.025461847079,None,120.025461847079,None,,,118.85953289305326,None,,,,,1,2022_Apr_01_0949,Real-fake-judgement-flashing-group1,2021.1.2
20,Trial # 18,Group1-stimuli/group1-block1/fake-group2-b1/encoded_Group2_IMG_8390.jpg,0,encoded_Group2_IMG_8390.jpg,,,,,0.0,17.0,17.0,17.0,,,,,,,,,,,,,,,,,,,120.44201027601956,None,,,1,1.015091110020876,122.90947483305354,None,122.90947483305354,None,,,121.72584385704248,None,,,,,1,2022_Apr_01_0949,Real-fake-judgement-flashing-group1,2021.1.2
21,Trial # 19,Group1-stimuli/group1-block1/real-group1-b1/Group1_IMG_0011.jpg,1,Group1_IMG_0011.jpg,,,,,0.0,18.0,18.0,18.0,,,,,,,,,,,,,,,,,,,123.94457903003786,None,,,0,1.7452720410656184,126.42741581599694,None,126.42741581599694,None,,,125.2602192229824,None,,,,,1,2022_Apr_01_0949,Real-fake-judgement-flashing-group1,2021.1.2
22,Trial # 20,Group1-stimuli/group1-block1/fake-group2-b1/encoded_Group2_IMG_0328.jpg,0,encoded_Group2_IMG_0328.jpg,,,,,0.0,19.0,19.0,19.0,,,,,,,,,,,,,,,,,,,128.1942381170811,None,,,1,1.030926126986742,130.66178219998255,None,130.66178219998255,None,,,129.49595262599178,None,,,,,1,2022_Apr_01_0949,Real-fake-judgement-flashing-group1,2021.1.2
23,Trial # 21,Group1-stimuli/group1-block1/fake-group2-b1/encoded_Group2_IMG_0163.jpg,0,encoded_Group2_IMG_0163.jpg,,,,,0.0,20.0,20.0,20.0,,,,,,,,,,,,,,,,,,,131.71193614799995,None,,,0,0.3437017970718443,134.18097815208603,None,134.18097815208603,None,,,133.01251000806224,None,,,,,1,2022_Apr_01_0949,Real-fake-judgement-flashing-group1,2021.1.2
24,Trial # 22,Group1-stimuli/group1-block1/real-group1-b1/Group1_IMG_9862.jpg,1,Group1_IMG_9862.jpg,,,,,0.0,21.0,21.0,21.0,,,,,,,,,,,,,,,,,,,134.54755393404048,None,,,1,0.870792652014643,137.01390212099068,None,137.01390212099068,None,,,135.8465310910251,None,,,,,1,2022_Apr_01_0949,Real-fake-judgement-flashing-group1,2021.1.2
25,Trial # 23,Group1-stimuli/group1-block1/fake-group2-b1/encoded_Group2_IMG_0296.jpg,0,encoded_Group2_IMG_0296.jpg,,,,,0.0,22.0,22.0,22.0,,,,,,,,,,,,,,,,,,,137.9145372840576,None,,,0,0.3503213679650798,140.39830769004766,None,140.39830769004766,None,,,139.21555335004814,None,,,,,1,2022_Apr_01_0949,Real-fake-judgement-flashing-group1,2021.1.2
26,Trial # 24,Group1-stimuli/group1-block1/fake-group2-b1/encoded_Group2_IMG_0503.jpg,0,encoded_Group2_IMG_0503.jpg,,,,,0.0,23.0,23.0,23.0,,,,,,,,,,,,,,,,,,,140.78171962604392,None,,,0,0.4509746360126883,143.249665054027,None,143.249665054027,None,,,142.08148219401482,None,,,,,1,2022_Apr_01_0949,Real-fake-judgement-flashing-group1,2021.1.2
27,Trial # 25,Group1-stimuli/group1-block1/fake-group2-b1/encoded_Group2_IMG_9804.jpg,0,encoded_Group2_IMG_9804.jpg,,,,,0.0,24.0,24.0,24.0,,,,,,,,,,,,,,,,,,,143.71714385505766,None,,,0,1.4452824710169807,146.18340794404503,None,146.18340794404503,None,,,145.01644494500945,None,,,,,1,2022_Apr_01_0949,Real-fake-judgement-flashing-group1,2021.1.2
28,Trial # 26,Group1-stimuli/group1-block1/real-group1-b1/Group1_IMG_0391.jpg,1,Group1_IMG_0391.jpg,,,,,0.0,25.0,25.0,25.0,,,,,,,,,,,,,,,,,,,147.65067949704826,None,,,0,0.7262338899308816,150.11845484608784,None,150.11845484608784,None,,,148.95222704205662,None,,,,,1,2022_Apr_01_0949,Real-fake-judgement-flashing-group1,2021.1.2
29,Trial # 27,Group1-stimuli/group1-block1/fake-group2-b1/encoded_Group2_IMG_3584.jpg,0,encoded_Group2_IMG_3584.jpg,,,,,0.0,26.0,26.0,26.0,,,,,,,,,,,,,,,,,,,150.86791781906504,None,,,0,0.2918100079987198,153.33691986708436,None,153.33691986708436,None,,,152.16861107607838,None,,,,,1,2022_Apr_01_0949,Real-fake-judgement-flashing-group1,2021.1.2
30,Trial # 28,Group1-stimuli/group1-block1/fake-group2-b1/encoded_Group2_IMG_0434.jpg,0,encoded_Group2_IMG_0434.jpg,,,,,0.0,27.0,27.0,27.0,,,,,,,,,,,,,,,,,,,153.65243209607434,None,,,0,0.3007136529777199,156.11989402305335,None,156.11989402305335,None,,,154.95273841405287,None,,,,,1,2022_Apr_01_0949,Real-fake-judgement-flashing-group1,2021.1.2
31,Trial # 29,Group1-stimuli/group1-block1/fake-group2-b1/encoded_Group2_IMG_9575.jpg,0,encoded_Group2_IMG_9575.jpg,,,,,0.0,28.0,28.0,28.0,,,,,,,,,,,,,,,,,,,156.453087367001,None,,,0,1.482511233072728,158.93816928798333,None,158.93816928798333,None,,,157.77017720299773,None,,,,,1,2022_Apr_01_0949,Real-fake-judgement-flashing-group1,2021.1.2
32,Trial # 30,Group1-stimuli/group1-block1/fake-group2-b1/encoded_Group2_IMG_1025.jpg,0,encoded_Group2_IMG_1025.jpg,,,,,0.0,29.0,29.0,29.0,,,,,,,,,,,,,,,,,,,160.43820738606155,None,,,1,0.5154230690095574,162.90519196004607,None,162.90519196004607,None,,,161.73812830005772,None,,,,,1,2022_Apr_01_0949,Real-fake-judgement-flashing-group1,2021.1.2
33,Trial # 31,Group1-stimuli/group1-block1/real-group1-b1/Group1_IMG_0502.jpg,1,Group1_IMG_0502.jpg,,,,,0.0,30.0,30.0,30.0,,,,,,,,,,,,,,,,,,,163.44051350606605,None,,,1,0.2500136020826176,165.92267853603698,None,165.92267853603698,None,,,164.75715283607133,None,,,,,1,2022_Apr_01_0949,Real-fake-judgement-flashing-group1,2021.1.2
34,Trial # 32,Group1-stimuli/group1-block1/real-group1-b1/Group1_IMG_0182.jpg,1,Group1_IMG_0182.jpg,,,,,0.0,31.0,31.0,31.0,,,,,,,,,,,,,,,,,,,166.19038754608482,None,,,1,0.3708265438908711,168.6578576520551,None,168.6578576520551,None,,,167.5065522090299,None,,,,,1,2022_Apr_01_0949,Real-fake-judgement-flashing-group1,2021.1.2
35,Trial # 33,Group1-stimuli/group1-block1/fake-group2-b1/encoded_Group2_IMG_2728.jpg,0,encoded_Group2_IMG_2728.jpg,,,,,0.0,32.0,32.0,32.0,,,,,,,,,,,,,,,,,,,169.05831819504965,None,,,0,0.3203113419003784,171.5243700700812,None,171.5243700700812,None,,,170.35743180802092,None,,,,,1,2022_Apr_01_0949,Real-fake-judgement-flashing-group1,2021.1.2
36,Trial # 34,Group1-stimuli/group1-block1/fake-group2-b1/encoded_Group2_IMG_4867.jpg,0,encoded_Group2_IMG_4867.jpg,,,,,0.0,33.0,33.0,33.0,,,,,,,,,,,,,,,,,,,171.87415132799651,None,,,0,0.910252367029898,174.34243017307017,None,174.34243017307017,None,,,173.1749500550795,None,,,,,1,2022_Apr_01_0949,Real-fake-judgement-flashing-group1,2021.1.2
37,Trial # 35,Group1-stimuli/group1-block1/real-group1-b1/Group1_IMG_9894.jpg,1,Group1_IMG_9894.jpg,,,,,0.0,34.0,34.0,34.0,,,,,,,,,,,,,,,,,,,175.27584539901,None,,,1,0.1416434699203819,177.7430379029829,None,177.7430379029829,None,,,176.57624498207588,None,,,,,1,2022_Apr_01_0949,Real-fake-judgement-flashing-group1,2021.1.2
38,Trial # 36,Group1-stimuli/group1-block1/fake-group2-b1/encoded_Group2_IMG_0444.jpg,0,encoded_Group2_IMG_0444.jpg,,,,,0.0,35.0,35.0,35.0,,,,,,,,,,,,,,,,,,,177.90960688702762,None,,,0,0.3715849419822916,180.3611025940627,None,180.3611025940627,None,,,179.19448064407334,None,,,,,1,2022_Apr_01_0949,Real-fake-judgement-flashing-group1,2021.1.2
39,Trial # 37,Group1-stimuli/group1-block1/real-group1-b1/Group1_IMG_2656.jpg,1,Group1_IMG_2656.jpg,,,,,0.0,36.0,36.0,36.0,,,,,,,,,,,,,,,,,,,180.76056996907573,None,,,1,0.3102589959744364,183.2464232830098,None,183.2464232830098,None,,,182.07849221501965,None,,,,,1,2022_Apr_01_0949,Real-fake-judgement-flashing-group1,2021.1.2
40,Trial # 38,Group1-stimuli/group1-block1/real-group1-b1/Group1_IMG_0207.jpg,1,Group1_IMG_0207.jpg,,,,,0.0,37.0,37.0,37.0,,,,,,,,,,,,,,,,,,,183.5796231700806,None,,,1,0.2545575420372188,186.0621274419828,None,186.0621274419828,None,,,184.896195437992,None,,,,,1,2022_Apr_01_0949,Real-fake-judgement-flashing-group1,2021.1.2
41,Trial # 39,Group1-stimuli/group1-block1/real-group1-b1/Group1_IMG_9638.jpg,1,Group1_IMG_9638.jpg,,,,,0.0,38.0,38.0,38.0,,,,,,,,,,,,,,,,,,,186.3462759050308,None,,,1,0.4232154210330918,188.8134677390335,None,188.8134677390335,None,,,187.64625689503737,None,,,,,1,2022_Apr_01_0949,Real-fake-judgement-flashing-group1,2021.1.2
42,Trial # 40,Group1-stimuli/group1-block1/real-group1-b1/Group1_IMG_0148.jpg,1,Group1_IMG_0148.jpg,,,,,0.0,39.0,39.0,39.0,,,,,,,,,,,,,,,,,,,189.2637741679792,None,,,0,1.3856539260596037,191.7310298819793,None,191.7310298819793,None,,,190.5635193029884,None,,,,,1,2022_Apr_01_0949,Real-fake-judgement-flashing-group1,2021.1.2
43,Trial # 41,Group1-stimuli/group1-block1/real-group1-b1/Group1_IMG_2891.jpg,1,Group1_IMG_2891.jpg,,,,,0.0,40.0,40.0,40.0,,,,,,,,,,,,,,,,,,,193.14750867302064,None,,,0,0.3167684220243245,195.63195281801745,None,195.63195281801745,None,,,194.4663234130712,None,,,,,1,2022_Apr_01_0949,Real-fake-judgement-flashing-group1,2021.1.2
44,Trial # 42,Group1-stimuli/group1-block1/real-group1-b1/Group1_IMG_0157.jpg,1,Group1_IMG_0157.jpg,,,,,0.0,41.0,41.0,41.0,,,,,,,,,,,,,,,,,,,195.96605061599985,None,,,1,0.993814144982025,198.45086758898103,None,198.45086758898103,None,,,197.2827012030175,None,,,,,1,2022_Apr_01_0949,Real-fake-judgement-flashing-group1,2021.1.2
45,Trial # 43,Group1-stimuli/group1-block1/real-group1-b1/Group1_IMG_9833.jpg,1,Group1_IMG_9833.jpg,,,,,0.0,42.0,42.0,42.0,,,,,,,,,,,,,,,,,,,199.4680013270117,None,,,1,0.7100893610622734,201.95059237105303,None,201.95059237105303,None,,,200.8002248579869,None,,,,,1,2022_Apr_01_0949,Real-fake-judgement-flashing-group1,2021.1.2
46,Trial # 44,Group1-stimuli/group1-block1/fake-group2-b1/encoded_Group2_IMG_2230.jpg,0,encoded_Group2_IMG_2230.jpg,,,,,0.0,43.0,43.0,43.0,,,,,,,,,,,,,,,,,,,202.68486851803027,None,,,0,0.2773361520376056,205.15134680399208,None,205.15134680399208,None,,,203.9858358920319,None,,,,,1,2022_Apr_01_0949,Real-fake-judgement-flashing-group1,2021.1.2
47,Trial # 45,Group1-stimuli/group1-block1/real-group1-b1/Group1_IMG_9966.jpg,1,Group1_IMG_9966.jpg,,,,,0.0,44.0,44.0,44.0,,,,,,,,,,,,,,,,,,,205.451989955036,None,,,0,0.3489154649432748,207.93576105800457,None,207.93576105800457,None,,,206.7686992919771,None,,,,,1,2022_Apr_01_0949,Real-fake-judgement-flashing-group1,2021.1.2
48,Trial # 46,Group1-stimuli/group1-block1/real-group1-b1/Group1_IMG_0239.jpg,1,Group1_IMG_0239.jpg,,,,,0.0,45.0,45.0,45.0,,,,,,,,,,,,,,,,,,,208.3037343790056,None,,,1,0.3150565649848431,210.76960640400648,None,210.76960640400648,None,,,209.6038771540625,None,,,,,1,2022_Apr_01_0949,Real-fake-judgement-flashing-group1,2021.1.2
49,Trial # 47,Group1-stimuli/group1-block1/fake-group2-b1/encoded_Group2_IMG_0536.jpg,0,encoded_Group2_IMG_0536.jpg,,,,,0.0,46.0,46.0,46.0,,,,,,,,,,,,,,,,,,,211.1034038610524,None,,,0,0.2884599359240383,213.5722237220034,None,213.5722237220034,None,,,212.3872748430585,None,,,,,1,2022_Apr_01_0949,Real-fake-judgement-flashing-group1,2021.1.2
50,Trial # 48,Group1-stimuli/group1-block1/fake-group2-b1/encoded_Group2_IMG_0521.jpg,0,encoded_Group2_IMG_0521.jpg,,,,,0.0,47.0,47.0,47.0,,,,,,,,,,,,,,,,,,,213.88877294305712,None,,,0,0.2813033200800419,216.3552877440816,None,216.3552877440816,None,,,215.1881598710316,None,,,,,1,2022_Apr_01_0949,Real-fake-judgement-flashing-group1,2021.1.2
51,Trial # 49,Group1-stimuli/group1-block1/fake-group2-b1/encoded_Group2_IMG_9924.jpg,0,encoded_Group2_IMG_9924.jpg,,,,,0.0,48.0,48.0,48.0,,,,,,,,,,,,,,,,,,,216.6553062710445,None,,,1,0.3138851179974153,219.12279878999107,None,219.12279878999107,None,,,217.9553397389828,None,,,,,1,2022_Apr_01_0949,Real-fake-judgement-flashing-group1,2021.1.2
52,Trial # 50,Group1-stimuli/group1-block1/real-group1-b1/Group1_IMG_9730.jpg,1,Group1_IMG_9730.jpg,,,,,0.0,49.0,49.0,49.0,,,,,,,,,,,,,,,,,,,219.45724794303533,None,,,1,0.3370154059957713,221.92366885300729,None,221.92366885300729,None,,,220.7565920080524,None,,,,,1,2022_Apr_01_0949,Real-fake-judgement-flashing-group1,2021.1.2
53,Trial # 51,Group1-stimuli/group1-block1/real-group1-b1/Group1_IMG_0053.jpg,1,Group1_IMG_0053.jpg,,,,,0.0,50.0,50.0,50.0,,,,,,,,,,,,,,,,,,,222.2904216850875,None,,,1,0.3427834209287539,224.75789863802493,None,224.75789863802493,None,,,223.59116139507387,None,,,,,1,2022_Apr_01_0949,Real-fake-judgement-flashing-group1,2021.1.2
54,Trial # 52,Group1-stimuli/group1-block1/real-group1-b1/Group1_IMG_9698.jpg,1,Group1_IMG_9698.jpg,,,,,0.0,51.0,51.0,51.0,,,,,,,,,,,,,,,,,,,225.1259646799881,None,,,0,0.3641496660420671,227.6085257580271,None,227.6085257580271,None,,,226.4414814399788,None,,,,,1,2022_Apr_01_0949,Real-fake-judgement-flashing-group1,2021.1.2
55,Trial # 53,Group1-stimuli/group1-block1/fake-group2-b1/encoded_Group2_IMG_0553.jpg,0,encoded_Group2_IMG_0553.jpg,,,,,0.0,52.0,52.0,52.0,,,,,,,,,,,,,,,,,,,227.99245495302603,None,,,0,0.3208812000229954,230.45980226504616,None,230.45980226504616,None,,,229.27715898898896,None,,,,,1,2022_Apr_01_0949,Real-fake-judgement-flashing-group1,2021.1.2
56,Trial # 54,Group1-stimuli/group1-block1/fake-group2-b1/encoded_Group2_IMG_9758.jpg,0,encoded_Group2_IMG_9758.jpg,,,,,0.0,53.0,53.0,53.0,,,,,,,,,,,,,,,,,,,230.8094013320515,None,,,1,0.2555269609438255,233.2771768700332,None,233.2771768700332,None,,,232.10991827899124,None,,,,,1,2022_Apr_01_0949,Real-fake-judgement-flashing-group1,2021.1.2
57,Trial # 55,Group1-stimuli/group1-block1/fake-group2-b1/encoded_Group2_IMG_0339.jpg,0,encoded_Group2_IMG_0339.jpg,,,,,0.0,54.0,54.0,54.0,,,,,,,,,,,,,,,,,,,233.56069724599365,None,,,1,1.1206602059537545,236.0280240860302,None,236.0280240860302,None,,,234.84546709503047,None,,,,,1,2022_Apr_01_0949,Real-fake-judgement-flashing-group1,2021.1.2
58,Trial # 56,Group1-stimuli/group1-block1/real-group1-b1/Group1_IMG_0314.jpg,1,Group1_IMG_0314.jpg,,,,,0.0,55.0,55.0,55.0,,,,,,,,,,,,,,,,,,,237.17865909507964,None,,,1,0.2776161780348047,239.64706565800589,None,239.64706565800589,None,,,238.49639731703792,None,,,,,1,2022_Apr_01_0949,Real-fake-judgement-flashing-group1,2021.1.2
59,Trial # 57,Group1-stimuli/group1-block1/fake-group2-b1/encoded_Group2_IMG_0532.jpg,0,encoded_Group2_IMG_0532.jpg,,,,,0.0,56.0,56.0,56.0,,,,,,,,,,,,,,,,,,,239.94600754301064,None,,,0,0.0787884920137003,242.42990517406724,None,242.42990517406724,None,,,241.2459131100913,None,,,,,1,2022_Apr_01_0949,Real-fake-judgement-flashing-group1,2021.1.2
60,Trial # 58,Group1-stimuli/group1-block1/fake-group2-b1/encoded_Group2_IMG_0462.jpg,0,encoded_Group2_IMG_0462.jpg,,,,,0.0,57.0,57.0,57.0,,,,,,,,,,,,,,,,,,,242.52939711604267,None,,,0,0.3192833269713446,244.99745878600515,None,244.99745878600515,None,,,243.8144399119774,None,,,,,1,2022_Apr_01_0949,Real-fake-judgement-flashing-group1,2021.1.2
61,Trial # 59,Group1-stimuli/group1-block1/real-group1-b1/Group1_IMG_0172.jpg,1,Group1_IMG_0172.jpg,,,,,0.0,58.0,58.0,58.0,,,,,,,,,,,,,,,,,,,245.34741598099936,None,,,1,0.3019502660026774,247.81466884503607,None,247.81466884503607,None,,,246.66422514407896,None,,,,,1,2022_Apr_01_0949,Real-fake-judgement-flashing-group1,2021.1.2
62,Trial # 60,Group1-stimuli/group1-block1/real-group1-b1/Group1_IMG_4841.jpg,1,Group1_IMG_4841.jpg,,,,,0.0,59.0,59.0,59.0,,,,,,,,,,,,,,,,,,,248.1484910210129,None,,,1,0.444000381976366,250.6326822700212,None,250.6326822700212,None,,,249.4665240000468,None,,,,,1,2022_Apr_01_0949,Real-fake-judgement-flashing-group1,2021.1.2
63,Trial # 61,Group1-stimuli/group1-block1/fake-group2-b1/encoded_Group2_IMG_0352.jpg,0,encoded_Group2_IMG_0352.jpg,,,,,0.0,60.0,60.0,60.0,,,,,,,,,,,,,,,,,,,251.098928662017,None,,,0,0.3086902609793469,253.56799184007104,None,253.56799184007104,None,,,252.39968533499632,None,,,,,1,2022_Apr_01_0949,Real-fake-judgement-flashing-group1,2021.1.2
64,Trial # 62,Group1-stimuli/group1-block1/fake-group2-b1/encoded_Group2_IMG_9726.jpg,0,encoded_Group2_IMG_9726.jpg,,,,,0.0,61.0,61.0,61.0,,,,,,,,,,,,,,,,,,,253.90145127708087,None,,,1,0.3322631609626114,256.3843833580613,None,256.3843833580613,None,,,255.2168049130123,None,,,,,1,2022_Apr_01_0949,Real-fake-judgement-flashing-group1,2021.1.2
65,Trial # 63,Group1-stimuli/group1-block1/fake-group2-b1/encoded_Group2_IMG_9785.jpg,0,encoded_Group2_IMG_9785.jpg,,,,,0.0,62.0,62.0,62.0,,,,,,,,,,,,,,,,,,,256.7340796859935,None,,,0,0.2985083559760824,259.2021683130879,None,259.2021683130879,None,,,258.0343962960178,None,,,,,1,2022_Apr_01_0949,Real-fake-judgement-flashing-group1,2021.1.2
66,Trial # 64,Group1-stimuli/group1-block1/fake-group2-b1/encoded_Group2_IMG_0440.jpg,0,encoded_Group2_IMG_0440.jpg,,,,,0.0,63.0,63.0,63.0,,,,,,,,,,,,,,,,,,,259.51984940306284,None,,,1,0.9948135359445588,261.9858785950346,None,261.9858785950346,None,,,260.81905745505355,None,,,,,1,2022_Apr_01_0949,Real-fake-judgement-flashing-group1,2021.1.2
67,Trial # 65,Group1-stimuli/group1-block1/fake-group2-b1/encoded_Group2_IMG_1695.jpg,0,encoded_Group2_IMG_1695.jpg,,,,,0.0,64.0,64.0,64.0,,,,,,,,,,,,,,,,,,,263.00300945702475,None,,,0,0.2058097090339288,265.4868745399872,None,265.4868745399872,None,,,264.2875797820743,None,,,,,1,2022_Apr_01_0949,Real-fake-judgement-flashing-group1,2021.1.2
68,Trial # 66,Group1-stimuli/group1-block1/real-group1-b1/Group1_IMG_0552.jpg,1,Group1_IMG_0552.jpg,,,,,0.0,65.0,65.0,65.0,,,,,,,,,,,,,,,,,,,265.7214087320026,None,,,1,0.3366379990475252,268.2040451359935,None,268.2040451359935,None,,,267.03761006100103,None,,,,,1,2022_Apr_01_0949,Real-fake-judgement-flashing-group1,2021.1.2
69,Trial # 67,Group1-stimuli/group1-block1/real-group1-b1/Group1_IMG_1029.jpg,1,Group1_IMG_1029.jpg,,,,,0.0,66.0,66.0,66.0,,,,,,,,,,,,,,,,,,,268.57237636798527,None,,,0,0.3171562099596485,271.055478016031,None,271.055478016031,None,,,269.87278080300894,None,,,,,1,2022_Apr_01_0949,Real-fake-judgement-flashing-group1,2021.1.2
70,Trial # 68,Group1-stimuli/group1-block1/fake-group2-b1/encoded_Group2_IMG_6517.jpg,0,encoded_Group2_IMG_6517.jpg,,,,,0.0,67.0,67.0,67.0,,,,,,,,,,,,,,,,,,,271.3885050470708,None,,,0,0.3863861230202019,273.8743056830717,None,273.8743056830717,None,,,272.772492418997,None,,,,,1,2022_Apr_01_0949,Real-fake-judgement-flashing-group1,2021.1.2
71,Trial # 69,Group1-stimuli/group1-block1/fake-group2-b1/encoded_Group2_IMG_0002.jpg,0,encoded_Group2_IMG_0002.jpg,,,,,0.0,68.0,68.0,68.0,,,,,,,,,,,,,,,,,,,274.29085188906174,None,,,1,0.3915057040285319,276.7571787839988,None,276.7571787839988,None,,,275.5902051710291,None,,,,,1,2022_Apr_01_0949,Real-fake-judgement-flashing-group1,2021.1.2
72,Trial # 70,Group1-stimuli/group1-block1/real-group1-b1/Group1_IMG_0495.jpg,1,Group1_IMG_0495.jpg,,,,,0.0,69.0,69.0,69.0,,,,,,,,,,,,,,,,,,,277.17393533105496,None,,,0,0.2900438979268074,279.6426480830414,None,279.6426480830414,None,,,278.4922590650385,None,,,,,1,2022_Apr_01_0949,Real-fake-judgement-flashing-group1,2021.1.2
73,Trial # 71,Group1-stimuli/group1-block1/real-group1-b1/Group1_IMG_1391.jpg,1,Group1_IMG_1391.jpg,,,,,0.0,70.0,70.0,70.0,,,,,,,,,,,,,,,,,,,279.959250346059,None,,,1,0.7543896390125155,282.44230335298926,None,282.44230335298926,None,,,281.2750463540433,None,,,,,1,2022_Apr_01_0949,Real-fake-judgement-flashing-group1,2021.1.2
74,Trial # 72,Group1-stimuli/group1-block1/real-group1-b1/Group1_IMG_0343.jpg,1,Group1_IMG_0343.jpg,,,,,0.0,71.0,71.0,71.0,,,,,,,,,,,,,,,,,,,283.22544836997986,None,,,1,0.3507530610077083,285.70988342899363,None,285.70988342899363,None,,,284.5438105020439,None,,,,,1,2022_Apr_01_0949,Real-fake-judgement-flashing-group1,2021.1.2
75,Trial # 73,Group1-stimuli/group1-block1/fake-group2-b1/encoded_Group2_IMG_9810.jpg,0,encoded_Group2_IMG_9810.jpg,,,,,0.0,72.0,72.0,72.0,,,,,,,,,,,,,,,,,,,286.09411546506453,None,,,0,0.1707620399538427,288.56192835606635,None,288.56192835606635,None,,,287.39395047398284,None,,,,,1,2022_Apr_01_0949,Real-fake-judgement-flashing-group1,2021.1.2
76,Trial # 74,Group1-stimuli/group1-block1/fake-group2-b1/encoded_Group2_IMG_5900.jpg,0,encoded_Group2_IMG_5900.jpg,,,,,0.0,73.0,73.0,73.0,,,,,,,,,,,,,,,,,,,288.7616039409768,None,,,1,0.8083813339471817,291.22831094800495,None,291.22831094800495,None,,,290.06122540601064,None,,,,,1,2022_Apr_01_0949,Real-fake-judgement-flashing-group1,2021.1.2
77,Trial # 75,Group1-stimuli/group1-block1/real-group1-b1/Group1_IMG_9679.jpg,1,Group1_IMG_9679.jpg,,,,,0.0,74.0,74.0,74.0,,,,,,,,,,,,,,,,,,,292.0620229340857,None,,,1,0.3628063710639253,294.5298856170848,None,294.5298856170848,None,,,293.36298707604874,None,,,,,1,2022_Apr_01_0949,Real-fake-judgement-flashing-group1,2021.1.2
78,Trial # 76,Group1-stimuli/group1-block1/fake-group2-b1/encoded_Group2_IMG_4249.jpg,0,encoded_Group2_IMG_4249.jpg,,,,,0.0,75.0,75.0,75.0,,,,,,,,,,,,,,,,,,,294.91405808506534,None,,,0,0.3683431600220501,297.3803490680875,None,297.3803490680875,None,,,296.2133444210049,None,,,,,1,2022_Apr_01_0949,Real-fake-judgement-flashing-group1,2021.1.2
79,Trial # 77,Group1-stimuli/group1-block1/fake-group2-b1/encoded_Group2_IMG_0174.jpg,0,encoded_Group2_IMG_0174.jpg,,,,,0.0,76.0,76.0,76.0,,,,,,,,,,,,,,,,,,,297.7803619330516,None,,,0,0.3807312400313094,300.2479756970424,None,300.2479756970424,None,,,299.0652861680137,None,,,,,1,2022_Apr_01_0949,Real-fake-judgement-flashing-group1,2021.1.2
80,Trial # 78,Group1-stimuli/group1-block1/fake-group2-b1/encoded_Group2_IMG_0475.jpg,0,encoded_Group2_IMG_0475.jpg,,,,,0.0,77.0,77.0,77.0,,,,,,,,,,,,,,,,,,,300.6479132970562,None,,,0,0.3621402110438794,303.0985412050504,None,303.0985412050504,None,,,301.9312771860277,None,,,,,1,2022_Apr_01_0949,Real-fake-judgement-flashing-group1,2021.1.2
81,Trial # 79,Group1-stimuli/group1-block1/fake-group2-b1/encoded_Group2_IMG_9751.jpg,0,encoded_Group2_IMG_9751.jpg,,,,,0.0,78.0,78.0,78.0,,,,,,,,,,,,,,,,,,,303.48256348702125,None,,,0,0.2872647900367155,305.9494265220128,None,305.9494265220128,None,,,304.78375977207907,None,,,,,1,2022_Apr_01_0949,Real-fake-judgement-flashing-group1,2021.1.2
82,Trial # 80,Group1-stimuli/group1-block1/fake-group2-b1/encoded_Group2_IMG_0492.jpg,0,encoded_Group2_IMG_0492.jpg,,,,,0.0,79.0,79.0,79.0,,,,,,,,,,,,,,,,,,,306.26675294700544,None,,,0,1.3821492389542982,308.7345128740417,None,308.7345128740417,None,,,307.56637192703784,None,,,,,1,2022_Apr_01_0949,Real-fake-judgement-flashing-group1,2021.1.2
83,Trial # 81,Group1-stimuli/group1-block1/real-group1-b1/Group1_IMG_0535.jpg,1,Group1_IMG_0535.jpg,,,,,0.0,80.0,80.0,80.0,,,,,,,,,,,,,,,,,,,310.139605637989,None,,,1,0.3383453990099951,312.61834628903307,None,312.61834628903307,None,,,311.4512911339989,None,,,,,1,2022_Apr_01_0949,Real-fake-judgement-flashing-group1,2021.1.2
84,Trial # 82,Group1-stimuli/group1-block1/real-group1-b1/Group1_IMG_0077.jpg,1,Group1_IMG_0077.jpg,,,,,0.0,81.0,81.0,81.0,,,,,,,,,,,,,,,,,,,312.98552874499,None,,,1,0.2867411649785936,315.4859528579982,None,315.4859528579982,None,,,314.3030714329798,None,,,,,1,2022_Apr_01_0949,Real-fake-judgement-flashing-group1,2021.1.2
85,Trial # 83,Group1-stimuli/group1-block1/fake-group2-b1/encoded_Group2_IMG_9702.jpg,0,encoded_Group2_IMG_9702.jpg,,,,,0.0,82.0,82.0,82.0,,,,,,,,,,,,,,,,,,,315.8025902420049,None,,,0,0.4208096329821273,318.3038692410337,None,318.3038692410337,None,,,317.11955729301553,None,,,,,1,2022_Apr_01_0949,Real-fake-judgement-flashing-group1,2021.1.2
86,Trial # 84,Group1-stimuli/group1-block1/real-group1-b1/Group1_IMG_0357.jpg,1,Group1_IMG_0357.jpg,,,,,0.0,83.0,83.0,83.0,,,,,,,,,,,,,,,,,,,318.7542295800522,None,,,1,0.1595810080179944,321.22111215197947,None,321.22111215197947,None,,,320.0548957430292,None,,,,,1,2022_Apr_01_0949,Real-fake-judgement-flashing-group1,2021.1.2
87,Trial # 85,Group1-stimuli/group1-block1/real-group1-b1/Group1_IMG_9772.jpg,1,Group1_IMG_9772.jpg,,,,,0.0,84.0,84.0,84.0,,,,,,,,,,,,,,,,,,,321.4042593080085,None,,,1,0.2365517519647255,323.8721391230356,None,323.8721391230356,None,,,322.720844650059,None,,,,,1,2022_Apr_01_0949,Real-fake-judgement-flashing-group1,2021.1.2
88,Trial # 86,Group1-stimuli/group1-block1/real-group1-b1/Group1_IMG_0482.jpg,1,Group1_IMG_0482.jpg,,,,,0.0,85.0,85.0,85.0,,,,,,,,,,,,,,,,,,,324.13921150006354,None,,,1,0.2864619391039014,326.6222355540376,None,326.6222355540376,None,,,325.45656033500563,None,,,,,1,2022_Apr_01_0949,Real-fake-judgement-flashing-group1,2021.1.2
89,Trial # 87,Group1-stimuli/group1-block1/real-group1-b1/Group1_IMG_0299.jpg,1,Group1_IMG_0299.jpg,,,,,0.0,86.0,86.0,86.0,,,,,,,,,,,,,,,,,,,326.9395485080313,None,,,1,0.3253053339431062,329.40738669305574,None,329.40738669305574,None,,,328.2396745410515,None,,,,,1,2022_Apr_01_0949,Real-fake-judgement-flashing-group1,2021.1.2
90,Trial # 88,Group1-stimuli/group1-block1/fake-group2-b1/encoded_Group2_IMG_0301.jpg,0,encoded_Group2_IMG_0301.jpg,,,,,0.0,87.0,87.0,87.0,,,,,,,,,,,,,,,,,,,329.7572467200225,None,,,0,0.2272557099349796,332.2414735980565,None,332.2414735980565,None,,,331.0572345610708,None,,,,,1,2022_Apr_01_0949,Real-fake-judgement-flashing-group1,2021.1.2
91,Trial # 89,Group1-stimuli/group1-block1/fake-group2-b1/encoded_Group2_IMG_5136.jpg,0,encoded_Group2_IMG_5136.jpg,,,,,0.0,88.0,88.0,88.0,,,,,,,,,,,,,,,,,,,332.49071656004526,None,,,1,0.4305248159216717,334.9421641930239,None,334.9421641930239,None,,,333.7751018580748,None,,,,,1,2022_Apr_01_0949,Real-fake-judgement-flashing-group1,2021.1.2
92,Trial # 90,Group1-stimuli/group1-block1/real-group1-b1/Group1_IMG_0460.jpg,1,Group1_IMG_0460.jpg,,,,,0.0,89.0,89.0,89.0,,,,,,,,,,,,,,,,,,,335.3926838650368,None,,,1,0.3923745169304311,337.876308299019,None,337.876308299019,None,,,336.7090008590603,None,,,,,1,2022_Apr_01_0949,Real-fake-judgement-flashing-group1,2021.1.2
93,Trial # 91,Group1-stimuli/group1-block1/fake-group2-b1/encoded_Group2_IMG_0068.jpg,0,encoded_Group2_IMG_0068.jpg,,,,,0.0,90.0,90.0,90.0,,,,,,,,,,,,,,,,,,,338.2933123820694,None,,,0,0.2924340718891471,340.7602490900317,None,340.7602490900317,None,,,339.5945311100222,None,,,,,1,2022_Apr_01_0949,Real-fake-judgement-flashing-group1,2021.1.2
94,Trial # 92,Group1-stimuli/group1-block1/real-group1-b1/Group1_IMG_0337.jpg,1,Group1_IMG_0337.jpg,,,,,0.0,91.0,91.0,91.0,,,,,,,,,,,,,,,,,,,341.0773476550821,None,,,1,0.6199521509697661,343.5447375649819,None,343.5447375649819,None,,,342.3783261710778,None,,,,,1,2022_Apr_01_0949,Real-fake-judgement-flashing-group1,2021.1.2
95,Trial # 93,Group1-stimuli/group1-block1/fake-group2-b1/encoded_Group2_IMG_0346.jpg,0,encoded_Group2_IMG_0346.jpg,,,,,0.0,92.0,92.0,92.0,,,,,,,,,,,,,,,,,,,344.1962917520432,None,,,0,0.117477428051643,346.679139325046,None,346.679139325046,None,,,345.4953040870605,None,,,,,1,2022_Apr_01_0949,Real-fake-judgement-flashing-group1,2021.1.2
96,Trial # 94,Group1-stimuli/group1-block1/real-group1-b1/Group1_IMG_4253.jpg,1,Group1_IMG_4253.jpg,,,,,0.0,93.0,93.0,93.0,,,,,,,,,,,,,,,,,,,346.8294258310925,None,,,1,0.7312996889231727,349.2973879380152,None,349.2973879380152,None,,,348.129272065009,None,,,,,1,2022_Apr_01_0949,Real-fake-judgement-flashing-group1,2021.1.2
97,Trial # 95,Group1-stimuli/group1-block1/fake-group2-b1/encoded_Group2_IMG_9280.jpg,0,encoded_Group2_IMG_9280.jpg,,,,,0.0,94.0,94.0,94.0,,,,,,,,,,,,,,,,,,,350.0468878370011,None,,,0,0.2744882869301364,352.5301933080191,None,352.5301933080191,None,,,351.34687586606015,None,,,,,1,2022_Apr_01_0949,Real-fake-judgement-flashing-group1,2021.1.2
98,Trial # 96,Group1-stimuli/group1-block1/real-group1-b1/Group1_IMG_0417.jpg,1,Group1_IMG_0417.jpg,,,,,0.0,95.0,95.0,95.0,,,,,,,,,,,,,,,,,,,352.83044360298663,None,,,1,0.2258385049644857,355.3149176510051,None,355.3149176510051,None,,,354.1491457159864,None,,,,,1,2022_Apr_01_0949,Real-fake-judgement-flashing-group1,2021.1.2
99,Trial # 97,Group1-stimuli/group1-block1/fake-group2-b1/encoded_Group2_IMG_9695.jpg,0,encoded_Group2_IMG_9695.jpg,,,,,0.0,96.0,96.0,96.0,,,,,,,,,,,,,,,,,,,355.564809456002,None,,,1,0.8762805250007659,358.0324090480572,None,358.0324090480572,None,,,356.8652229020372,None,,,,,1,2022_Apr_01_0949,Real-fake-judgement-flashing-group1,2021.1.2
100,Trial # 98,Group1-stimuli/group1-block1/real-group1-b1/Group1_IMG_1160.jpg,1,Group1_IMG_1160.jpg,,,,,0.0,97.0,97.0,97.0,,,,,,,,,,,,,,,,,,,358.93394739506766,None,,,1,0.3078093080548569,361.4168792060809,None,361.4168792060809,None,,,360.2493967229966,None,,,,,1,2022_Apr_01_0949,Real-fake-judgement-flashing-group1,2021.1.2
101,Trial # 99,Group1-stimuli/group1-block1/real-group1-b1/Group1_IMG_0448.jpg,1,Group1_IMG_0448.jpg,,,,,0.0,98.0,98.0,98.0,,,,,,,,,,,,,,,,,,,361.7499456250807,None,,,1,0.5058087760116905,364.2189128670143,None,364.2189128670143,None,,,363.0499581020558,None,,,,,1,2022_Apr_01_0949,Real-fake-judgement-flashing-group1,2021.1.2
102,Trial # 100,Group1-stimuli/group1-block1/fake-group2-b1/encoded_Group2_IMG_0393.jpg,0,encoded_Group2_IMG_0393.jpg,,,,,0.0,99.0,99.0,99.0,,,,,,,,,,,,,,,,,,,364.7525609669974,None,,,0,0.4415652799652889,367.2351259579882,None,367.2351259579882,None,,,366.0683353120694,None,,,,,1,2022_Apr_01_0949,Real-fake-judgement-flashing-group1,2021.1.2
103,Trial # 101,Group1-stimuli/group1-block1/real-group1-b1/Group1_IMG_0090.jpg,1,Group1_IMG_0090.jpg,,,,,0.0,100.0,100.0,100.0,,,,,,,,,,,,,,,,,,,367.7023937740596,None,,,1,0.2337573349941522,370.1708619650453,None,370.1708619650453,None,,,369.0035980880493,None,,,,,1,2022_Apr_01_0949,Real-fake-judgement-flashing-group1,2021.1.2
104,Trial # 102,Group1-stimuli/group1-block1/real-group1-b1/Group1_IMG_0310.jpg,1,Group1_IMG_0310.jpg,,,,,0.0,101.0,101.0,101.0,,,,,,,,,,,,,,,,,,,370.4372819319833,None,,,1,0.5160462630447,372.9206386440201,None,372.9206386440201,None,,,371.75302311207633,None,,,,,1,2022_Apr_01_0949,Real-fake-judgement-flashing-group1,2021.1.2
105,Trial # 103,Group1-stimuli/group1-block1/fake-group2-b1/encoded_Group2_IMG_0528.jpg,0,encoded_Group2_IMG_0528.jpg,,,,,0.0,102.0,102.0,102.0,,,,,,,,,,,,,,,,,,,373.4549030080671,None,,,0,0.0998976150294765,375.9047219380736,None,375.9047219380736,None,,,374.73841846198775,None,,,,,1,2022_Apr_01_0949,Real-fake-judgement-flashing-group1,2021.1.2
106,Trial # 104,Group1-stimuli/group1-block1/fake-group2-b1/encoded_Group2_IMG_1975.jpg,0,encoded_Group2_IMG_1975.jpg,,,,,0.0,103.0,103.0,103.0,,,,,,,,,,,,,,,,,,,376.0376773850294,None,,,0,0.3074478500057012,378.48924185708165,None,378.48924185708165,None,,,377.3216103219893,None,,,,,1,2022_Apr_01_0949,Real-fake-judgement-flashing-group1,2021.1.2
107,Trial # 105,Group1-stimuli/group1-block1/fake-group2-b1/encoded_Group2_IMG_0052.jpg,0,encoded_Group2_IMG_0052.jpg,,,,,0.0,104.0,104.0,104.0,,,,,,,,,,,,,,,,,,,378.82266201800667,None,,,0,1.539064910961315,381.2896263900912,None,381.2896263900912,None,,,380.12360083998647,None,,,,,1,2022_Apr_01_0949,Real-fake-judgement-flashing-group1,2021.1.2
108,Trial # 106,Group1-stimuli/group1-block1/fake-group2-b1/encoded_Group2_IMG_0225.jpg,0,encoded_Group2_IMG_0225.jpg,,,,,0.0,105.0,105.0,105.0,,,,,,,,,,,,,,,,,,,382.85769366298337,None,,,0,0.3130638169823214,385.30762797407806,None,385.30762797407806,None,,,384.1417182540754,None,,,,,1,2022_Apr_01_0949,Real-fake-judgement-flashing-group1,2021.1.2
109,Trial # 107,Group1-stimuli/group1-block1/real-group1-b1/Group1_IMG_2231.jpg,1,Group1_IMG_2231.jpg,,,,,0.0,106.0,106.0,106.0,,,,,,,,,,,,,,,,,,,385.64088982203975,None,,,1,1.9277532630367205,388.12493881909177,None,388.12493881909177,None,,,386.9578820799943,None,,,,,1,2022_Apr_01_0949,Real-fake-judgement-flashing-group1,2021.1.2
110,Trial # 108,Group1-stimuli/group1-block1/real-group1-b1/Group1_IMG_0217.jpg,1,Group1_IMG_0217.jpg,,,,,0.0,107.0,107.0,107.0,,,,,,,,,,,,,,,,,,,390.0757312460337,None,,,0,0.429576252005063,392.5431255440926,None,392.5431255440926,None,,,391.37615473999176,None,,,,,1,2022_Apr_01_0949,Real-fake-judgement-flashing-group1,2021.1.2
111,Trial # 109,Group1-stimuli/group1-block1/real-group1-b1/Group1_IMG_0264.jpg,1,Group1_IMG_0264.jpg,,,,,0.0,108.0,108.0,108.0,,,,,,,,,,,,,,,,,,,392.9937521400861,None,,,1,0.2718451590044424,395.460845262045,None,395.460845262045,None,,,394.2946972940117,None,,,,,1,2022_Apr_01_0949,Real-fake-judgement-flashing-group1,2021.1.2
112,Trial # 110,Group1-stimuli/group1-block1/fake-group2-b1/encoded_Group2_IMG_0254.jpg,0,encoded_Group2_IMG_0254.jpg,,,,,0.0,109.0,109.0,109.0,,,,,,,,,,,,,,,,,,,395.7609184270259,None,,,1,0.9856519490713254,398.2109594190261,None,398.2109594190261,None,,,397.0443199389847,None,,,,,1,2022_Apr_01_0949,Real-fake-judgement-flashing-group1,2021.1.2
113,Trial # 111,Group1-stimuli/group1-block1/fake-group2-b1/encoded_Group2_IMG_5433.jpg,0,encoded_Group2_IMG_5433.jpg,,,,,0.0,110.0,110.0,110.0,,,,,,,,,,,,,,,,,,,399.22983814904,None,,,0,0.2366537789348513,401.6960363810649,None,401.6960363810649,None,,,400.5287407080177,None,,,,,1,2022_Apr_01_0949,Real-fake-judgement-flashing-group1,2021.1.2
114,Trial # 112,Group1-stimuli/group1-block1/real-group1-b1/Group1_IMG_0252.jpg,1,Group1_IMG_0252.jpg,,,,,0.0,111.0,111.0,111.0,,,,,,,,,,,,,,,,,,,401.96236050408334,None,,,1,1.3091880640713498,404.4315019469941,None,404.4315019469941,None,,,403.27917680703104,None,,,,,1,2022_Apr_01_0949,Real-fake-judgement-flashing-group1,2021.1.2
115,Trial # 113,Group1-stimuli/group1-block1/real-group1-b1/Group1_IMG_9720.jpg,1,Group1_IMG_9720.jpg,,,,,0.0,112.0,112.0,112.0,,,,,,,,,,,,,,,,,,,405.7642983660335,None,,,1,0.2767964879749343,408.2478780000238,None,408.2478780000238,None,,,407.08092784206383,None,,,,,1,2022_Apr_01_0949,Real-fake-judgement-flashing-group1,2021.1.2
116,Trial # 114,Group1-stimuli/group1-block1/fake-group2-b1/encoded_Group2_IMG_0550.jpg,0,encoded_Group2_IMG_0550.jpg,,,,,0.0,113.0,113.0,113.0,,,,,,,,,,,,,,,,,,,408.5493315530475,None,,,0,0.2858814919600263,410.9988086960511,None,410.9988086960511,None,,,409.8328927340917,None,,,,,1,2022_Apr_01_0949,Real-fake-judgement-flashing-group1,2021.1.2
117,Trial # 115,Group1-stimuli/group1-block1/real-group1-b1/Group1_IMG_9915.jpg,1,Group1_IMG_9915.jpg,,,,,0.0,114.0,114.0,114.0,,,,,,,,,,,,,,,,,,,411.3157040469814,None,,,1,0.3250932010123506,413.7835723400349,None,413.7835723400349,None,,,412.6325185550377,None,,,,,1,2022_Apr_01_0949,Real-fake-judgement-flashing-group1,2021.1.2
118,Trial # 116,Group1-stimuli/group1-block1/real-group1-b1/Group1_IMG_9850.jpg,1,Group1_IMG_9850.jpg,,,,,0.0,115.0,115.0,115.0,,,,,,,,,,,,,,,,,,,414.1345740720863,None,,,1,0.891570777981542,416.61712046701,None,416.61712046701,None,,,415.4500361289829,None,,,,,1,2022_Apr_01_0949,Real-fake-judgement-flashing-group1,2021.1.2
119,Trial # 117,Group1-stimuli/group1-block1/real-group1-b1/Group1_IMG_3579.jpg,1,Group1_IMG_3579.jpg,,,,,0.0,116.0,116.0,116.0,,,,,,,,,,,,,,,,,,,417.5340396279935,None,,,1,0.2985062900697812,420.0021672170842,None,420.0021672170842,None,,,418.8355958610773,None,,,,,1,2022_Apr_01_0949,Real-fake-judgement-flashing-group1,2021.1.2
120,Trial # 118,Group1-stimuli/group1-block1/fake-group2-b1/encoded_Group2_IMG_0377.jpg,0,encoded_Group2_IMG_0377.jpg,,,,,0.0,117.0,117.0,117.0,,,,,,,,,,,,,,,,,,,420.3187534690369,None,,,0,0.3547391559695825,422.7859553240705,None,422.7859553240705,None,,,421.6189030460082,None,,,,,1,2022_Apr_01_0949,Real-fake-judgement-flashing-group1,2021.1.2
121,Trial # 119,Group1-stimuli/group1-block1/real-group1-b1/Group1_IMG_0469.jpg,1,Group1_IMG_0469.jpg,,,,,0.0,118.0,118.0,118.0,,,,,,,,,,,,,,,,,,,423.1698918939801,None,,,1,0.6394325760193169,425.65328701003455,None,425.65328701003455,None,,,424.4873663950712,None,,,,,1,2022_Apr_01_0949,Real-fake-judgement-flashing-group1,2021.1.2
122,Trial # 120,Group1-stimuli/group1-block1/fake-group2-b1/encoded_Group2_IMG_0100.jpg,0,encoded_Group2_IMG_0100.jpg,,,,,0.0,119.0,119.0,119.0,,,,,,,,,,,,,,,,,,,426.3201720970683,None,,,0,0.3285032240673899,428.7881820680341,None,428.7881820680341,None,,,427.6208036330063,None,,,,,1,2022_Apr_01_0949,Real-fake-judgement-flashing-group1,2021.1.2
123,Trial # 121,Group1-stimuli/group1-block1/real-group1-b1/Group1_IMG_5359.jpg,1,Group1_IMG_5359.jpg,,,,,0.0,120.0,120.0,120.0,,,,,,,,,,,,,,,,,,,429.13888704997953,None,,,1,0.2867900470737368,431.62190308398567,None,431.62190308398567,None,,,430.4561188539956,None,,,,,1,2022_Apr_01_0949,Real-fake-judgement-flashing-group1,2021.1.2
124,Trial # 122,Group1-stimuli/group1-block1/fake-group2-b1/encoded_Group2_IMG_0304.jpg,0,encoded_Group2_IMG_0304.jpg,,,,,0.0,121.0,121.0,121.0,,,,,,,,,,,,,,,,,,,431.9389936270891,None,,,0,0.2690808579791337,434.4075515340082,None,434.4075515340082,None,,,433.2390904560452,None,,,,,1,2022_Apr_01_0949,Real-fake-judgement-flashing-group1,2021.1.2
125,Trial # 123,Group1-stimuli/group1-block1/real-group1-b1/Group1_IMG_0306.jpg,1,Group1_IMG_0306.jpg,,,,,0.0,122.0,122.0,122.0,,,,,,,,,,,,,,,,,,,434.70770125905983,None,,,1,0.4063442249316722,437.1903475590516,None,437.1903475590516,None,,,436.03991634002887,None,,,,,1,2022_Apr_01_0949,Real-fake-judgement-flashing-group1,2021.1.2
126,Trial # 124,Group1-stimuli/group1-block1/real-group1-b1/Group1_IMG_0224.jpg,1,Group1_IMG_0224.jpg,,,,,0.0,123.0,123.0,123.0,,,,,,,,,,,,,,,,,,,437.6238958580652,None,,,1,0.2562276229728013,440.0924626960186,None,440.0924626960186,None,,,438.9254614650272,None,,,,,1,2022_Apr_01_0949,Real-fake-judgement-flashing-group1,2021.1.2
127,Trial # 125,Group1-stimuli/group1-block1/real-group1-b1/Group1_IMG_9889.jpg,1,Group1_IMG_9889.jpg,,,,,0.0,124.0,124.0,124.0,,,,,,,,,,,,,,,,,,,440.3759807740571,None,,,0,0.585945964907296,442.85871408705134,None,442.85871408705134,None,,,441.6916625900194,None,,,,,1,2022_Apr_01_0949,Real-fake-judgement-flashing-group1,2021.1.2
128,Trial # 126,Group1-stimuli/group1-block1/real-group1-b1/Group1_IMG_0293.jpg,1,Group1_IMG_0293.jpg,,,,,0.0,125.0,125.0,125.0,,,,,,,,,,,,,,,,,,,443.4769125760067,None,,,1,0.0369395719608292,445.95974424108863,None,445.95974424108863,None,,,444.77706069208216,None,,,,,1,2022_Apr_01_0949,Real-fake-judgement-flashing-group1,2021.1.2
129,Trial # 127,Group1-stimuli/group1-block1/fake-group2-b1/encoded_Group2_IMG_0321.jpg,0,encoded_Group2_IMG_0321.jpg,,,,,0.0,126.0,126.0,126.0,,,,,,,,,,,,,,,,,,,446.0261528440751,None,,,1,0.3899545419262722,448.5107165370137,None,448.5107165370137,None,,,447.3431820310652,None,,,,,1,2022_Apr_01_0949,Real-fake-judgement-flashing-group1,2021.1.2
130,Trial # 128,Group1-stimuli/group1-block1/fake-group2-b1/encoded_Group2_IMG_0400.jpg,0,encoded_Group2_IMG_0400.jpg,,,,,0.0,127.0,127.0,127.0,,,,,,,,,,,,,,,,,,,448.9276401139796,None,,,0,0.2973948928993195,451.411228622077,None,451.411228622077,None,,,450.2275024540722,None,,,,,1,2022_Apr_01_0949,Real-fake-judgement-flashing-group1,2021.1.2
131,Trial # 129,Group1-stimuli/group1-block1/fake-group2-b1/encoded_Group2_IMG_0443.jpg,0,encoded_Group2_IMG_0443.jpg,,,,,0.0,128.0,128.0,128.0,,,,,,,,,,,,,,,,,,,451.7289549619891,None,,,0,1.263724455027841,454.1968535110354,None,454.1968535110354,None,,,453.0449463960249,None,,,,,1,2022_Apr_01_0949,Real-fake-judgement-flashing-group1,2021.1.2
132,Trial # 130,Group1-stimuli/group1-block1/fake-group2-b1/encoded_Group2_IMG_0542.jpg,0,encoded_Group2_IMG_0542.jpg,,,,,0.0,129.0,129.0,129.0,,,,,,,,,,,,,,,,,,,455.4794761730591,None,,,1,0.4100933859590441,457.9465881760698,None,457.9465881760698,None,,,456.7797585420776,None,,,,,1,2022_Apr_01_0949,Real-fake-judgement-flashing-group1,2021.1.2
133,Trial # 131,Group1-stimuli/group1-block1/real-group1-b1/Group1_IMG_0885.jpg,1,Group1_IMG_0885.jpg,,,,,0.0,130.0,130.0,130.0,,,,,,,,,,,,,,,,,,,458.3814762220718,None,,,1,0.2291800989769399,460.8475029700203,None,460.8475029700203,None,,,459.69827049807645,None,,,,,1,2022_Apr_01_0949,Real-fake-judgement-flashing-group1,2021.1.2
134,Trial # 132,Group1-stimuli/group1-block1/real-group1-b1/Group1_IMG_0375.jpg,1,Group1_IMG_0375.jpg,,,,,0.0,131.0,131.0,131.0,,,,,,,,,,,,,,,,,,,461.0979593610391,None,,,1,0.3753168289549649,463.56536593602505,None,463.56536593602505,None,,,462.397954168031,None,,,,,1,2022_Apr_01_0949,Real-fake-judgement-flashing-group1,2021.1.2
135,Trial # 133,Group1-stimuli/group1-block1/fake-group2-b1/encoded_Group2_IMG_7351.jpg,0,encoded_Group2_IMG_7351.jpg,,,,,0.0,132.0,132.0,132.0,,,,,,,,,,,,,,,,,,,463.9667921949877,None,,,0,0.6353010929888114,466.4493821359938,None,466.4493821359938,None,,,465.2656148300739,None,,,,,1,2022_Apr_01_0949,Real-fake-judgement-flashing-group1,2021.1.2
136,Trial # 134,Group1-stimuli/group1-block1/fake-group2-b1/encoded_Group2_IMG_0416.jpg,0,encoded_Group2_IMG_0416.jpg,,,,,0.0,133.0,133.0,133.0,,,,,,,,,,,,,,,,,,,467.1164787890157,None,,,0,0.3957413040334359,469.5849469649838,None,469.5849469649838,None,,,468.4177060980583,None,,,,,1,2022_Apr_01_0949,Real-fake-judgement-flashing-group1,2021.1.2
137,Trial # 135,Group1-stimuli/group1-block1/fake-group2-b1/encoded_Group2_IMG_0139.jpg,0,encoded_Group2_IMG_0139.jpg,,,,,0.0,134.0,134.0,134.0,,,,,,,,,,,,,,,,,,,470.0018860470736,None,,,1,0.8803483869414777,472.4683216420235,None,472.4683216420235,None,,,471.30061717308126,None,,,,,1,2022_Apr_01_0949,Real-fake-judgement-flashing-group1,2021.1.2
138,Trial # 136,Group1-stimuli/group1-block1/real-group1-b1/Group1_IMG_9677.jpg,1,Group1_IMG_9677.jpg,,,,,0.0,135.0,135.0,135.0,,,,,,,,,,,,,,,,,,,473.3696212550858,None,,,1,0.2642951220041141,475.85233984398656,None,475.85233984398656,None,,,474.68629344098736,None,,,,,1,2022_Apr_01_0949,Real-fake-judgement-flashing-group1,2021.1.2
139,Trial # 137,Group1-stimuli/group1-block1/fake-group2-b1/encoded_Group2_IMG_5982.jpg,0,encoded_Group2_IMG_5982.jpg,,,,,0.0,136.0,136.0,136.0,,,,,,,,,,,,,,,,,,,476.1357653309824,None,,,0,0.3052208638982847,478.6034616190009,None,478.6034616190009,None,,,477.45237539499067,None,,,,,1,2022_Apr_01_0949,Real-fake-judgement-flashing-group1,2021.1.2
140,Trial # 138,Group1-stimuli/group1-block1/fake-group2-b1/encoded_Group2_IMG_1144.jpg,0,encoded_Group2_IMG_1144.jpg,,,,,0.0,137.0,137.0,137.0,,,,,,,,,,,,,,,,,,,478.9378653040621,None,,,0,0.2886835320387035,481.4040330420248,None,481.4040330420248,None,,,480.2374973900151,None,,,,,1,2022_Apr_01_0949,Real-fake-judgement-flashing-group1,2021.1.2
141,Trial # 139,Group1-stimuli/group1-block1/fake-group2-b1/encoded_Group2_IMG_0315.jpg,0,encoded_Group2_IMG_0315.jpg,,,,,0.0,138.0,138.0,138.0,,,,,,,,,,,,,,,,,,,481.7219098050846,None,,,1,0.5432236019987613,484.1894584170077,None,484.1894584170077,None,,,483.02058366604615,None,,,,,1,2022_Apr_01_0949,Real-fake-judgement-flashing-group1,2021.1.2
142,Trial # 140,Group1-stimuli/group1-block1/real-group1-b1/Group1_IMG_130.jpg,1,Group1_IMG_130.jpg,,,,,0.0,139.0,139.0,139.0,,,,,,,,,,,,,,,,,,,484.75506508303806,None,,,1,0.4698032710002735,487.2388804180082,None,487.2388804180082,None,,,486.0721775019774,None,,,,,1,2022_Apr_01_0949,Real-fake-judgement-flashing-group1,2021.1.2
143,Trial # 141,Group1-stimuli/group1-block1/real-group1-b1/Group1_IMG_0024.jpg,1,Group1_IMG_0024.jpg,,,,,0.0,140.0,140.0,140.0,,,,,,,,,,,,,,,,,,,487.7393958630273,None,,,0,0.5649524099426344,490.2077245500405,None,490.2077245500405,None,,,489.0407652760623,None,,,,,1,2022_Apr_01_0949,Real-fake-judgement-flashing-group1,2021.1.2
144,Trial # 142,Group1-stimuli/group1-block1/fake-group2-b1/encoded_Group2_IMG_5012.jpg,0,encoded_Group2_IMG_5012.jpg,,,,,0.0,141.0,141.0,141.0,,,,,,,,,,,,,,,,,,,490.7905707129976,None,,,0,0.3628504229709506,493.2578484810656,None,493.2578484810656,None,,,492.09105928905774,None,,,,,1,2022_Apr_01_0949,Real-fake-judgement-flashing-group1,2021.1.2
145,Trial # 143,Group1-stimuli/group1-block1/fake-group2-b1/encoded_Group2_IMG_0209.jpg,0,encoded_Group2_IMG_0209.jpg,,,,,0.0,142.0,142.0,142.0,,,,,,,,,,,,,,,,,,,493.6426064450061,None,,,1,0.400076457997784,496.1085678660311,None,496.1085678660311,None,,,494.9425190769834,None,,,,,1,2022_Apr_01_0949,Real-fake-judgement-flashing-group1,2021.1.2
146,Trial # 144,Group1-stimuli/group1-block1/real-group1-b1/Group1_IMG_0373.jpg,1,Group1_IMG_0373.jpg,,,,,0.0,143.0,143.0,143.0,,,,,,,,,,,,,,,,,,,496.5418552639894,None,,,1,0.5071259550750256,499.0096036520554,None,499.0096036520554,None,,,497.8588487060042,None,,,,,1,2022_Apr_01_0949,Real-fake-judgement-flashing-group1,2021.1.2
147,Trial # 145,Group1-stimuli/group1-block1/real-group1-b1/Group1_IMG_5899.jpg,1,Group1_IMG_5899.jpg,,,,,0.0,144.0,144.0,144.0,,,,,,,,,,,,,,,,,,,499.5430909430143,None,,,1,0.601187617983669,502.0274522890104,None,502.0274522890104,None,,,500.8434402110288,None,,,,,1,2022_Apr_01_0949,Real-fake-judgement-flashing-group1,2021.1.2
148,Trial # 146,Group1-stimuli/group1-block1/real-group1-b1/Group1_IMG_0162.jpg,1,Group1_IMG_0162.jpg,,,,,0.0,145.0,145.0,145.0,,,,,,,,,,,,,,,,,,,502.6611863290891,None,,,1,0.4201372230891138,505.1445468730526,None,505.1445468730526,None,,,503.97863546200097,None,,,,,1,2022_Apr_01_0949,Real-fake-judgement-flashing-group1,2021.1.2
149,Trial # 147,Group1-stimuli/group1-block1/real-group1-b1/Group1_IMG_0543.jpg,1,Group1_IMG_0543.jpg,,,,,0.0,146.0,146.0,146.0,,,,,,,,,,,,,,,,,,,505.5946585040074,None,,,1,0.3297105319797992,508.08298023301177,None,508.08298023301177,None,,,506.9119368230458,None,,,,,1,2022_Apr_01_0949,Real-fake-judgement-flashing-group1,2021.1.2
150,Trial # 148,Group1-stimuli/group1-block1/fake-group2-b1/encoded_Group2_IMG_0355.jpg,0,encoded_Group2_IMG_0355.jpg,,,,,0.0,147.0,147.0,147.0,,,,,,,,,,,,,,,,,,,508.4340760530904,None,,,0,0.9242089519975708,510.89649495098274,None,510.89649495098274,None,,,509.73054307105485,None,,,,,1,2022_Apr_01_0949,Real-fake-judgement-flashing-group1,2021.1.2
151,Trial # 149,Group1-stimuli/group1-block1/real-group1-b1/Group1_IMG_9765.jpg,1,Group1_IMG_9765.jpg,,,,,0.0,148.0,148.0,148.0,,,,,,,,,,,,,,,,,,,511.8467820070218,None,,,1,0.2094928910955786,514.3151917200303,None,514.3151917200303,None,,,513.1636085760547,None,,,,,1,2022_Apr_01_0949,Real-fake-judgement-flashing-group1,2021.1.2
152,Trial # 150,Group1-stimuli/group1-block1/fake-group2-b1/encoded_Group2_IMG_1378.jpg,0,encoded_Group2_IMG_1378.jpg,,,,,0.0,149.0,149.0,149.0,,,,,,,,,,,,,,,,,,,514.5486057450762,None,,,1,0.8218482510419562,517.0148348649964,None,517.0148348649964,None,,,515.8479103520513,None,,,,,1,2022_Apr_01_0949,Real-fake-judgement-flashing-group1,2021.1.2
153,Trial # 1,Group1-stimuli/group1-block2/fake-group2-b2/encoded_Group2_IMG_0155.jpg,0,encoded_Group2_IMG_0155.jpg,,,,,,,,,0.0,0.0,0.0,0.0,,,,,,,,,,,,,,,528.3014725740068,None,,,0,0.774059240007773,530.7026213990757,None,530.7026213990757,None,521.7549575989833,None,529.5533438470447,None,517.8650774230482,None,,,1,2022_Apr_01_0949,Real-fake-judgement-flashing-group1,2021.1.2
154,Trial # 2,Group1-stimuli/group1-block2/real-group1-b2/Group1_IMG_0519.jpg,1,Group1_IMG_0519.jpg,,,,,,,,,0.0,1.0,1.0,1.0,,,,,,,,,,,,,,,531.5029180609854,None,,,0,0.3448912180028856,533.9717008169973,None,533.9717008169973,None,,,532.8193086230895,None,,,,,1,2022_Apr_01_0949,Real-fake-judgement-flashing-group1,2021.1.2
155,Trial # 3,Group1-stimuli/group1-block2/fake-group2-b2/encoded_Group2_IMG_0135.jpg,0,encoded_Group2_IMG_0135.jpg,,,,,,,,,0.0,2.0,2.0,2.0,,,,,,,,,,,,,,,534.3374960580841,None,,,0,0.2795417159795761,536.8211412680103,None,536.8211412680103,None,,,535.6539785740897,None,,,,,1,2022_Apr_01_0949,Real-fake-judgement-flashing-group1,2021.1.2
156,Trial # 4,Group1-stimuli/group1-block2/real-group1-b2/Group1_IMG_5310.jpg,1,Group1_IMG_5310.jpg,,,,,,,,,0.0,3.0,3.0,3.0,,,,,,,,,,,,,,,537.1214979219949,None,,,1,0.1916641839779913,539.5890187730547,None,539.5890187730547,None,,,538.4393361390103,None,,,,,1,2022_Apr_01_0949,Real-fake-judgement-flashing-group1,2021.1.2
157,Trial # 5,Group1-stimuli/group1-block2/real-group1-b2/Group1_IMG_0522.jpg,1,Group1_IMG_0522.jpg,,,,,,,,,0.0,4.0,4.0,4.0,,,,,,,,,,,,,,,539.8058743280126,None,,,1,0.2752488210098818,542.2894343310036,None,542.2894343310036,None,,,541.1223061489873,None,,,,,1,2022_Apr_01_0949,Real-fake-judgement-flashing-group1,2021.1.2
158,Trial # 6,Group1-stimuli/group1-block2/fake-group2-b2/encoded_Group2_IMG_0484.jpg,0,encoded_Group2_IMG_0484.jpg,,,,,,,,,0.0,5.0,5.0,5.0,,,,,,,,,,,,,,,542.589778676047,None,,,0,0.3143881040159613,545.0582788389875,None,545.0582788389875,None,,,543.9077404200798,None,,,,,1,2022_Apr_01_0949,Real-fake-judgement-flashing-group1,2021.1.2
159,Trial # 7,Group1-stimuli/group1-block2/fake-group2-b2/encoded_Group2_IMG_5948.jpg,0,encoded_Group2_IMG_5948.jpg,,,,,,,,,0.0,6.0,6.0,6.0,,,,,,,,,,,,,,,545.3906057730783,None,,,1,0.1316002869280055,547.8410501640756,None,547.8410501640756,None,,,546.6738301300211,None,,,,,1,2022_Apr_01_0949,Real-fake-judgement-flashing-group1,2021.1.2
160,Trial # 8,Group1-stimuli/group1-block2/fake-group2-b2/encoded_Group2_IMG_3591.jpg,0,encoded_Group2_IMG_3591.jpg,,,,,,,,,0.0,7.0,7.0,7.0,,,,,,,,,,,,,,,547.9913496749941,None,,,0,0.1449342940468341,550.4597453450551,None,550.4597453450551,None,,,549.3095066180686,None,,,,,1,2022_Apr_01_0949,Real-fake-judgement-flashing-group1,2021.1.2
161,Trial # 9,Group1-stimuli/group1-block2/real-group1-b2/Group1_IMG_9835.jpg,1,Group1_IMG_9835.jpg,,,,,,,,,0.0,8.0,8.0,8.0,,,,,,,,,,,,,,,550.6259584660875,None,,,1,0.3914296299917623,553.0932507150574,None,553.0932507150574,None,,,552.0091329300776,None,,,,,1,2022_Apr_01_0949,Real-fake-judgement-flashing-group1,2021.1.2
162,Trial # 10,Group1-stimuli/group1-block2/real-group1-b2/Group1_IMG_0556.jpg,1,Group1_IMG_0556.jpg,,,,,,,,,0.0,9.0,9.0,9.0,,,,,,,,,,,,,,,553.510153942043,None,,,1,0.3060969960642978,555.9946011470165,None,555.9946011470165,None,,,554.8278401420685,None,,,,,1,2022_Apr_01_0949,Real-fake-judgement-flashing-group1,2021.1.2
163,Trial # 11,Group1-stimuli/group1-block2/fake-group2-b2/encoded_Group2_IMG_9736.jpg,0,encoded_Group2_IMG_9736.jpg,,,,,,,,,0.0,10.0,10.0,10.0,,,,,,,,,,,,,,,556.3276910870336,None,,,0,0.4723734699655324,558.8123087880667,None,558.8123087880667,None,,,557.6441026490647,None,,,,,1,2022_Apr_01_0949,Real-fake-judgement-flashing-group1,2021.1.2
164,Trial # 12,Group1-stimuli/group1-block2/real-group1-b2/Group1_IMG_9867.jpg,1,Group1_IMG_9867.jpg,,,,,,,,,0.0,11.0,11.0,11.0,,,,,,,,,,,,,,,559.3119160380447,None,,,1,0.560692964005284,561.8120388169773,None,561.8120388169773,None,,,560.6284610360162,None,,,,,1,2022_Apr_01_0949,Real-fake-judgement-flashing-group1,2021.1.2
165,Trial # 13,Group1-stimuli/group1-block2/fake-group2-b2/encoded_Group2_IMG_9886.jpg,0,encoded_Group2_IMG_9886.jpg,,,,,,,,,0.0,12.0,12.0,12.0,,,,,,,,,,,,,,,562.3957829140127,None,,,1,0.3170239609898999,564.8635953310877,None,564.8635953310877,None,,,563.7140580060659,None,,,,,1,2022_Apr_01_0949,Real-fake-judgement-flashing-group1,2021.1.2
166,Trial # 14,Group1-stimuli/group1-block2/fake-group2-b2/encoded_Group2_IMG_2245.jpg,0,encoded_Group2_IMG_2245.jpg,,,,,,,,,0.0,13.0,13.0,13.0,,,,,,,,,,,,,,,565.2132822560379,None,,,0,0.4199927700683474,567.6806920040399,None,567.6806920040399,None,,,566.5136302040191,None,,,,,1,2022_Apr_01_0949,Real-fake-judgement-flashing-group1,2021.1.2
167,Trial # 15,Group1-stimuli/group1-block2/fake-group2-b2/encoded_Group2_IMG_0507.jpg,0,encoded_Group2_IMG_0507.jpg,,,,,,,,,0.0,14.0,14.0,14.0,,,,,,,,,,,,,,,568.1308967610821,None,,,1,0.6844185190275311,570.616183018079,None,570.616183018079,None,,,569.4324760490563,None,,,,,1,2022_Apr_01_0949,Real-fake-judgement-flashing-group1,2021.1.2
168,Trial # 16,Group1-stimuli/group1-block2/fake-group2-b2/encoded_Group2_IMG_0338.jpg,0,encoded_Group2_IMG_0338.jpg,,,,,,,,,0.0,15.0,15.0,15.0,,,,,,,,,,,,,,,571.3326875810744,None,,,1,0.340194794931449,573.8004887030693,None,573.8004887030693,None,,,572.6489186129766,None,,,,,1,2022_Apr_01_0949,Real-fake-judgement-flashing-group1,2021.1.2
169,Trial # 17,Group1-stimuli/group1-block2/real-group1-b2/Group1_IMG_0376.jpg,1,Group1_IMG_0376.jpg,,,,,,,,,0.0,16.0,16.0,16.0,,,,,,,,,,,,,,,574.1674100650707,None,,,1,0.1944636920234188,576.6502512310399,None,576.6502512310399,None,,,575.4829597050557,None,,,,,1,2022_Apr_01_0949,Real-fake-judgement-flashing-group1,2021.1.2
170,Trial # 18,Group1-stimuli/group1-block2/real-group1-b2/Group1_IMG_9821.jpg,1,Group1_IMG_9821.jpg,,,,,,,,,0.0,17.0,17.0,17.0,,,,,,,,,,,,,,,576.8669586660108,None,,,0,0.2853649910539388,579.3353189229965,None,579.3353189229965,None,,,578.1671888109995,None,,,,,1,2022_Apr_01_0949,Real-fake-judgement-flashing-group1,2021.1.2
171,Trial # 19,Group1-stimuli/group1-block2/fake-group2-b2/encoded_Group2_IMG_0388.jpg,0,encoded_Group2_IMG_0388.jpg,,,,,,,,,0.0,18.0,18.0,18.0,,,,,,,,,,,,,,,579.6522765130503,None,,,0,0.2943106079474091,582.1184069780866,None,582.1184069780866,None,,,580.9512646950316,None,,,,,1,2022_Apr_01_0949,Real-fake-judgement-flashing-group1,2021.1.2
172,Trial # 20,Group1-stimuli/group1-block2/fake-group2-b2/encoded_Group2_IMG_0222.jpg,0,encoded_Group2_IMG_0222.jpg,,,,,,,,,0.0,19.0,19.0,19.0,,,,,,,,,,,,,,,582.4357357450062,None,,,0,0.2615140150301158,584.9031698510516,None,584.9031698510516,None,,,583.7536326060072,None,,,,,1,2022_Apr_01_0949,Real-fake-judgement-flashing-group1,2021.1.2
173,Trial # 21,Group1-stimuli/group1-block2/fake-group2-b2/encoded_Group2_IMG_2215.jpg,0,encoded_Group2_IMG_2215.jpg,,,,,,,,,0.0,20.0,20.0,20.0,,,,,,,,,,,,,,,585.1862284640083,None,,,0,0.7991386930225417,587.6535539280158,None,587.6535539280158,None,,,586.4866020780755,None,,,,,1,2022_Apr_01_0949,Real-fake-judgement-flashing-group1,2021.1.2
174,Trial # 22,Group1-stimuli/group1-block2/real-group1-b2/Group1_IMG_9760.jpg,1,Group1_IMG_9760.jpg,,,,,,,,,0.0,21.0,21.0,21.0,,,,,,,,,,,,,,,588.4715104420902,None,,,1,0.097661220934242,590.954923729063,None,590.954923729063,None,,,589.7886232220335,None,,,,,1,2022_Apr_01_0949,Real-fake-judgement-flashing-group1,2021.1.2
175,Trial # 23,Group1-stimuli/group1-block2/real-group1-b2/Group1_IMG_9897.jpg,1,Group1_IMG_9897.jpg,,,,,,,,,0.0,22.0,22.0,22.0,,,,,,,,,,,,,,,591.0716702840291,None,,,1,0.1131520490162074,593.5555434840498,None,593.5555434840498,None,,,592.3883343000198,None,,,,,1,2022_Apr_01_0949,Real-fake-judgement-flashing-group1,2021.1.2
176,Trial # 24,Group1-stimuli/group1-block2/real-group1-b2/Group1_IMG_4250.jpg,1,Group1_IMG_4250.jpg,,,,,,,,,0.0,23.0,23.0,23.0,,,,,,,,,,,,,,,593.6899190510157,None,,,1,0.400022629997693,596.172651370056,None,596.172651370056,None,,,595.0395919400034,None,,,,,1,2022_Apr_01_0949,Real-fake-judgement-flashing-group1,2021.1.2
177,Trial # 25,Group1-stimuli/group1-block2/real-group1-b2/Group1_IMG_2244.jpg,1,Group1_IMG_2244.jpg,,,,,,,,,0.0,24.0,24.0,24.0,,,,,,,,,,,,,,,596.5899514290504,None,,,1,0.3710909090004861,599.0575930550694,None,599.0575930550694,None,,,597.9065060630674,None,,,,,1,2022_Apr_01_0949,Real-fake-judgement-flashing-group1,2021.1.2
178,Trial # 26,Group1-stimuli/group1-block2/fake-group2-b2/encoded_Group2_IMG_0501.jpg,0,encoded_Group2_IMG_0501.jpg,,,,,,,,,0.0,25.0,25.0,25.0,,,,,,,,,,,,,,,599.4577093600528,None,,,0,0.2720289609860629,601.9246551530669,None,601.9246551530669,None,,,600.7575416500913,None,,,,,1,2022_Apr_01_0949,Real-fake-judgement-flashing-group1,2021.1.2
179,Trial # 27,Group1-stimuli/group1-block2/real-group1-b2/Group1_IMG_9684.jpg,1,Group1_IMG_9684.jpg,,,,,,,,,0.0,26.0,26.0,26.0,,,,,,,,,,,,,,,602.2248421390541,None,,,1,0.3113306339364499,604.6933504170738,None,604.6933504170738,None,,,603.5428694210714,None,,,,,1,2022_Apr_01_0949,Real-fake-judgement-flashing-group1,2021.1.2
180,Trial # 28,Group1-stimuli/group1-block2/real-group1-b2/Group1_IMG_1039.jpg,1,Group1_IMG_1039.jpg,,,,,,,,,0.0,27.0,27.0,27.0,,,,,,,,,,,,,,,605.026470353012,None,,,1,0.3831558210076764,607.5095349940239,None,607.5095349940239,None,,,606.3430083700223,None,,,,,1,2022_Apr_01_0949,Real-fake-judgement-flashing-group1,2021.1.2
181,Trial # 29,Group1-stimuli/group1-block2/fake-group2-b2/encoded_Group2_IMG_0251.jpg,0,encoded_Group2_IMG_0251.jpg,,,,,,,,,0.0,28.0,28.0,28.0,,,,,,,,,,,,,,,607.9092950380873,None,,,0,0.2353947790106758,610.3773220640142,None,610.3773220640142,None,,,609.2111583340447,None,,,,,1,2022_Apr_01_0949,Real-fake-judgement-flashing-group1,2021.1.2
182,Trial # 30,Group1-stimuli/group1-block2/real-group1-b2/Group1_IMG_9692.jpg,1,Group1_IMG_9692.jpg,,,,,,,,,0.0,29.0,29.0,29.0,,,,,,,,,,,,,,,610.6454106570454,None,,,1,0.4122445500688627,613.12848596205,None,613.12848596205,None,,,611.9775552490028,None,,,,,1,2022_Apr_01_0949,Real-fake-judgement-flashing-group1,2021.1.2
183,Trial # 31,Group1-stimuli/group1-block2/real-group1-b2/Group1_IMG_0512.jpg,1,Group1_IMG_0512.jpg,,,,,,,,,0.0,30.0,30.0,30.0,,,,,,,,,,,,,,,613.5618315140018,None,,,1,0.3990555920172483,616.0456378069939,None,616.0456378069939,None,,,614.8790927780792,None,,,,,1,2022_Apr_01_0949,Real-fake-judgement-flashing-group1,2021.1.2
184,Trial # 32,Group1-stimuli/group1-block2/fake-group2-b2/encoded_Group2_IMG_9673.jpg,0,encoded_Group2_IMG_9673.jpg,,,,,,,,,0.0,31.0,31.0,31.0,,,,,,,,,,,,,,,616.4623603930231,None,,,0,0.3454826780362054,618.9312498420477,None,618.9312498420477,None,,,617.7793079860276,None,,,,,1,2022_Apr_01_0949,Real-fake-judgement-flashing-group1,2021.1.2
185,Trial # 33,Group1-stimuli/group1-block2/fake-group2-b2/encoded_Group2_IMG_5135.jpg,0,encoded_Group2_IMG_5135.jpg,,,,,,,,,0.0,32.0,32.0,32.0,,,,,,,,,,,,,,,619.2970095250057,None,,,0,1.2320263920119032,621.7646458710078,None,621.7646458710078,None,,,620.597106153029,None,,,,,1,2022_Apr_01_0949,Real-fake-judgement-flashing-group1,2021.1.2
186,Trial # 34,Group1-stimuli/group1-block2/real-group1-b2/Group1_IMG_0396.jpg,1,Group1_IMG_0396.jpg,,,,,,,,,0.0,33.0,33.0,33.0,,,,,,,,,,,,,,,623.014356559026,None,,,1,0.9069223429542036,625.481791769038,None,625.481791769038,None,,,624.332566838013,None,,,,,1,2022_Apr_01_0949,Real-fake-judgement-flashing-group1,2021.1.2
187,Trial # 35,Group1-stimuli/group1-block2/real-group1-b2/Group1_IMG_4919.jpg,1,Group1_IMG_4919.jpg,,,,,,,,,0.0,34.0,34.0,34.0,,,,,,,,,,,,,,,626.415853093029,None,,,1,0.4414383160183206,628.8832437080564,None,628.8832437080564,None,,,627.7157654010225,None,,,,,1,2022_Apr_01_0949,Real-fake-judgement-flashing-group1,2021.1.2
188,Trial # 36,Group1-stimuli/group1-block2/real-group1-b2/Group1_IMG_0449.jpg,1,Group1_IMG_0449.jpg,,,,,,,,,0.0,35.0,35.0,35.0,,,,,,,,,,,,,,,629.3499289050233,None,,,1,1.6103240210795775,631.8343949280679,None,631.8343949280679,None,,,630.6666607670486,None,,,,,1,2022_Apr_01_0949,Real-fake-judgement-flashing-group1,2021.1.2
189,Trial # 37,Group1-stimuli/group1-block2/fake-group2-b2/encoded_Group2_IMG_0539.jpg,0,encoded_Group2_IMG_0539.jpg,,,,,,,,,0.0,36.0,36.0,36.0,,,,,,,,,,,,,,,633.4690121590393,None,,,0,0.3247467799810692,635.9519371100469,None,635.9519371100469,None,,,634.7858342470136,None,,,,,1,2022_Apr_01_0949,Real-fake-judgement-flashing-group1,2021.1.2
190,Trial # 38,Group1-stimuli/group1-block2/real-group1-b2/Group1_IMG_0453.jpg,1,Group1_IMG_0453.jpg,,,,,,,,,0.0,37.0,37.0,37.0,,,,,,,,,,,,,,,636.3024591860594,None,,,1,0.3141867601079866,638.7704048180021,None,638.7704048180021,None,,,637.6188235509908,None,,,,,1,2022_Apr_01_0949,Real-fake-judgement-flashing-group1,2021.1.2
191,Trial # 39,Group1-stimuli/group1-block2/fake-group2-b2/encoded_Group2_IMG_0318.jpg,0,encoded_Group2_IMG_0318.jpg,,,,,,,,,0.0,38.0,38.0,38.0,,,,,,,,,,,,,,,639.1041136169806,None,,,1,0.3544656209414825,641.5702181140659,None,641.5702181140659,None,,,640.4030823870562,None,,,,,1,2022_Apr_01_0949,Real-fake-judgement-flashing-group1,2021.1.2
192,Trial # 40,Group1-stimuli/group1-block2/real-group1-b2/Group1_IMG_1678.jpg,1,Group1_IMG_1678.jpg,,,,,,,,,0.0,39.0,39.0,39.0,,,,,,,,,,,,,,,641.9530073440401,None,,,1,0.3663041950203478,644.4223911080044,None,644.4223911080044,None,,,643.2702312370529,None,,,,,1,2022_Apr_01_0949,Real-fake-judgement-flashing-group1,2021.1.2
193,Trial # 41,Group1-stimuli/group1-block2/fake-group2-b2/encoded_Group2_IMG_0325.jpg,0,encoded_Group2_IMG_0325.jpg,,,,,,,,,0.0,40.0,40.0,40.0,,,,,,,,,,,,,,,644.8060189710231,None,,,0,0.2999387590680271,647.2886724530254,None,647.2886724530254,None,,,646.121511146077,None,,,,,1,2022_Apr_01_0949,Real-fake-judgement-flashing-group1,2021.1.2
194,Trial # 42,Group1-stimuli/group1-block2/fake-group2-b2/encoded_Group2_IMG_9935.jpg,0,encoded_Group2_IMG_9935.jpg,,,,,,,,,0.0,41.0,41.0,41.0,,,,,,,,,,,,,,,647.605818664073,None,,,0,0.3066176800057292,650.0740642740857,None,650.0740642740857,None,,,648.9224414860364,None,,,,,1,2022_Apr_01_0949,Real-fake-judgement-flashing-group1,2021.1.2
195,Trial # 43,Group1-stimuli/group1-block2/fake-group2-b2/encoded_Group2_IMG_0308.jpg,0,encoded_Group2_IMG_0308.jpg,,,,,,,,,0.0,42.0,42.0,42.0,,,,,,,,,,,,,,,650.4062447519973,None,,,0,0.3390565600711852,652.8736248570494,None,652.8736248570494,None,,,651.7066065120744,None,,,,,1,2022_Apr_01_0949,Real-fake-judgement-flashing-group1,2021.1.2
196,Trial # 44,Group1-stimuli/group1-block2/real-group1-b2/Group1_IMG_0467.jpg,1,Group1_IMG_0467.jpg,,,,,,,,,0.0,43.0,43.0,43.0,,,,,,,,,,,,,,,653.239929103991,None,,,1,0.3208592359442264,655.7078234710498,None,655.7078234710498,None,,,654.5583893820876,None,,,,,1,2022_Apr_01_0949,Real-fake-judgement-flashing-group1,2021.1.2
197,Trial # 45,Group1-stimuli/group1-block2/fake-group2-b2/encoded_Group2_IMG_9839.jpg,0,encoded_Group2_IMG_9839.jpg,,,,,,,,,0.0,44.0,44.0,44.0,,,,,,,,,,,,,,,656.0585992730921,None,,,1,0.2139726700261235,658.5266447040485,None,658.5266447040485,None,,,657.3582588239806,None,,,,,1,2022_Apr_01_0949,Real-fake-judgement-flashing-group1,2021.1.2
198,Trial # 46,Group1-stimuli/group1-block2/fake-group2-b2/encoded_Group2_IMG_9681.jpg,0,encoded_Group2_IMG_9681.jpg,,,,,,,,,0.0,45.0,45.0,45.0,,,,,,,,,,,,,,,658.759989932063,None,,,1,0.2171820868970826,661.2434260440059,None,661.2434260440059,None,,,660.0605002590455,None,,,,,1,2022_Apr_01_0949,Real-fake-judgement-flashing-group1,2021.1.2
199,Trial # 47,Group1-stimuli/group1-block2/fake-group2-b2/encoded_Group2_IMG_0458.jpg,0,encoded_Group2_IMG_0458.jpg,,,,,,,,,0.0,46.0,46.0,46.0,,,,,,,,,,,,,,,661.493783575017,None,,,0,0.1966072890209034,663.9440764450701,None,663.9440764450701,None,,,662.77661880909,None,,,,,1,2022_Apr_01_0949,Real-fake-judgement-flashing-group1,2021.1.2
200,Trial # 48,Group1-stimuli/group1-block2/real-group1-b2/Group1_IMG_1095.jpg,1,Group1_IMG_1095.jpg,,,,,,,,,0.0,47.0,47.0,47.0,,,,,,,,,,,,,,,664.1619098170195,None,,,1,0.3200125900330022,666.6446712610777,None,666.6446712610777,None,,,665.4775986450259,None,,,,,1,2022_Apr_01_0949,Real-fake-judgement-flashing-group1,2021.1.2
201,Trial # 49,Group1-stimuli/group1-block2/fake-group2-b2/encoded_Group2_IMG_9710.jpg,0,encoded_Group2_IMG_9710.jpg,,,,,,,,,0.0,48.0,48.0,48.0,,,,,,,,,,,,,,,666.9947443730198,None,,,0,0.2855049980571493,669.4631791739957,None,669.4631791739957,None,,,668.3118665870279,None,,,,,1,2022_Apr_01_0949,Real-fake-judgement-flashing-group1,2021.1.2
202,Trial # 50,Group1-stimuli/group1-block2/fake-group2-b2/encoded_Group2_IMG_9819.jpg,0,encoded_Group2_IMG_9819.jpg,,,,,,,,,0.0,49.0,49.0,49.0,,,,,,,,,,,,,,,669.7789873160655,None,,,1,0.9022631900152192,672.2464209700702,None,672.2464209700702,None,,,671.0793968460057,None,,,,,1,2022_Apr_01_0949,Real-fake-judgement-flashing-group1,2021.1.2
203,Trial # 51,Group1-stimuli/group1-block2/real-group1-b2/Group1_IMG_0064.jpg,1,Group1_IMG_0064.jpg,,,,,,,,,0.0,50.0,50.0,50.0,,,,,,,,,,,,,,,673.1802013100823,None,,,1,0.324536980013363,675.6641447400907,None,675.6641447400907,None,,,674.4982166610425,None,,,,,1,2022_Apr_01_0949,Real-fake-judgement-flashing-group1,2021.1.2
204,Trial # 52,Group1-stimuli/group1-block2/fake-group2-b2/encoded_Group2_IMG_9756.jpg,0,encoded_Group2_IMG_9756.jpg,,,,,,,,,0.0,51.0,51.0,51.0,,,,,,,,,,,,,,,676.0140879000537,None,,,0,0.2339894640026614,678.498705295031,None,678.498705295031,None,,,677.33072550199,None,,,,,1,2022_Apr_01_0949,Real-fake-judgement-flashing-group1,2021.1.2
205,Trial # 53,Group1-stimuli/group1-block2/fake-group2-b2/encoded_Group2_IMG_5888.jpg,0,encoded_Group2_IMG_5888.jpg,,,,,,,,,0.0,52.0,52.0,52.0,,,,,,,,,,,,,,,678.7497836960247,None,,,0,1.349156646989286,681.1995166450506,None,681.1995166450506,None,,,680.0330873570638,None,,,,,1,2022_Apr_01_0949,Real-fake-judgement-flashing-group1,2021.1.2
206,Trial # 54,Group1-stimuli/group1-block2/real-group1-b2/Group1_IMG_1476.jpg,1,Group1_IMG_1476.jpg,,,,,,,,,0.0,53.0,53.0,53.0,,,,,,,,,,,,,,,682.5656169920694,None,,,1,0.386520211934112,685.0501645050244,None,685.0501645050244,None,,,683.8843255629763,None,,,,,1,2022_Apr_01_0949,Real-fake-judgement-flashing-group1,2021.1.2
207,Trial # 55,Group1-stimuli/group1-block2/real-group1-b2/Group1_IMG_1917.jpg,1,Group1_IMG_1917.jpg,,,,,,,,,0.0,54.0,54.0,54.0,,,,,,,,,,,,,,,685.4670607229928,None,,,1,0.3337655690265819,687.9509116089903,None,687.9509116089903,None,,,686.768280124059,None,,,,,1,2022_Apr_01_0949,Real-fake-judgement-flashing-group1,2021.1.2
208,Trial # 56,Group1-stimuli/group1-block2/real-group1-b2/Group1_IMG_0413.jpg,1,Group1_IMG_0413.jpg,,,,,,,,,0.0,55.0,55.0,55.0,,,,,,,,,,,,,,,688.3005348350853,None,,,1,0.5792883709073067,690.7853372690734,None,690.7853372690734,None,,,689.6197144140024,None,,,,,1,2022_Apr_01_0949,Real-fake-judgement-flashing-group1,2021.1.2
209,Trial # 57,Group1-stimuli/group1-block2/real-group1-b2/Group1_IMG_1001.jpg,1,Group1_IMG_1001.jpg,,,,,,,,,0.0,56.0,56.0,56.0,,,,,,,,,,,,,,,691.3854652330047,None,,,1,0.6392256369581446,693.8534579300322,None,693.8534579300322,None,,,692.686214469024,None,,,,,1,2022_Apr_01_0949,Real-fake-judgement-flashing-group1,2021.1.2
210,Trial # 58,Group1-stimuli/group1-block2/fake-group2-b2/encoded_Group2_IMG_0441.jpg,0,encoded_Group2_IMG_0441.jpg,,,,,,,,,0.0,57.0,57.0,57.0,,,,,,,,,,,,,,,694.5212467820384,None,,,0,0.1442137620178982,697.0044692109805,None,697.0044692109805,None,,,695.8369230760727,None,,,,,1,2022_Apr_01_0949,Real-fake-judgement-flashing-group1,2021.1.2
211,Trial # 59,Group1-stimuli/group1-block2/real-group1-b2/Group1_IMG_9774.jpg,1,Group1_IMG_9774.jpg,,,,,,,,,0.0,58.0,58.0,58.0,,,,,,,,,,,,,,,697.17080179404,None,,,1,1.0054701700573787,699.6392266179901,None,699.6392266179901,None,,,698.4890546130482,None,,,,,1,2022_Apr_01_0949,Real-fake-judgement-flashing-group1,2021.1.2
212,Trial # 60,Group1-stimuli/group1-block2/fake-group2-b2/encoded_Group2_IMG_2751.jpg,0,encoded_Group2_IMG_2751.jpg,,,,,,,,,0.0,59.0,59.0,59.0,,,,,,,,,,,,,,,700.6731672770111,None,,,1,0.5048843390541151,703.1557995310286,None,703.1557995310286,None,,,701.9888190800557,None,,,,,1,2022_Apr_01_0949,Real-fake-judgement-flashing-group1,2021.1.2
213,Trial # 61,Group1-stimuli/group1-block2/fake-group2-b2/encoded_Group2_IMG_0409.jpg,0,encoded_Group2_IMG_0409.jpg,,,,,,,,,0.0,60.0,60.0,60.0,,,,,,,,,,,,,,,703.690197091084,None,,,0,0.1197206559590995,706.1569746290334,None,706.1569746290334,None,,,704.9908678730717,None,,,,,1,2022_Apr_01_0949,Real-fake-judgement-flashing-group1,2021.1.2
214,Trial # 62,Group1-stimuli/group1-block2/real-group1-b2/Group1_IMG_1346.jpg,1,Group1_IMG_1346.jpg,,,,,,,,,0.0,61.0,61.0,61.0,,,,,,,,,,,,,,,706.3068323190091,None,,,1,0.2211480750702321,708.7755356130656,None,708.7755356130656,None,,,707.6239368000533,None,,,,,1,2022_Apr_01_0949,Real-fake-judgement-flashing-group1,2021.1.2
215,Trial # 63,Group1-stimuli/group1-block2/real-group1-b2/Group1_IMG_0481.jpg,1,Group1_IMG_0481.jpg,,,,,,,,,0.0,62.0,62.0,62.0,,,,,,,,,,,,,,,709.0259359200718,None,,,1,0.3528391669970006,711.4918617589865,None,711.4918617589865,None,,,710.3245873040287,None,,,,,1,2022_Apr_01_0949,Real-fake-judgement-flashing-group1,2021.1.2
216,Trial # 64,Group1-stimuli/group1-block2/fake-group2-b2/encoded_Group2_IMG_4718.jpg,0,encoded_Group2_IMG_4718.jpg,,,,,,,,,0.0,63.0,63.0,63.0,,,,,,,,,,,,,,,711.8753317700466,None,,,1,0.6934182299301028,714.3273131729802,None,714.3273131729802,None,,,713.159058306017,None,,,,,1,2022_Apr_01_0949,Real-fake-judgement-flashing-group1,2021.1.2
217,Trial # 65,Group1-stimuli/group1-block2/real-group1-b2/Group1_IMG_0540.jpg,1,Group1_IMG_0540.jpg,,,,,,,,,0.0,64.0,64.0,64.0,,,,,,,,,,,,,,,715.0440706349909,None,,,1,0.2696435549296438,717.5270398199791,None,717.5270398199791,None,,,716.4431794140255,None,,,,,1,2022_Apr_01_0949,Real-fake-judgement-flashing-group1,2021.1.2
218,Trial # 66,Group1-stimuli/group1-block2/fake-group2-b2/encoded_Group2_IMG_0166.jpg,0,encoded_Group2_IMG_0166.jpg,,,,,,,,,0.0,65.0,65.0,65.0,,,,,,,,,,,,,,,717.827285301988,None,,,0,0.2863107050070539,720.2783986490685,None,720.2783986490685,None,,,719.1118231000146,None,,,,,1,2022_Apr_01_0949,Real-fake-judgement-flashing-group1,2021.1.2
219,Trial # 67,Group1-stimuli/group1-block2/fake-group2-b2/encoded_Group2_IMG_0412.jpg,0,encoded_Group2_IMG_0412.jpg,,,,,,,,,0.0,66.0,66.0,66.0,,,,,,,,,,,,,,,720.594956630026,None,,,0,0.1352321809390559,723.0454824230401,None,723.0454824230401,None,,,721.8781805400504,None,,,,,1,2022_Apr_01_0949,Real-fake-judgement-flashing-group1,2021.1.2
220,Trial # 68,Group1-stimuli/group1-block2/real-group1-b2/Group1_IMG_0485.jpg,1,Group1_IMG_0485.jpg,,,,,,,,,0.0,67.0,67.0,67.0,,,,,,,,,,,,,,,723.2121683619916,None,,,1,0.3005224119406193,725.6961035709828,None,725.6961035709828,None,,,724.5304021710763,None,,,,,1,2022_Apr_01_0949,Real-fake-judgement-flashing-group1,2021.1.2
221,Trial # 69,Group1-stimuli/group1-block2/fake-group2-b2/encoded_Group2_IMG_1495.jpg,0,encoded_Group2_IMG_1495.jpg,,,,,,,,,0.0,68.0,68.0,68.0,,,,,,,,,,,,,,,726.0295081790537,None,,,0,0.4985213509062305,728.4981570380041,None,728.4981570380041,None,,,727.3301221310394,None,,,,,1,2022_Apr_01_0949,Real-fake-judgement-flashing-group1,2021.1.2
222,Trial # 70,Group1-stimuli/group1-block2/real-group1-b2/Group1_IMG_0426.jpg,1,Group1_IMG_0426.jpg,,,,,,,,,0.0,69.0,69.0,69.0,,,,,,,,,,,,,,,729.0153076410061,None,,,1,0.1235390619840473,731.481143805082,None,731.481143805082,None,,,730.3142205850454,None,,,,,1,2022_Apr_01_0949,Real-fake-judgement-flashing-group1,2021.1.2
223,Trial # 71,Group1-stimuli/group1-block2/real-group1-b2/Group1_IMG_0349.jpg,1,Group1_IMG_0349.jpg,,,,,,,,,0.0,70.0,70.0,70.0,,,,,,,,,,,,,,,731.6312393529806,None,,,1,0.2325838049873709,734.1001071770443,None,734.1001071770443,None,,,732.9480476250174,None,,,,,1,2022_Apr_01_0949,Real-fake-judgement-flashing-group1,2021.1.2
224,Trial # 72,Group1-stimuli/group1-block2/real-group1-b2/Group1_IMG_0414.jpg,1,Group1_IMG_0414.jpg,,,,,,,,,0.0,71.0,71.0,71.0,,,,,,,,,,,,,,,734.3495086809853,None,,,1,0.332225200952962,736.8164424319984,None,736.8164424319984,None,,,735.6491207100917,None,,,,,1,2022_Apr_01_0949,Real-fake-judgement-flashing-group1,2021.1.2
225,Trial # 73,Group1-stimuli/group1-block2/fake-group2-b2/encoded_Group2_IMG_9856.jpg,0,encoded_Group2_IMG_9856.jpg,,,,,,,,,0.0,72.0,72.0,72.0,,,,,,,,,,,,,,,737.1665468120482,None,,,0,0.1254860640037804,739.639218992088,None,739.639218992088,None,,,738.468261350994,None,,,,,1,2022_Apr_01_0949,Real-fake-judgement-flashing-group1,2021.1.2
226,Trial # 74,Group1-stimuli/group1-block2/fake-group2-b2/encoded_Group2_IMG_5313.jpg,0,encoded_Group2_IMG_5313.jpg,,,,,,,,,0.0,73.0,73.0,73.0,,,,,,,,,,,,,,,739.7845633670222,None,,,0,0.2086787730222568,742.268051368068,None,742.268051368068,None,,,741.1010496109957,None,,,,,1,2022_Apr_01_0949,Real-fake-judgement-flashing-group1,2021.1.2
227,Trial # 75,Group1-stimuli/group1-block2/fake-group2-b2/encoded_Group2_IMG_0421.jpg,0,encoded_Group2_IMG_0421.jpg,,,,,,,,,0.0,74.0,74.0,74.0,,,,,,,,,,,,,,,742.5015091300011,None,,,0,0.258817647001706,744.9698647439945,None,744.9698647439945,None,,,743.7863214180106,None,,,,,1,2022_Apr_01_0949,Real-fake-judgement-flashing-group1,2021.1.2
228,Trial # 76,Group1-stimuli/group1-block2/fake-group2-b2/encoded_Group2_IMG_0446.jpg,0,encoded_Group2_IMG_0446.jpg,,,,,,,,,0.0,75.0,75.0,75.0,,,,,,,,,,,,,,,745.2528621000238,None,,,0,0.0938735119998455,747.7028097100556,None,747.7028097100556,None,,,746.5358217620524,None,,,,,1,2022_Apr_01_0949,Real-fake-judgement-flashing-group1,2021.1.2
229,Trial # 77,Group1-stimuli/group1-block2/real-group1-b2/Group1_IMG_5999.jpg,1,Group1_IMG_5999.jpg,,,,,,,,,0.0,76.0,76.0,76.0,,,,,,,,,,,,,,,747.8198321730597,None,,,1,0.0934731479501351,750.2872219760902,None,750.2872219760902,None,,,749.1378677380271,None,,,,,1,2022_Apr_01_0949,Real-fake-judgement-flashing-group1,2021.1.2
230,Trial # 78,Group1-stimuli/group1-block2/real-group1-b2/Group1_IMG_0107.jpg,1,Group1_IMG_0107.jpg,,,,,,,,,0.0,77.0,77.0,77.0,,,,,,,,,,,,,,,750.404222904006,None,,,1,0.2929478929145261,752.8877821729984,None,752.8877821729984,None,,,751.7040705169784,None,,,,,1,2022_Apr_01_0949,Real-fake-judgement-flashing-group1,2021.1.2
231,Trial # 79,Group1-stimuli/group1-block2/fake-group2-b2/encoded_Group2_IMG_0322.jpg,0,encoded_Group2_IMG_0322.jpg,,,,,,,,,0.0,78.0,78.0,78.0,,,,,,,,,,,,,,,753.2044952569995,None,,,0,0.3877876530168578,755.6889144630404,None,755.6889144630404,None,,,754.5230170299765,None,,,,,1,2022_Apr_01_0949,Real-fake-judgement-flashing-group1,2021.1.2
232,Trial # 80,Group1-stimuli/group1-block2/fake-group2-b2/encoded_Group2_IMG_4255.jpg,0,encoded_Group2_IMG_4255.jpg,,,,,,,,,0.0,79.0,79.0,79.0,,,,,,,,,,,,,,,756.1057676890632,None,,,0,0.0951543400296941,758.573539330042,None,758.573539330042,None,,,757.4059538639849,None,,,,,1,2022_Apr_01_0949,Real-fake-judgement-flashing-group1,2021.1.2
233,Trial # 81,Group1-stimuli/group1-block2/fake-group2-b2/encoded_Group2_IMG_0219.jpg,0,encoded_Group2_IMG_0219.jpg,,,,,,,,,0.0,80.0,80.0,80.0,,,,,,,,,,,,,,,758.6911532570375,None,,,0,0.1123745080549269,761.1403536800062,None,761.1403536800062,None,,,759.9745161790634,None,,,,,1,2022_Apr_01_0949,Real-fake-judgement-flashing-group1,2021.1.2
234,Trial # 82,Group1-stimuli/group1-block2/real-group1-b2/Group1_IMG_0548.jpg,1,Group1_IMG_0548.jpg,,,,,,,,,0.0,81.0,81.0,81.0,,,,,,,,,,,,,,,761.2739146570675,None,,,1,0.1258989110356196,763.7427715290105,None,763.7427715290105,None,,,762.5907811530633,None,,,,,1,2022_Apr_01_0949,Real-fake-judgement-flashing-group1,2021.1.2
235,Trial # 83,Group1-stimuli/group1-block2/real-group1-b2/Group1_IMG_0229.jpg,1,Group1_IMG_0229.jpg,,,,,,,,,0.0,82.0,82.0,82.0,,,,,,,,,,,,,,,763.8917525340803,None,,,1,0.6131219399394467,766.3755609800573,None,766.3755609800573,None,,,765.2094079770613,None,,,,,1,2022_Apr_01_0949,Real-fake-judgement-flashing-group1,2021.1.2
236,Trial # 84,Group1-stimuli/group1-block2/fake-group2-b2/encoded_Group2_IMG_0365.jpg,0,encoded_Group2_IMG_0365.jpg,,,,,,,,,0.0,83.0,83.0,83.0,,,,,,,,,,,,,,,767.0097275670851,None,,,1,0.431067022960633,769.477673941059,None,769.477673941059,None,,,768.3092441380722,None,,,,,1,2022_Apr_01_0949,Real-fake-judgement-flashing-group1,2021.1.2
237,Trial # 85,Group1-stimuli/group1-block2/real-group1-b2/Group1_IMG_9822.jpg,1,Group1_IMG_9822.jpg,,,,,,,,,0.0,84.0,84.0,84.0,,,,,,,,,,,,,,,769.9271538220346,None,,,1,0.1219546860083937,772.410728919087,None,772.410728919087,None,,,771.2436144410167,None,,,,,1,2022_Apr_01_0949,Real-fake-judgement-flashing-group1,2021.1.2
238,Trial # 86,Group1-stimuli/group1-block2/fake-group2-b2/encoded_Group2_IMG_0195.jpg,0,encoded_Group2_IMG_0195.jpg,,,,,,,,,0.0,85.0,85.0,85.0,,,,,,,,,,,,,,,772.5607018040027,None,,,0,0.6557394900592044,775.0449429859873,None,775.0449429859873,None,,,773.8622862329939,None,,,,,1,2022_Apr_01_0949,Real-fake-judgement-flashing-group1,2021.1.2
239,Trial # 87,Group1-stimuli/group1-block2/fake-group2-b2/encoded_Group2_IMG_0494.jpg,0,encoded_Group2_IMG_0494.jpg,,,,,,,,,0.0,86.0,86.0,86.0,,,,,,,,,,,,,,,775.7288433390204,None,,,0,0.2564642770448699,778.1961740020197,None,778.1961740020197,None,,,777.02856191108,None,,,,,1,2022_Apr_01_0949,Real-fake-judgement-flashing-group1,2021.1.2
240,Trial # 88,Group1-stimuli/group1-block2/real-group1-b2/Group1_IMG_0509.jpg,1,Group1_IMG_0509.jpg,,,,,,,,,0.0,87.0,87.0,87.0,,,,,,,,,,,,,,,778.4807735390496,None,,,1,0.249969813041389,780.9466384750558,None,780.9466384750558,None,,,779.7806235409807,None,,,,,1,2022_Apr_01_0949,Real-fake-judgement-flashing-group1,2021.1.2
241,Trial # 89,Group1-stimuli/group1-block2/fake-group2-b2/encoded_Group2_IMG_8924.jpg,0,encoded_Group2_IMG_8924.jpg,,,,,,,,,0.0,88.0,88.0,88.0,,,,,,,,,,,,,,,781.2309272179846,None,,,0,0.7150365500710905,783.6976659659995,None,783.6976659659995,None,,,782.5474059460685,None,,,,,1,2022_Apr_01_0949,Real-fake-judgement-flashing-group1,2021.1.2
242,Trial # 90,Group1-stimuli/group1-block2/real-group1-b2/Group1_IMG_0360.jpg,1,Group1_IMG_0360.jpg,,,,,,,,,0.0,89.0,89.0,89.0,,,,,,,,,,,,,,,784.4309235640103,None,,,1,0.289787279907614,786.9149096810725,None,786.9149096810725,None,,,785.7479274719954,None,,,,,1,2022_Apr_01_0949,Real-fake-judgement-flashing-group1,2021.1.2
243,Trial # 91,Group1-stimuli/group1-block2/fake-group2-b2/encoded_Group2_IMG_0523.jpg,0,encoded_Group2_IMG_0523.jpg,,,,,,,,,0.0,90.0,90.0,90.0,,,,,,,,,,,,,,,787.2324123739963,None,,,1,0.400152568006888,789.7005555999931,None,789.7005555999931,None,,,788.5666927470593,None,,,,,1,2022_Apr_01_0949,Real-fake-judgement-flashing-group1,2021.1.2
244,Trial # 92,Group1-stimuli/group1-block2/real-group1-b2/Group1_IMG_0518.jpg,1,Group1_IMG_0518.jpg,,,,,,,,,0.0,91.0,91.0,91.0,,,,,,,,,,,,,,,790.1163949640468,None,,,1,0.1491425440181046,792.5835407050326,None,792.5835407050326,None,,,791.4162530540489,None,,,,,1,2022_Apr_01_0949,Real-fake-judgement-flashing-group1,2021.1.2
245,Trial # 93,Group1-stimuli/group1-block2/fake-group2-b2/encoded_Group2_IMG_0372.jpg,0,encoded_Group2_IMG_0372.jpg,,,,,,,,,0.0,92.0,92.0,92.0,,,,,,,,,,,,,,,792.7496380800148,None,,,0,0.3296434809453785,795.2190996339777,None,795.2190996339777,None,,,794.0518178810598,None,,,,,1,2022_Apr_01_0949,Real-fake-judgement-flashing-group1,2021.1.2
246,Trial # 94,Group1-stimuli/group1-block2/fake-group2-b2/encoded_Group2_IMG_9761.jpg,0,encoded_Group2_IMG_9761.jpg,,,,,,,,,0.0,93.0,93.0,93.0,,,,,,,,,,,,,,,795.5687859200407,None,,,1,0.3134494189871475,798.0352541020839,None,798.0352541020839,None,,,796.8682155730203,None,,,,,1,2022_Apr_01_0949,Real-fake-judgement-flashing-group1,2021.1.2
247,Trial # 95,Group1-stimuli/group1-block2/real-group1-b2/Group1_IMG_2690.jpg,1,Group1_IMG_2690.jpg,,,,,,,,,0.0,94.0,94.0,94.0,,,,,,,,,,,,,,,798.3684750720859,None,,,1,0.2726055660750717,800.8360857190564,None,800.8360857190564,None,,,799.6867539880332,None,,,,,1,2022_Apr_01_0949,Real-fake-judgement-flashing-group1,2021.1.2
248,Trial # 96,Group1-stimuli/group1-block2/real-group1-b2/Group1_IMG_9855.jpg,1,Group1_IMG_9855.jpg,,,,,,,,,0.0,95.0,95.0,95.0,,,,,,,,,,,,,,,801.1364455320872,None,,,1,0.320070510962978,803.620619590045,None,803.620619590045,None,,,802.4537587480154,None,,,,,1,2022_Apr_01_0949,Real-fake-judgement-flashing-group1,2021.1.2
249,Trial # 97,Group1-stimuli/group1-block2/fake-group2-b2/encoded_Group2_IMG_0470.jpg,0,encoded_Group2_IMG_0470.jpg,,,,,,,,,0.0,96.0,96.0,96.0,,,,,,,,,,,,,,,803.9717043010751,None,,,0,0.3260844439500943,806.4545969150495,None,806.4545969150495,None,,,805.272094721091,None,,,,,1,2022_Apr_01_0949,Real-fake-judgement-flashing-group1,2021.1.2
250,Trial # 98,Group1-stimuli/group1-block2/fake-group2-b2/encoded_Group2_IMG_1191.jpg,0,encoded_Group2_IMG_1191.jpg,,,,,,,,,0.0,97.0,97.0,97.0,,,,,,,,,,,,,,,806.8049585050903,None,,,1,0.611684905947186,809.2729965850012,None,809.2729965850012,None,,,808.1049034860916,None,,,,,1,2022_Apr_01_0949,Real-fake-judgement-flashing-group1,2021.1.2
251,Trial # 99,Group1-stimuli/group1-block2/real-group1-b2/Group1_IMG_9937.jpg,1,Group1_IMG_9937.jpg,,,,,,,,,0.0,98.0,98.0,98.0,,,,,,,,,,,,,,,809.9071156510618,None,,,1,0.2149118339875713,812.389672670979,None,812.389672670979,None,,,811.2226842350792,None,,,,,1,2022_Apr_01_0949,Real-fake-judgement-flashing-group1,2021.1.2
252,Trial # 100,Group1-stimuli/group1-block2/fake-group2-b2/encoded_Group2_IMG_0106.jpg,0,encoded_Group2_IMG_0106.jpg,,,,,,,,,0.0,99.0,99.0,99.0,,,,,,,,,,,,,,,812.6235346400645,None,,,0,0.2896292029181495,815.0750676820753,None,815.0750676820753,None,,,813.9078702430706,None,,,,,1,2022_Apr_01_0949,Real-fake-judgement-flashing-group1,2021.1.2
253,Trial # 101,Group1-stimuli/group1-block2/real-group1-b2/Group1_IMG_2790.jpg,1,Group1_IMG_2790.jpg,,,,,,,,,0.0,100.0,100.0,100.0,,,,,,,,,,,,,,,815.3904687640024,None,,,1,0.3141822810284793,817.874493225012,None,817.874493225012,None,,,816.6907006610418,None,,,,,1,2022_Apr_01_0949,Real-fake-judgement-flashing-group1,2021.1.2
254,Trial # 102,Group1-stimuli/group1-block2/real-group1-b2/Group1_IMG_9792.jpg,1,Group1_IMG_9792.jpg,,,,,,,,,0.0,101.0,101.0,101.0,,,,,,,,,,,,,,,818.2086133849807,None,,,1,0.1211462190840393,820.675544223981,None,820.675544223981,None,,,819.5262758410536,None,,,,,1,2022_Apr_01_0949,Real-fake-judgement-flashing-group1,2021.1.2
255,Trial # 103,Group1-stimuli/group1-block2/real-group1-b2/Group1_IMG_1640.jpg,1,Group1_IMG_1640.jpg,,,,,,,,,0.0,102.0,102.0,102.0,,,,,,,,,,,,,,,820.8257393330568,None,,,1,0.3035809400025755,823.293109866092,None,823.293109866092,None,,,822.1262456970289,None,,,,,1,2022_Apr_01_0949,Real-fake-judgement-flashing-group1,2021.1.2
256,Trial # 104,Group1-stimuli/group1-block2/real-group1-b2/Group1_IMG_0033.jpg,1,Group1_IMG_0033.jpg,,,,,,,,,0.0,103.0,103.0,103.0,,,,,,,,,,,,,,,823.6275534450542,None,,,0,1.2140859490027651,826.1105326430406,None,826.1105326430406,None,,,824.9447970240144,None,,,,,1,2022_Apr_01_0949,Real-fake-judgement-flashing-group1,2021.1.2
257,Trial # 105,Group1-stimuli/group1-block2/real-group1-b2/Group1_IMG_0079.jpg,1,Group1_IMG_0079.jpg,,,,,,,,,0.0,104.0,104.0,104.0,,,,,,,,,,,,,,,827.3449313170277,None,,,1,0.3671513859881088,829.82945371198,None,829.82945371198,None,,,828.6624130720738,None,,,,,1,2022_Apr_01_0949,Real-fake-judgement-flashing-group1,2021.1.2
258,Trial # 106,Group1-stimuli/group1-block2/fake-group2-b2/encoded_Group2_IMG_9909.jpg,0,encoded_Group2_IMG_9909.jpg,,,,,,,,,0.0,105.0,105.0,105.0,,,,,,,,,,,,,,,830.2284637950361,None,,,0,0.196805119048804,832.6958842510357,None,832.6958842510357,None,,,831.5622656909982,None,,,,,1,2022_Apr_01_0949,Real-fake-judgement-flashing-group1,2021.1.2
259,Trial # 107,Group1-stimuli/group1-block2/fake-group2-b2/encoded_Group2_IMG_0398.jpg,0,encoded_Group2_IMG_0398.jpg,,,,,,,,,0.0,106.0,106.0,106.0,,,,,,,,,,,,,,,832.9128724990878,None,,,0,0.3045387810561806,835.3801520300331,None,835.3801520300331,None,,,834.2141559440643,None,,,,,1,2022_Apr_01_0949,Real-fake-judgement-flashing-group1,2021.1.2
260,Trial # 108,Group1-stimuli/group1-block2/real-group1-b2/Group1_IMG_4268.jpg,1,Group1_IMG_4268.jpg,,,,,,,,,0.0,107.0,107.0,107.0,,,,,,,,,,,,,,,835.7147671789862,None,,,1,0.1910301939351484,838.1976609780686,None,838.1976609780686,None,,,837.0305648520589,None,,,,,1,2022_Apr_01_0949,Real-fake-judgement-flashing-group1,2021.1.2
261,Trial # 109,Group1-stimuli/group1-block2/fake-group2-b2/encoded_Group2_IMG_9321.jpg,0,encoded_Group2_IMG_9321.jpg,,,,,,,,,0.0,108.0,108.0,108.0,,,,,,,,,,,,,,,838.4149526599795,None,,,1,0.4749500900506973,840.8817040569847,None,840.8817040569847,None,,,839.6993873349857,None,,,,,1,2022_Apr_01_0949,Real-fake-judgement-flashing-group1,2021.1.2
262,Trial # 110,Group1-stimuli/group1-block2/fake-group2-b2/encoded_Group2_IMG_9964.jpg,0,encoded_Group2_IMG_9964.jpg,,,,,,,,,0.0,109.0,109.0,109.0,,,,,,,,,,,,,,,841.3828714949777,None,,,0,0.3068194340448826,843.8498717150651,None,843.8498717150651,None,,,842.6822832800681,None,,,,,1,2022_Apr_01_0949,Real-fake-judgement-flashing-group1,2021.1.2
263,Trial # 111,Group1-stimuli/group1-block2/real-group1-b2/Group1_IMG_0329.jpg,1,Group1_IMG_0329.jpg,,,,,,,,,0.0,110.0,110.0,110.0,,,,,,,,,,,,,,,844.1835111799883,None,,,1,0.2736931019462645,846.6669989300426,None,846.6669989300426,None,,,845.4997371439822,None,,,,,1,2022_Apr_01_0949,Real-fake-judgement-flashing-group1,2021.1.2
264,Trial # 112,Group1-stimuli/group1-block2/fake-group2-b2/encoded_Group2_IMG_0534.jpg,0,encoded_Group2_IMG_0534.jpg,,,,,,,,,0.0,111.0,111.0,111.0,,,,,,,,,,,,,,,846.9674350050045,None,,,0,0.3856767830438912,849.4350150100654,None,849.4350150100654,None,,,848.2668464990566,None,,,,,1,2022_Apr_01_0949,Real-fake-judgement-flashing-group1,2021.1.2
265,Trial # 113,Group1-stimuli/group1-block2/fake-group2-b2/encoded_Group2_IMG_0054.jpg,0,encoded_Group2_IMG_0054.jpg,,,,,,,,,0.0,112.0,112.0,112.0,,,,,,,,,,,,,,,849.8523422940634,None,,,0,0.2859128200216219,852.3187213100027,None,852.3187213100027,None,,,851.1514641949907,None,,,,,1,2022_Apr_01_0949,Real-fake-judgement-flashing-group1,2021.1.2
266,Trial # 114,Group1-stimuli/group1-block2/real-group1-b2/Group1_IMG_9979.jpg,1,Group1_IMG_9979.jpg,,,,,,,,,0.0,113.0,113.0,113.0,,,,,,,,,,,,,,,852.6358410030371,None,,,1,0.3160074539482593,855.1206933140056,None,855.1206933140056,None,,,853.9371104870224,None,,,,,1,2022_Apr_01_0949,Real-fake-judgement-flashing-group1,2021.1.2
267,Trial # 115,Group1-stimuli/group1-block2/real-group1-b2/Group1_IMG_0170.jpg,1,Group1_IMG_0170.jpg,,,,,,,,,0.0,114.0,114.0,114.0,,,,,,,,,,,,,,,855.4528778850799,None,,,1,0.2835448950063437,857.9371189019876,None,857.9371189019876,None,,,856.7699033219833,None,,,,,1,2022_Apr_01_0949,Real-fake-judgement-flashing-group1,2021.1.2
268,Trial # 116,Group1-stimuli/group1-block2/fake-group2-b2/encoded_Group2_IMG_0007.jpg,0,encoded_Group2_IMG_0007.jpg,,,,,,,,,0.0,115.0,115.0,115.0,,,,,,,,,,,,,,,858.2534735209774,None,,,0,1.1387703699292615,860.737922144006,None,860.737922144006,None,,,859.5555567910196,None,,,,,1,2022_Apr_01_0949,Real-fake-judgement-flashing-group1,2021.1.2
269,Trial # 117,Group1-stimuli/group1-block2/real-group1-b2/Group1_IMG_0192.jpg,1,Group1_IMG_0192.jpg,,,,,,,,,0.0,116.0,116.0,116.0,,,,,,,,,,,,,,,861.9053217710461,None,,,1,0.1357674519531428,864.3729252970079,None,864.3729252970079,None,,,863.2221180620836,None,,,,,1,2022_Apr_01_0949,Real-fake-judgement-flashing-group1,2021.1.2
270,Trial # 118,Group1-stimuli/group1-block2/real-group1-b2/Group1_IMG_9786.jpg,1,Group1_IMG_9786.jpg,,,,,,,,,0.0,117.0,117.0,117.0,,,,,,,,,,,,,,,864.5401806030422,None,,,1,0.0607084620278328,867.0399820130551,None,867.0399820130551,None,,,865.8562363380333,None,,,,,1,2022_Apr_01_0949,Real-fake-judgement-flashing-group1,2021.1.2
271,Trial # 119,Group1-stimuli/group1-block2/real-group1-b2/Group1_IMG_0187.jpg,1,Group1_IMG_0187.jpg,,,,,,,,,0.0,118.0,118.0,118.0,,,,,,,,,,,,,,,867.1232844439801,None,,,1,0.2375941149657592,869.5910986150848,None,869.5910986150848,None,,,868.4582608920755,None,,,,,1,2022_Apr_01_0949,Real-fake-judgement-flashing-group1,2021.1.2
272,Trial # 120,Group1-stimuli/group1-block2/fake-group2-b2/encoded_Group2_IMG_0249.jpg,0,encoded_Group2_IMG_0249.jpg,,,,,,,,,0.0,119.0,119.0,119.0,,,,,,,,,,,,,,,869.8576700610574,None,,,0,0.2077761020045727,872.3249175579986,None,872.3249175579986,None,,,871.157766652992,None,,,,,1,2022_Apr_01_0949,Real-fake-judgement-flashing-group1,2021.1.2
273,Trial # 121,Group1-stimuli/group1-block2/fake-group2-b2/encoded_Group2_IMG_0074.jpg,0,encoded_Group2_IMG_0074.jpg,,,,,,,,,0.0,120.0,120.0,120.0,,,,,,,,,,,,,,,872.5583892590366,None,,,0,1.3938132210168988,875.0268738500308,None,875.0268738500308,None,,,873.8598154319916,None,,,,,1,2022_Apr_01_0949,Real-fake-judgement-flashing-group1,2021.1.2
274,Trial # 122,Group1-stimuli/group1-block2/real-group1-b2/Group1_IMG_0243.jpg,1,Group1_IMG_0243.jpg,,,,,,,,,0.0,121.0,121.0,121.0,,,,,,,,,,,,,,,876.4435731139965,None,,,0,0.6374859440838918,878.9272195460508,None,878.9272195460508,None,,,877.7597765240353,None,,,,,1,2022_Apr_01_0949,Real-fake-judgement-flashing-group1,2021.1.2
275,Trial # 123,Group1-stimuli/group1-block2/real-group1-b2/Group1_IMG_0130.jpg,1,Group1_IMG_0130.jpg,,,,,,,,,0.0,122.0,122.0,122.0,,,,,,,,,,,,,,,879.5951461730292,None,,,1,0.1905491069192066,882.0781811720226,None,882.0781811720226,None,,,880.9107841859804,None,,,,,1,2022_Apr_01_0949,Real-fake-judgement-flashing-group1,2021.1.2
276,Trial # 124,Group1-stimuli/group1-block2/real-group1-b2/Group1_IMG_0298.jpg,1,Group1_IMG_0298.jpg,,,,,,,,,0.0,123.0,123.0,123.0,,,,,,,,,,,,,,,882.2943561930442,None,,,1,0.3063437169184908,884.7623460900504,None,884.7623460900504,None,,,883.5960484080715,None,,,,,1,2022_Apr_01_0949,Real-fake-judgement-flashing-group1,2021.1.2
277,Trial # 125,Group1-stimuli/group1-block2/real-group1-b2/Group1_IMG_5871.jpg,1,Group1_IMG_5871.jpg,,,,,,,,,0.0,124.0,124.0,124.0,,,,,,,,,,,,,,,885.0968574590515,None,,,1,0.1138894750038161,887.5628020620206,None,887.5628020620206,None,,,886.395785703091,None,,,,,1,2022_Apr_01_0949,Real-fake-judgement-flashing-group1,2021.1.2
278,Trial # 126,Group1-stimuli/group1-block2/fake-group2-b2/encoded_Group2_IMG_0479.jpg,0,encoded_Group2_IMG_0479.jpg,,,,,,,,,0.0,125.0,125.0,125.0,,,,,,,,,,,,,,,887.696392184007,None,,,0,0.3270558749791235,890.1816725990502,None,890.1816725990502,None,,,888.9967993070604,None,,,,,1,2022_Apr_01_0949,Real-fake-judgement-flashing-group1,2021.1.2
279,Trial # 127,Group1-stimuli/group1-block2/fake-group2-b2/encoded_Group2_IMG_4971.jpg,0,encoded_Group2_IMG_4971.jpg,,,,,,,,,0.0,126.0,126.0,126.0,,,,,,,,,,,,,,,890.5305295530707,None,,,0,0.1187009860295802,892.9979818970896,None,892.9979818970896,None,,,891.8306682200637,None,,,,,1,2022_Apr_01_0949,Real-fake-judgement-flashing-group1,2021.1.2
280,Trial # 128,Group1-stimuli/group1-block2/real-group1-b2/Group1_IMG_0173.jpg,1,Group1_IMG_0173.jpg,,,,,,,,,0.0,127.0,127.0,127.0,,,,,,,,,,,,,,,893.1480825879844,None,,,1,0.2773103880463168,895.6154173599789,None,895.6154173599789,None,,,894.4493467870634,None,,,,,1,2022_Apr_01_0949,Real-fake-judgement-flashing-group1,2021.1.2
281,Trial # 129,Group1-stimuli/group1-block2/real-group1-b2/Group1_IMG_0213.jpg,1,Group1_IMG_0213.jpg,,,,,,,,,0.0,128.0,128.0,128.0,,,,,,,,,,,,,,,895.9159594490193,None,,,1,0.8052231530891731,898.3994702070486,None,898.3994702070486,None,,,897.2328850980848,None,,,,,1,2022_Apr_01_0949,Real-fake-judgement-flashing-group1,2021.1.2
282,Trial # 130,Group1-stimuli/group1-block2/fake-group2-b2/encoded_Group2_IMG_0260.jpg,0,encoded_Group2_IMG_0260.jpg,,,,,,,,,0.0,129.0,129.0,129.0,,,,,,,,,,,,,,,899.2345349810785,None,,,0,0.3124231860274449,901.7002661350416,None,901.7002661350416,None,,,900.5334304100834,None,,,,,1,2022_Apr_01_0949,Real-fake-judgement-flashing-group1,2021.1.2
283,Trial # 131,Group1-stimuli/group1-block2/fake-group2-b2/encoded_Group2_IMG_7291.jpg,0,encoded_Group2_IMG_7291.jpg,,,,,,,,,0.0,130.0,130.0,130.0,,,,,,,,,,,,,,,902.0339435409988,None,,,0,0.189997295034118,904.5027346670396,None,904.5027346670396,None,,,903.3343939370244,None,,,,,1,2022_Apr_01_0949,Real-fake-judgement-flashing-group1,2021.1.2
284,Trial # 132,Group1-stimuli/group1-block2/fake-group2-b2/encoded_Group2_IMG_0176.jpg,0,encoded_Group2_IMG_0176.jpg,,,,,,,,,0.0,131.0,131.0,131.0,,,,,,,,,,,,,,,904.7187091090018,None,,,0,1.1862453100038692,907.2024464430287,None,907.2024464430287,None,,,906.035339113092,None,,,,,1,2022_Apr_01_0949,Real-fake-judgement-flashing-group1,2021.1.2
285,Trial # 133,Group1-stimuli/group1-block2/real-group1-b2/Group1_IMG_9699.jpg,1,Group1_IMG_9699.jpg,,,,,,,,,0.0,132.0,132.0,132.0,,,,,,,,,,,,,,,908.4198133220198,None,,,1,0.2290638539707288,910.8876411709934,None,910.8876411709934,None,,,909.7375706280582,None,,,,,1,2022_Apr_01_0949,Real-fake-judgement-flashing-group1,2021.1.2
286,Trial # 134,Group1-stimuli/group1-block2/real-group1-b2/Group1_IMG_0381.jpg,1,Group1_IMG_0381.jpg,,,,,,,,,0.0,133.0,133.0,133.0,,,,,,,,,,,,,,,911.1372787849978,None,,,1,0.2800259239738807,913.6047187959776,None,913.6047187959776,None,,,912.436632819008,None,,,,,1,2022_Apr_01_0949,Real-fake-judgement-flashing-group1,2021.1.2
287,Trial # 135,Group1-stimuli/group1-block2/real-group1-b2/Group1_IMG_0309.jpg,1,Group1_IMG_0309.jpg,,,,,,,,,0.0,134.0,134.0,134.0,,,,,,,,,,,,,,,913.9047026350164,None,,,1,0.1209124010056257,916.371776881977,None,916.371776881977,None,,,915.2046796539798,None,,,,,1,2022_Apr_01_0949,Real-fake-judgement-flashing-group1,2021.1.2
288,Trial # 136,Group1-stimuli/group1-block2/fake-group2-b2/encoded_Group2_IMG_0041.jpg,0,encoded_Group2_IMG_0041.jpg,,,,,,,,,0.0,135.0,135.0,135.0,,,,,,,,,,,,,,,916.5220470069908,None,,,1,0.2717525970656425,918.9729522980052,None,918.9729522980052,None,,,917.8060058050324,None,,,,,1,2022_Apr_01_0949,Real-fake-judgement-flashing-group1,2021.1.2
289,Trial # 137,Group1-stimuli/group1-block2/real-group1-b2/Group1_IMG_0303.jpg,1,Group1_IMG_0303.jpg,,,,,,,,,0.0,136.0,136.0,136.0,,,,,,,,,,,,,,,919.2740684869932,None,,,1,0.1432037559570744,921.7734867919936,None,921.7734867919936,None,,,920.6564414760796,None,,,,,1,2022_Apr_01_0949,Real-fake-judgement-flashing-group1,2021.1.2
290,Trial # 138,Group1-stimuli/group1-block2/fake-group2-b2/encoded_Group2_IMG_0419.jpg,0,encoded_Group2_IMG_0419.jpg,,,,,,,,,0.0,137.0,137.0,137.0,,,,,,,,,,,,,,,921.9401716830909,None,,,0,0.1639556019799783,924.4246897540288,None,924.4246897540288,None,,,923.2571419100276,None,,,,,1,2022_Apr_01_0949,Real-fake-judgement-flashing-group1,2021.1.2
291,Trial # 139,Group1-stimuli/group1-block2/real-group1-b2/Group1_IMG_0384.jpg,1,Group1_IMG_0384.jpg,,,,,,,,,0.0,138.0,138.0,138.0,,,,,,,,,,,,,,,924.6090095610124,None,,,1,0.3368907129624858,927.0918973550432,None,927.0918973550432,None,,,925.9247166169808,None,,,,,1,2022_Apr_01_0949,Real-fake-judgement-flashing-group1,2021.1.2
292,Trial # 140,Group1-stimuli/group1-block2/real-group1-b2/Group1_IMG_0147.jpg,1,Group1_IMG_0147.jpg,,,,,,,,,0.0,139.0,139.0,139.0,,,,,,,,,,,,,,,927.4591806969838,None,,,1,0.2304069850360974,929.9262667900184,None,929.9262667900184,None,,,928.776727644028,None,,,,,1,2022_Apr_01_0949,Real-fake-judgement-flashing-group1,2021.1.2
293,Trial # 141,Group1-stimuli/group1-block2/real-group1-b2/Group1_IMG_9725.jpg,1,Group1_IMG_9725.jpg,,,,,,,,,0.0,140.0,140.0,140.0,,,,,,,,,,,,,,,930.1762058830354,None,,,1,0.0886696350062266,932.6600208060116,None,932.6600208060116,None,,,931.4931393209844,None,,,,,1,2022_Apr_01_0949,Real-fake-judgement-flashing-group1,2021.1.2
294,Trial # 142,Group1-stimuli/group1-block2/real-group1-b2/Group1_IMG_0341.jpg,1,Group1_IMG_0341.jpg,,,,,,,,,0.0,141.0,141.0,141.0,,,,,,,,,,,,,,,932.7773743380094,None,,,1,0.3510645409114659,935.2455540050288,None,935.2455540050288,None,,,934.0782589580632,None,,,,,1,2022_Apr_01_0949,Real-fake-judgement-flashing-group1,2021.1.2
