,Trial_num,image_path,ground_truth,image_name,demos.thisRepN,demos.thisTrialN,demos.thisN,demos.thisIndex,block1.thisRepN,block1.thisTrialN,block1.thisN,block1.thisIndex,block2.thisRepN,block2.thisTrialN,block2.thisN,block2.thisIndex,block1_rep2.thisRepN,block1_rep2.thisTrialN,block1_rep2.thisN,block1_rep2.thisIndex,block2_rep.thisRepN,block2_rep.thisTrialN,block2_rep.thisN,block2_rep.thisIndex,text_3.started,text_3.stopped,text_4.started,text_4.stopped,text.started,text.stopped,trail_num.started,trail_num.stopped,image_6.started,image_6.stopped,Judgement.keys,Judgement.rt,Judgement.started,Judgement.stopped,text_19.started,text_19.stopped,text_12.started,text_12.stopped,image.started,image.stopped,text_2.started,text_2.stopped,text_13.started,text_13.stopped,session,date,expName,psychopyVersion
0,Demo 1,demo/Demo_IMG_0974.jpg,demo,Demo_IMG_0974.jpg,0.0,0.0,0.0,0.0,,,,,,,,,,,,,,,,,21.657266646972857,None,58.63604770496022,None,175.03840345900971,None,177.33913750492502,None,178.7056378889829,None,1,7.683348400052637,179.80643430596683,None,179.80643430596683,None,,,,,,,,,1,2022_Mar_31_1435,Real-fake-judgement-flashing-group1,2021.1.2
1,Demo 2,demo/Demo_IMG_1024.jpg,demo,Demo_IMG_1024.jpg,0.0,1.0,1.0,1.0,,,,,,,,,,,,,,,,,,,,,,,187.5098093859852,None,188.8586442240048,None,0,4.985304223024286,189.99251233797983,None,189.99251233797983,None,,,,,,,,,1,2022_Mar_31_1435,Real-fake-judgement-flashing-group1,2021.1.2
2,Demo 3,demo/Demo_seed_80003.png,demo,Demo_seed_80003.png,0.0,2.0,2.0,2.0,,,,,,,,,,,,,,,,,,,,,,,195.0115667739883,None,196.36098503996612,None,0,0.9224863930139692,197.4793941299431,None,197.4793941299431,None,,,,,,,,,1,2022_Mar_31_1435,Real-fake-judgement-flashing-group1,2021.1.2
3,Trial # 1,Group1-stimuli/group1-block1/real-group1-b1/Group1_IMG_0022.jpg,1,Group1_IMG_0022.jpg,,,,,0.0,0.0,0.0,0.0,,,,,,,,,,,,,,,,,,,207.46535088401288,None,,,1,3.5980467320187017,209.93183677701745,None,209.93183677701745,None,198.9118626639247,None,208.76485917693927,None,,,,,1,2022_Mar_31_1435,Real-fake-judgement-flashing-group1,2021.1.2
4,Trial # 2,Group1-stimuli/group1-block1/fake-group2-b1/encoded_Group2_IMG_0386.jpg,0,encoded_Group2_IMG_0386.jpg,,,,,0.0,1.0,1.0,1.0,,,,,,,,,,,,,,,,,,,213.54984479001723,None,,,0,2.4647715219762176,216.01712418801617,None,216.01712418801617,None,,,214.8500764069613,None,,,,,1,2022_Mar_31_1435,Real-fake-judgement-flashing-group1,2021.1.2
5,Trial # 3,Group1-stimuli/group1-block1/real-group1-b1/Group1_IMG_9704.jpg,1,Group1_IMG_9704.jpg,,,,,0.0,2.0,2.0,2.0,,,,,,,,,,,,,,,,,,,218.50144607503896,None,,,0,4.441019661026076,220.9688604630064,None,220.9688604630064,None,,,219.8018171970034,None,,,,,1,2022_Mar_31_1435,Real-fake-judgement-flashing-group1,2021.1.2
6,Trial # 4,Group1-stimuli/group1-block1/real-group1-b1/Group1_IMG_0406.jpg,1,Group1_IMG_0406.jpg,,,,,0.0,3.0,3.0,3.0,,,,,,,,,,,,,,,,,,,225.43679486692417,None,,,1,0.7043629910331219,227.9055189649808,None,227.9055189649808,None,,,226.73828656994732,None,,,,,1,2022_Mar_31_1435,Real-fake-judgement-flashing-group1,2021.1.2
7,Trial # 5,Group1-stimuli/group1-block1/fake-group2-b1/encoded_Group2_IMG_0364.jpg,0,encoded_Group2_IMG_0364.jpg,,,,,0.0,4.0,4.0,4.0,,,,,,,,,,,,,,,,,,,228.63766842300532,None,,,0,1.7681101160123944,231.1217799290316,None,231.1217799290316,None,,,229.93816475302447,None,,,,,1,2022_Mar_31_1435,Real-fake-judgement-flashing-group1,2021.1.2
8,Trial # 6,Group1-stimuli/group1-block1/fake-group2-b1/encoded_Group2_IMG_0407.jpg,0,encoded_Group2_IMG_0407.jpg,,,,,0.0,5.0,5.0,5.0,,,,,,,,,,,,,,,,,,,232.90617139393,None,,,0,0.6045870339730754,235.37329410400707,None,235.37329410400707,None,,,234.20616030402016,None,,,,,1,2022_Mar_31_1435,Real-fake-judgement-flashing-group1,2021.1.2
9,Trial # 7,Group1-stimuli/group1-block1/real-group1-b1/Group1_IMG_0428.jpg,1,Group1_IMG_0428.jpg,,,,,0.0,6.0,6.0,6.0,,,,,,,,,,,,,,,,,,,236.00692736299243,None,,,1,1.871223974972964,238.49065765703563,None,238.49065765703563,None,,,237.3084533809452,None,,,,,1,2022_Mar_31_1435,Real-fake-judgement-flashing-group1,2021.1.2
10,Trial # 8,Group1-stimuli/group1-block1/fake-group2-b1/encoded_Group2_IMG_0474.jpg,0,encoded_Group2_IMG_0474.jpg,,,,,0.0,7.0,7.0,7.0,,,,,,,,,,,,,,,,,,,240.39121803094167,None,,,0,0.7818149860249832,242.8600655429764,None,242.8600655429764,None,,,241.6930384270381,None,,,,,1,2022_Mar_31_1435,Real-fake-judgement-flashing-group1,2021.1.2
11,Trial # 9,Group1-stimuli/group1-block1/fake-group2-b1/encoded_Group2_IMG_1506.jpg,0,encoded_Group2_IMG_1506.jpg,,,,,0.0,8.0,8.0,8.0,,,,,,,,,,,,,,,,,,,243.65894771495368,None,,,0,3.771347232046537,246.1265336700017,None,246.1265336700017,None,,,244.9595471329521,None,,,,,1,2022_Mar_31_1435,Real-fake-judgement-flashing-group1,2021.1.2
12,Trial # 10,Group1-stimuli/group1-block1/real-group1-b1/Group1_IMG_9789.jpg,1,Group1_IMG_9789.jpg,,,,,0.0,9.0,9.0,9.0,,,,,,,,,,,,,,,,,,,249.92770520003972,None,,,1,1.093710519024171,252.39615476003385,None,252.39615476003385,None,,,251.22799945797303,None,,,,,1,2022_Mar_31_1435,Real-fake-judgement-flashing-group1,2021.1.2
13,Trial # 11,Group1-stimuli/group1-block1/real-group1-b1/Group1_IMG_9778.jpg,1,Group1_IMG_9778.jpg,,,,,0.0,10.0,10.0,10.0,,,,,,,,,,,,,,,,,,,253.51207576401063,None,,,1,3.038398192962632,255.9794826209545,None,255.9794826209545,None,,,254.81294171395712,None,,,,,1,2022_Mar_31_1435,Real-fake-judgement-flashing-group1,2021.1.2
14,Trial # 12,Group1-stimuli/group1-block1/real-group1-b1/Group1_IMG_9813.jpg,1,Group1_IMG_9813.jpg,,,,,0.0,11.0,11.0,11.0,,,,,,,,,,,,,,,,,,,259.04714919102844,None,,,0,1.583198198932223,261.51458809594624,None,261.51458809594624,None,,,260.34770206396934,None,,,,,1,2022_Mar_31_1435,Real-fake-judgement-flashing-group1,2021.1.2
15,Trial # 13,Group1-stimuli/group1-block1/real-group1-b1/Group1_IMG_0516.jpg,1,Group1_IMG_0516.jpg,,,,,0.0,12.0,12.0,12.0,,,,,,,,,,,,,,,,,,,263.1164912219392,None,,,1,0.682913489989005,265.59897925599944,None,265.59897925599944,None,,,264.4320652449969,None,,,,,1,2022_Mar_31_1435,Real-fake-judgement-flashing-group1,2021.1.2
16,Trial # 14,Group1-stimuli/group1-block1/fake-group2-b1/encoded_Group2_IMG_0038.jpg,0,encoded_Group2_IMG_0038.jpg,,,,,0.0,13.0,13.0,13.0,,,,,,,,,,,,,,,,,,,266.29931669496,None,,,1,0.8029357079649344,268.766938581015,None,268.766938581015,None,,,267.6008481499739,None,,,,,1,2022_Mar_31_1435,Real-fake-judgement-flashing-group1,2021.1.2
17,Trial # 15,Group1-stimuli/group1-block1/real-group1-b1/Group1_IMG_5984.jpg,1,Group1_IMG_5984.jpg,,,,,0.0,14.0,14.0,14.0,,,,,,,,,,,,,,,,,,,269.60048294393346,None,,,0,1.5175621409434823,272.06823358894326,None,272.06823358894326,None,,,270.9007963530021,None,,,,,1,2022_Mar_31_1435,Real-fake-judgement-flashing-group1,2021.1.2
18,Trial # 16,Group1-stimuli/group1-block1/real-group1-b1/Group1_IMG_0383.jpg,1,Group1_IMG_0383.jpg,,,,,0.0,15.0,15.0,15.0,,,,,,,,,,,,,,,,,,,273.61968799796887,None,,,1,0.8679848790634423,276.0858567110263,None,276.0858567110263,None,,,274.91875769302715,None,,,,,1,2022_Mar_31_1435,Real-fake-judgement-flashing-group1,2021.1.2
19,Trial # 17,Group1-stimuli/group1-block1/fake-group2-b1/encoded_Group2_IMG_0456.jpg,0,encoded_Group2_IMG_0456.jpg,,,,,0.0,16.0,16.0,16.0,,,,,,,,,,,,,,,,,,,276.9864593340317,None,,,1,1.228983931010589,279.43689607293345,None,279.43689607293345,None,,,278.2708672069712,None,,,,,1,2022_Mar_31_1435,Real-fake-judgement-flashing-group1,2021.1.2
20,Trial # 18,Group1-stimuli/group1-block1/fake-group2-b1/encoded_Group2_IMG_8390.jpg,0,encoded_Group2_IMG_8390.jpg,,,,,0.0,17.0,17.0,17.0,,,,,,,,,,,,,,,,,,,280.6874339969363,None,,,1,2.1499359160661697,283.1558767639799,None,283.1558767639799,None,,,281.98866987100337,None,,,,,1,2022_Mar_31_1435,Real-fake-judgement-flashing-group1,2021.1.2
21,Trial # 19,Group1-stimuli/group1-block1/real-group1-b1/Group1_IMG_0011.jpg,1,Group1_IMG_0011.jpg,,,,,0.0,18.0,18.0,18.0,,,,,,,,,,,,,,,,,,,285.3385555469431,None,,,1,0.8987201440613717,287.8071708539501,None,287.8071708539501,None,,,286.6400592130376,None,,,,,1,2022_Mar_31_1435,Real-fake-judgement-flashing-group1,2021.1.2
22,Trial # 20,Group1-stimuli/group1-block1/fake-group2-b1/encoded_Group2_IMG_0328.jpg,0,encoded_Group2_IMG_0328.jpg,,,,,0.0,19.0,19.0,19.0,,,,,,,,,,,,,,,,,,,288.72293966799043,None,,,0,0.2348919080104679,291.2069876389578,None,291.2069876389578,None,,,290.0741101319436,None,,,,,1,2022_Mar_31_1435,Real-fake-judgement-flashing-group1,2021.1.2
23,Trial # 21,Group1-stimuli/group1-block1/fake-group2-b1/encoded_Group2_IMG_0163.jpg,0,encoded_Group2_IMG_0163.jpg,,,,,0.0,20.0,20.0,20.0,,,,,,,,,,,,,,,,,,,291.4741876790067,None,,,0,0.2770575049798935,293.9248094339855,None,293.9248094339855,None,,,292.7578164669685,None,,,,,1,2022_Mar_31_1435,Real-fake-judgement-flashing-group1,2021.1.2
24,Trial # 22,Group1-stimuli/group1-block1/real-group1-b1/Group1_IMG_9862.jpg,1,Group1_IMG_9862.jpg,,,,,0.0,21.0,21.0,21.0,,,,,,,,,,,,,,,,,,,294.2248918679543,None,,,1,0.5010295689571649,296.69275925599504,None,296.69275925599504,None,,,295.52541980997194,None,,,,,1,2022_Mar_31_1435,Real-fake-judgement-flashing-group1,2021.1.2
25,Trial # 23,Group1-stimuli/group1-block1/fake-group2-b1/encoded_Group2_IMG_0296.jpg,0,encoded_Group2_IMG_0296.jpg,,,,,0.0,22.0,22.0,22.0,,,,,,,,,,,,,,,,,,,297.2269799229689,None,,,1,0.701711489004083,299.6761252830038,None,299.6761252830038,None,,,298.50940357195213,None,,,,,1,2022_Mar_31_1435,Real-fake-judgement-flashing-group1,2021.1.2
26,Trial # 24,Group1-stimuli/group1-block1/fake-group2-b1/encoded_Group2_IMG_0503.jpg,0,encoded_Group2_IMG_0503.jpg,,,,,0.0,23.0,23.0,23.0,,,,,,,,,,,,,,,,,,,300.40960934292525,None,,,0,0.803193107014522,302.878683937015,None,302.878683937015,None,,,301.71144143200945,None,,,,,1,2022_Mar_31_1435,Real-fake-judgement-flashing-group1,2021.1.2
27,Trial # 25,Group1-stimuli/group1-block1/fake-group2-b1/encoded_Group2_IMG_9804.jpg,0,encoded_Group2_IMG_9804.jpg,,,,,0.0,24.0,24.0,24.0,,,,,,,,,,,,,,,,,,,303.71096771396697,None,,,0,2.2395424200221896,306.17833824199624,None,306.17833824199624,None,,,305.0117586189881,None,,,,,1,2022_Mar_31_1435,Real-fake-judgement-flashing-group1,2021.1.2
28,Trial # 26,Group1-stimuli/group1-block1/real-group1-b1/Group1_IMG_0391.jpg,1,Group1_IMG_0391.jpg,,,,,0.0,25.0,25.0,25.0,,,,,,,,,,,,,,,,,,,308.4459663890302,None,,,1,0.2246487180236727,310.9132320479257,None,310.9132320479257,None,,,309.7462271240074,None,,,,,1,2022_Mar_31_1435,Real-fake-judgement-flashing-group1,2021.1.2
29,Trial # 27,Group1-stimuli/group1-block1/fake-group2-b1/encoded_Group2_IMG_3584.jpg,0,encoded_Group2_IMG_3584.jpg,,,,,0.0,26.0,26.0,26.0,,,,,,,,,,,,,,,,,,,311.16294977394864,None,,,0,0.6190711209783331,313.6308095949935,None,313.6308095949935,None,,,312.46454868803266,None,,,,,1,2022_Mar_31_1435,Real-fake-judgement-flashing-group1,2021.1.2
30,Trial # 28,Group1-stimuli/group1-block1/fake-group2-b1/encoded_Group2_IMG_0434.jpg,0,encoded_Group2_IMG_0434.jpg,,,,,0.0,27.0,27.0,27.0,,,,,,,,,,,,,,,,,,,314.281198106939,None,,,0,1.1730343810049817,316.748846263974,None,316.748846263974,None,,,315.5811906870222,None,,,,,1,2022_Mar_31_1435,Real-fake-judgement-flashing-group1,2021.1.2
31,Trial # 29,Group1-stimuli/group1-block1/fake-group2-b1/encoded_Group2_IMG_9575.jpg,0,encoded_Group2_IMG_9575.jpg,,,,,0.0,28.0,28.0,28.0,,,,,,,,,,,,,,,,,,,317.9501609749859,None,,,1,0.6973533559357747,320.43252655596007,None,320.43252655596007,None,,,319.2656952829566,None,,,,,1,2022_Mar_31_1435,Real-fake-judgement-flashing-group1,2021.1.2
32,Trial # 30,Group1-stimuli/group1-block1/fake-group2-b1/encoded_Group2_IMG_1025.jpg,0,encoded_Group2_IMG_1025.jpg,,,,,0.0,29.0,29.0,29.0,,,,,,,,,,,,,,,,,,,321.1491865669377,None,,,1,1.183941318071447,323.61788884503767,None,323.61788884503767,None,,,322.4511840789346,None,,,,,1,2022_Mar_31_1435,Real-fake-judgement-flashing-group1,2021.1.2
33,Trial # 31,Group1-stimuli/group1-block1/real-group1-b1/Group1_IMG_0502.jpg,1,Group1_IMG_0502.jpg,,,,,0.0,30.0,30.0,30.0,,,,,,,,,,,,,,,,,,,324.8341357919853,None,,,1,1.6031393660232425,327.30274041893426,None,327.30274041893426,None,,,326.1344473279314,None,,,,,1,2022_Mar_31_1435,Real-fake-judgement-flashing-group1,2021.1.2
34,Trial # 32,Group1-stimuli/group1-block1/real-group1-b1/Group1_IMG_0182.jpg,1,Group1_IMG_0182.jpg,,,,,0.0,31.0,31.0,31.0,,,,,,,,,,,,,,,,,,,328.9401941919932,None,,,0,1.3349758239928633,331.4027940729866,None,331.4027940729866,None,,,330.236501796986,None,,,,,1,2022_Mar_31_1435,Real-fake-judgement-flashing-group1,2021.1.2
35,Trial # 33,Group1-stimuli/group1-block1/fake-group2-b1/encoded_Group2_IMG_2728.jpg,0,encoded_Group2_IMG_2728.jpg,,,,,0.0,32.0,32.0,32.0,,,,,,,,,,,,,,,,,,,332.7544995059725,None,,,1,0.8371347289066762,335.2207456199685,None,335.2207456199685,None,,,334.0536217390327,None,,,,,1,2022_Mar_31_1435,Real-fake-judgement-flashing-group1,2021.1.2
36,Trial # 34,Group1-stimuli/group1-block1/fake-group2-b1/encoded_Group2_IMG_4867.jpg,0,encoded_Group2_IMG_4867.jpg,,,,,0.0,33.0,33.0,33.0,,,,,,,,,,,,,,,,,,,336.0877251729835,None,,,0,0.8529084969777614,338.57297227694653,None,338.57297227694653,None,,,337.3892740099691,None,,,,,1,2022_Mar_31_1435,Real-fake-judgement-flashing-group1,2021.1.2
37,Trial # 35,Group1-stimuli/group1-block1/real-group1-b1/Group1_IMG_9894.jpg,1,Group1_IMG_9894.jpg,,,,,0.0,34.0,34.0,34.0,,,,,,,,,,,,,,,,,,,339.4555181829492,None,,,1,0.5900775789050385,341.9398390270071,None,341.9398390270071,None,,,340.7555764609715,None,,,,,1,2022_Mar_31_1435,Real-fake-judgement-flashing-group1,2021.1.2
38,Trial # 36,Group1-stimuli/group1-block1/fake-group2-b1/encoded_Group2_IMG_0444.jpg,0,encoded_Group2_IMG_0444.jpg,,,,,0.0,35.0,35.0,35.0,,,,,,,,,,,,,,,,,,,342.5576791339554,None,,,0,0.6341291540302336,345.0236963229254,None,345.0236963229254,None,,,343.8566783799324,None,,,,,1,2022_Mar_31_1435,Real-fake-judgement-flashing-group1,2021.1.2
39,Trial # 37,Group1-stimuli/group1-block1/real-group1-b1/Group1_IMG_2656.jpg,1,Group1_IMG_2656.jpg,,,,,0.0,36.0,36.0,36.0,,,,,,,,,,,,,,,,,,,345.69059560704045,None,,,1,0.5073254120070487,348.1585544249974,None,348.1585544249974,None,,,346.99235796101857,None,,,,,1,2022_Mar_31_1435,Real-fake-judgement-flashing-group1,2021.1.2
40,Trial # 38,Group1-stimuli/group1-block1/real-group1-b1/Group1_IMG_0207.jpg,1,Group1_IMG_0207.jpg,,,,,0.0,37.0,37.0,37.0,,,,,,,,,,,,,,,,,,,348.691704103956,None,,,0,1.4907535139936954,351.1591265629977,None,351.1591265629977,None,,,349.99183992203325,None,,,,,1,2022_Mar_31_1435,Real-fake-judgement-flashing-group1,2021.1.2
41,Trial # 39,Group1-stimuli/group1-block1/real-group1-b1/Group1_IMG_9638.jpg,1,Group1_IMG_9638.jpg,,,,,0.0,38.0,38.0,38.0,,,,,,,,,,,,,,,,,,,352.67748077597935,None,,,0,0.2662914500106126,355.1435990689788,None,355.1435990689788,None,,,353.9765505869873,None,,,,,1,2022_Mar_31_1435,Real-fake-judgement-flashing-group1,2021.1.2
42,Trial # 40,Group1-stimuli/group1-block1/real-group1-b1/Group1_IMG_0148.jpg,1,Group1_IMG_0148.jpg,,,,,0.0,39.0,39.0,39.0,,,,,,,,,,,,,,,,,,,355.4271573750302,None,,,1,0.5935881750192493,357.91229174192995,None,357.91229174192995,None,,,356.7284521559486,None,,,,,1,2022_Mar_31_1435,Real-fake-judgement-flashing-group1,2021.1.2
43,Trial # 41,Group1-stimuli/group1-block1/real-group1-b1/Group1_IMG_2891.jpg,1,Group1_IMG_2891.jpg,,,,,0.0,40.0,40.0,40.0,,,,,,,,,,,,,,,,,,,358.5279000999872,None,,,1,0.8945577549748123,360.9953212159453,None,360.9953212159453,None,,,359.8283814599272,None,,,,,1,2022_Mar_31_1435,Real-fake-judgement-flashing-group1,2021.1.2
44,Trial # 42,Group1-stimuli/group1-block1/real-group1-b1/Group1_IMG_0157.jpg,1,Group1_IMG_0157.jpg,,,,,0.0,41.0,41.0,41.0,,,,,,,,,,,,,,,,,,,361.91365025402047,None,,,1,0.8300668079173192,364.3798124709865,None,364.3798124709865,None,,,363.21376828395296,None,,,,,1,2022_Mar_31_1435,Real-fake-judgement-flashing-group1,2021.1.2
45,Trial # 43,Group1-stimuli/group1-block1/real-group1-b1/Group1_IMG_9833.jpg,1,Group1_IMG_9833.jpg,,,,,0.0,42.0,42.0,42.0,,,,,,,,,,,,,,,,,,,365.2309443659615,None,,,1,1.7271455669542777,367.6987327439711,None,367.6987327439711,None,,,366.5303648129338,None,,,,,1,2022_Mar_31_1435,Real-fake-judgement-flashing-group1,2021.1.2
46,Trial # 44,Group1-stimuli/group1-block1/fake-group2-b1/encoded_Group2_IMG_2230.jpg,0,encoded_Group2_IMG_2230.jpg,,,,,0.0,43.0,43.0,43.0,,,,,,,,,,,,,,,,,,,369.4480475829914,None,,,0,0.5501631270162761,371.9157113769325,None,371.9157113769325,None,,,370.7482992709847,None,,,,,1,2022_Mar_31_1435,Real-fake-judgement-flashing-group1,2021.1.2
47,Trial # 45,Group1-stimuli/group1-block1/real-group1-b1/Group1_IMG_9966.jpg,1,Group1_IMG_9966.jpg,,,,,0.0,44.0,44.0,44.0,,,,,,,,,,,,,,,,,,,372.4821608000202,None,,,1,2.2283586119301617,374.9495829669759,None,374.9495829669759,None,,,373.782449788996,None,,,,,1,2022_Mar_31_1435,Real-fake-judgement-flashing-group1,2021.1.2
48,Trial # 46,Group1-stimuli/group1-block1/real-group1-b1/Group1_IMG_0239.jpg,1,Group1_IMG_0239.jpg,,,,,0.0,45.0,45.0,45.0,,,,,,,,,,,,,,,,,,,377.2008838600013,None,,,1,0.5339422130491585,379.66787229001056,None,379.66787229001056,None,,,378.500673825969,None,,,,,1,2022_Mar_31_1435,Real-fake-judgement-flashing-group1,2021.1.2
49,Trial # 47,Group1-stimuli/group1-block1/fake-group2-b1/encoded_Group2_IMG_0536.jpg,0,encoded_Group2_IMG_0536.jpg,,,,,0.0,46.0,46.0,46.0,,,,,,,,,,,,,,,,,,,380.2346583580365,None,,,0,0.5548010589554906,382.7031176770106,None,382.7031176770106,None,,,381.5510253269458,None,,,,,1,2022_Mar_31_1435,Real-fake-judgement-flashing-group1,2021.1.2
50,Trial # 48,Group1-stimuli/group1-block1/fake-group2-b1/encoded_Group2_IMG_0521.jpg,0,encoded_Group2_IMG_0521.jpg,,,,,0.0,47.0,47.0,47.0,,,,,,,,,,,,,,,,,,,383.28556055994704,None,,,0,0.1842890210682526,385.7535799120087,None,385.7535799120087,None,,,384.5858066009823,None,,,,,1,2022_Mar_31_1435,Real-fake-judgement-flashing-group1,2021.1.2
51,Trial # 49,Group1-stimuli/group1-block1/fake-group2-b1/encoded_Group2_IMG_9924.jpg,0,encoded_Group2_IMG_9924.jpg,,,,,0.0,48.0,48.0,48.0,,,,,,,,,,,,,,,,,,,385.96946157794446,None,,,0,1.90063597203698,388.4372741619591,None,388.4372741619591,None,,,387.2712462650379,None,,,,,1,2022_Mar_31_1435,Real-fake-judgement-flashing-group1,2021.1.2
52,Trial # 50,Group1-stimuli/group1-block1/real-group1-b1/Group1_IMG_9730.jpg,1,Group1_IMG_9730.jpg,,,,,0.0,49.0,49.0,49.0,,,,,,,,,,,,,,,,,,,390.35398893395904,None,,,1,0.7307297220686451,392.8231601539301,None,392.8231601539301,None,,,391.6559175039874,None,,,,,1,2022_Mar_31_1435,Real-fake-judgement-flashing-group1,2021.1.2
53,Trial # 51,Group1-stimuli/group1-block1/real-group1-b1/Group1_IMG_0053.jpg,1,Group1_IMG_0053.jpg,,,,,0.0,50.0,50.0,50.0,,,,,,,,,,,,,,,,,,,393.57213551795576,None,,,1,1.1384301770012826,396.0394493680215,None,396.0394493680215,None,,,394.8729725079611,None,,,,,1,2022_Mar_31_1435,Real-fake-judgement-flashing-group1,2021.1.2
54,Trial # 52,Group1-stimuli/group1-block1/real-group1-b1/Group1_IMG_9698.jpg,1,Group1_IMG_9698.jpg,,,,,0.0,51.0,51.0,51.0,,,,,,,,,,,,,,,,,,,397.2080800309777,None,,,0,0.7998894670745358,399.67399882304017,None,399.67399882304017,None,,,398.5069477669895,None,,,,,1,2022_Mar_31_1435,Real-fake-judgement-flashing-group1,2021.1.2
55,Trial # 53,Group1-stimuli/group1-block1/fake-group2-b1/encoded_Group2_IMG_0553.jpg,0,encoded_Group2_IMG_0553.jpg,,,,,0.0,52.0,52.0,52.0,,,,,,,,,,,,,,,,,,,400.49112806399353,None,,,0,3.842266181018204,402.9595990719972,None,402.9595990719972,None,,,401.792378088925,None,,,,,1,2022_Mar_31_1435,Real-fake-judgement-flashing-group1,2021.1.2
56,Trial # 54,Group1-stimuli/group1-block1/fake-group2-b1/encoded_Group2_IMG_9758.jpg,0,encoded_Group2_IMG_9758.jpg,,,,,0.0,53.0,53.0,53.0,,,,,,,,,,,,,,,,,,,406.82654667494353,None,,,0,1.1801585810026154,409.2937206539791,None,409.2937206539791,None,,,408.1276828119298,None,,,,,1,2022_Mar_31_1435,Real-fake-judgement-flashing-group1,2021.1.2
57,Trial # 55,Group1-stimuli/group1-block1/fake-group2-b1/encoded_Group2_IMG_0339.jpg,0,encoded_Group2_IMG_0339.jpg,,,,,0.0,54.0,54.0,54.0,,,,,,,,,,,,,,,,,,,410.4941593479598,None,,,0,0.7511352590518072,412.9626803429565,None,412.9626803429565,None,,,411.7954889090033,None,,,,,1,2022_Mar_31_1435,Real-fake-judgement-flashing-group1,2021.1.2
58,Trial # 56,Group1-stimuli/group1-block1/real-group1-b1/Group1_IMG_0314.jpg,1,Group1_IMG_0314.jpg,,,,,0.0,55.0,55.0,55.0,,,,,,,,,,,,,,,,,,,413.7463215070311,None,,,1,0.356692212051712,416.22921196499374,None,416.22921196499374,None,,,415.0452533989446,None,,,,,1,2022_Mar_31_1435,Real-fake-judgement-flashing-group1,2021.1.2
59,Trial # 57,Group1-stimuli/group1-block1/fake-group2-b1/encoded_Group2_IMG_0532.jpg,0,encoded_Group2_IMG_0532.jpg,,,,,0.0,56.0,56.0,56.0,,,,,,,,,,,,,,,,,,,416.6140291199554,None,,,1,0.6824591079493985,419.0634302869439,None,419.0634302869439,None,,,417.8973300799262,None,,,,,1,2022_Mar_31_1435,Real-fake-judgement-flashing-group1,2021.1.2
60,Trial # 58,Group1-stimuli/group1-block1/fake-group2-b1/encoded_Group2_IMG_0462.jpg,0,encoded_Group2_IMG_0462.jpg,,,,,0.0,57.0,57.0,57.0,,,,,,,,,,,,,,,,,,,419.764470811002,None,,,0,1.2187907139305023,422.2310844429303,None,422.2310844429303,None,,,421.0636792939622,None,,,,,1,2022_Mar_31_1435,Real-fake-judgement-flashing-group1,2021.1.2
61,Trial # 59,Group1-stimuli/group1-block1/real-group1-b1/Group1_IMG_0172.jpg,1,Group1_IMG_0172.jpg,,,,,0.0,58.0,58.0,58.0,,,,,,,,,,,,,,,,,,,423.4813127289526,None,,,0,0.4210245489375666,425.9488556450233,None,425.9488556450233,None,,,424.7817945720162,None,,,,,1,2022_Mar_31_1435,Real-fake-judgement-flashing-group1,2021.1.2
62,Trial # 60,Group1-stimuli/group1-block1/real-group1-b1/Group1_IMG_4841.jpg,1,Group1_IMG_4841.jpg,,,,,0.0,59.0,59.0,59.0,,,,,,,,,,,,,,,,,,,426.3989706139546,None,,,1,0.3434366480214521,428.8664424730232,None,428.8664424730232,None,,,427.7003726250259,None,,,,,1,2022_Mar_31_1435,Real-fake-judgement-flashing-group1,2021.1.2
63,Trial # 61,Group1-stimuli/group1-block1/fake-group2-b1/encoded_Group2_IMG_0352.jpg,0,encoded_Group2_IMG_0352.jpg,,,,,0.0,60.0,60.0,60.0,,,,,,,,,,,,,,,,,,,429.2330242870376,None,,,0,0.6608455600216985,431.7010327909375,None,431.7010327909375,None,,,430.5336552929366,None,,,,,1,2022_Mar_31_1435,Real-fake-judgement-flashing-group1,2021.1.2
64,Trial # 62,Group1-stimuli/group1-block1/fake-group2-b1/encoded_Group2_IMG_9726.jpg,0,encoded_Group2_IMG_9726.jpg,,,,,0.0,61.0,61.0,61.0,,,,,,,,,,,,,,,,,,,432.38546045997646,None,,,0,0.8695218659704551,434.8523561960319,None,434.8523561960319,None,,,433.6843504839344,None,,,,,1,2022_Mar_31_1435,Real-fake-judgement-flashing-group1,2021.1.2
65,Trial # 63,Group1-stimuli/group1-block1/fake-group2-b1/encoded_Group2_IMG_9785.jpg,0,encoded_Group2_IMG_9785.jpg,,,,,0.0,62.0,62.0,62.0,,,,,,,,,,,,,,,,,,,435.7521671319846,None,,,0,0.7333468070719391,438.2205301639624,None,438.2205301639624,None,,,437.0532418709481,None,,,,,1,2022_Mar_31_1435,Real-fake-judgement-flashing-group1,2021.1.2
66,Trial # 64,Group1-stimuli/group1-block1/fake-group2-b1/encoded_Group2_IMG_0440.jpg,0,encoded_Group2_IMG_0440.jpg,,,,,0.0,63.0,63.0,63.0,,,,,,,,,,,,,,,,,,,438.9698842220241,None,,,1,0.5008507430320606,441.4370379160391,None,441.4370379160391,None,,,440.2698400720256,None,,,,,1,2022_Mar_31_1435,Real-fake-judgement-flashing-group1,2021.1.2
67,Trial # 65,Group1-stimuli/group1-block1/fake-group2-b1/encoded_Group2_IMG_1695.jpg,0,encoded_Group2_IMG_1695.jpg,,,,,0.0,64.0,64.0,64.0,,,,,,,,,,,,,,,,,,,441.9543303289684,None,,,0,0.4361336070578545,444.4378196509788,None,444.4378196509788,None,,,443.2552883779863,None,,,,,1,2022_Mar_31_1435,Real-fake-judgement-flashing-group1,2021.1.2
68,Trial # 66,Group1-stimuli/group1-block1/real-group1-b1/Group1_IMG_0552.jpg,1,Group1_IMG_0552.jpg,,,,,0.0,65.0,65.0,65.0,,,,,,,,,,,,,,,,,,,444.9047597689787,None,,,1,0.8772987660486251,447.3725818300154,None,447.3725818300154,None,,,446.2050145809772,None,,,,,1,2022_Mar_31_1435,Real-fake-judgement-flashing-group1,2021.1.2
69,Trial # 67,Group1-stimuli/group1-block1/real-group1-b1/Group1_IMG_1029.jpg,1,Group1_IMG_1029.jpg,,,,,0.0,66.0,66.0,66.0,,,,,,,,,,,,,,,,,,,448.2723539189901,None,,,0,0.8141452729469165,450.7397593139904,None,450.7397593139904,None,,,449.5723867260385,None,,,,,1,2022_Mar_31_1435,Real-fake-judgement-flashing-group1,2021.1.2
70,Trial # 68,Group1-stimuli/group1-block1/fake-group2-b1/encoded_Group2_IMG_6517.jpg,0,encoded_Group2_IMG_6517.jpg,,,,,0.0,67.0,67.0,67.0,,,,,,,,,,,,,,,,,,,451.5735832679784,None,,,0,0.6169439239893109,454.0408236560179,None,454.0408236560179,None,,,452.8747879969888,None,,,,,1,2022_Mar_31_1435,Real-fake-judgement-flashing-group1,2021.1.2
71,Trial # 69,Group1-stimuli/group1-block1/fake-group2-b1/encoded_Group2_IMG_0002.jpg,0,encoded_Group2_IMG_0002.jpg,,,,,0.0,68.0,68.0,68.0,,,,,,,,,,,,,,,,,,,454.6909984350205,None,,,0,0.5461579589173198,457.15972634393256,None,457.15972634393256,None,,,455.9745556199923,None,,,,,1,2022_Mar_31_1435,Real-fake-judgement-flashing-group1,2021.1.2
72,Trial # 70,Group1-stimuli/group1-block1/real-group1-b1/Group1_IMG_0495.jpg,1,Group1_IMG_0495.jpg,,,,,0.0,69.0,69.0,69.0,,,,,,,,,,,,,,,,,,,457.7267190290149,None,,,0,0.5925484340405092,460.2093312740326,None,460.2093312740326,None,,,459.0421706889756,None,,,,,1,2022_Mar_31_1435,Real-fake-judgement-flashing-group1,2021.1.2
73,Trial # 71,Group1-stimuli/group1-block1/real-group1-b1/Group1_IMG_1391.jpg,1,Group1_IMG_1391.jpg,,,,,0.0,70.0,70.0,70.0,,,,,,,,,,,,,,,,,,,460.82631863397546,None,,,1,0.6112530180253088,463.2946341939969,None,463.2946341939969,None,,,462.1276498460211,None,,,,,1,2022_Mar_31_1435,Real-fake-judgement-flashing-group1,2021.1.2
74,Trial # 72,Group1-stimuli/group1-block1/real-group1-b1/Group1_IMG_0343.jpg,1,Group1_IMG_0343.jpg,,,,,0.0,71.0,71.0,71.0,,,,,,,,,,,,,,,,,,,463.9272256150143,None,,,1,0.894892182899639,466.3949854009552,None,466.3949854009552,None,,,465.2274356529815,None,,,,,1,2022_Mar_31_1435,Real-fake-judgement-flashing-group1,2021.1.2
75,Trial # 73,Group1-stimuli/group1-block1/fake-group2-b1/encoded_Group2_IMG_9810.jpg,0,encoded_Group2_IMG_9810.jpg,,,,,0.0,72.0,72.0,72.0,,,,,,,,,,,,,,,,,,,467.3119717929512,None,,,0,1.6303372320253402,469.7955429769354,None,469.7955429769354,None,,,468.6131350159412,None,,,,,1,2022_Mar_31_1435,Real-fake-judgement-flashing-group1,2021.1.2
76,Trial # 74,Group1-stimuli/group1-block1/fake-group2-b1/encoded_Group2_IMG_5900.jpg,0,encoded_Group2_IMG_5900.jpg,,,,,0.0,73.0,73.0,73.0,,,,,,,,,,,,,,,,,,,471.44602401496377,None,,,0,0.7521506419871002,473.9137302970048,None,473.9137302970048,None,,,472.7477771480335,None,,,,,1,2022_Mar_31_1435,Real-fake-judgement-flashing-group1,2021.1.2
77,Trial # 75,Group1-stimuli/group1-block1/real-group1-b1/Group1_IMG_9679.jpg,1,Group1_IMG_9679.jpg,,,,,0.0,74.0,74.0,74.0,,,,,,,,,,,,,,,,,,,474.6973285099957,None,,,1,0.4760125910397619,477.16586513095535,None,477.16586513095535,None,,,475.996979421936,None,,,,,1,2022_Mar_31_1435,Real-fake-judgement-flashing-group1,2021.1.2
78,Trial # 76,Group1-stimuli/group1-block1/fake-group2-b1/encoded_Group2_IMG_4249.jpg,0,encoded_Group2_IMG_4249.jpg,,,,,0.0,75.0,75.0,75.0,,,,,,,,,,,,,,,,,,,477.66607729997486,None,,,0,0.8220144590595737,480.13186557393055,None,480.13186557393055,None,,,478.96620848600287,None,,,,,1,2022_Mar_31_1435,Real-fake-judgement-flashing-group1,2021.1.2
79,Trial # 77,Group1-stimuli/group1-block1/fake-group2-b1/encoded_Group2_IMG_0174.jpg,0,encoded_Group2_IMG_0174.jpg,,,,,0.0,76.0,76.0,76.0,,,,,,,,,,,,,,,,,,,480.9826494830195,None,,,0,0.6474115360761061,483.4503819729434,None,483.4503819729434,None,,,482.2832486790139,None,,,,,1,2022_Mar_31_1435,Real-fake-judgement-flashing-group1,2021.1.2
80,Trial # 78,Group1-stimuli/group1-block1/fake-group2-b1/encoded_Group2_IMG_0475.jpg,0,encoded_Group2_IMG_0475.jpg,,,,,0.0,77.0,77.0,77.0,,,,,,,,,,,,,,,,,,,484.11687952594366,None,,,0,0.4094973270548507,486.5843827929348,None,486.5843827929348,None,,,485.41733992798254,None,,,,,1,2022_Mar_31_1435,Real-fake-judgement-flashing-group1,2021.1.2
81,Trial # 79,Group1-stimuli/group1-block1/fake-group2-b1/encoded_Group2_IMG_9751.jpg,0,encoded_Group2_IMG_9751.jpg,,,,,0.0,78.0,78.0,78.0,,,,,,,,,,,,,,,,,,,487.0189384960104,None,,,1,0.4036812569247558,489.50220778398216,None,489.50220778398216,None,,,488.31790587794967,None,,,,,1,2022_Mar_31_1435,Real-fake-judgement-flashing-group1,2021.1.2
82,Trial # 80,Group1-stimuli/group1-block1/fake-group2-b1/encoded_Group2_IMG_0492.jpg,0,encoded_Group2_IMG_0492.jpg,,,,,0.0,79.0,79.0,79.0,,,,,,,,,,,,,,,,,,,489.9358291199897,None,,,0,0.733858669991605,492.4039595259819,None,492.4039595259819,None,,,491.2186621750007,None,,,,,1,2022_Mar_31_1435,Real-fake-judgement-flashing-group1,2021.1.2
83,Trial # 81,Group1-stimuli/group1-block1/real-group1-b1/Group1_IMG_0535.jpg,1,Group1_IMG_0535.jpg,,,,,0.0,80.0,80.0,80.0,,,,,,,,,,,,,,,,,,,493.1708134349901,None,,,1,1.1328541500261051,495.6369408540195,None,495.6369408540195,None,,,494.47025509004015,None,,,,,1,2022_Mar_31_1435,Real-fake-judgement-flashing-group1,2021.1.2
84,Trial # 82,Group1-stimuli/group1-block1/real-group1-b1/Group1_IMG_0077.jpg,1,Group1_IMG_0077.jpg,,,,,0.0,81.0,81.0,81.0,,,,,,,,,,,,,,,,,,,496.7890032830183,None,,,1,0.6263783709146082,499.2715004689526,None,499.2715004689526,None,,,498.08873960003257,None,,,,,1,2022_Mar_31_1435,Real-fake-judgement-flashing-group1,2021.1.2
85,Trial # 83,Group1-stimuli/group1-block1/fake-group2-b1/encoded_Group2_IMG_9702.jpg,0,encoded_Group2_IMG_9702.jpg,,,,,0.0,82.0,82.0,82.0,,,,,,,,,,,,,,,,,,,499.9214053549804,None,,,0,0.6921630990691483,502.3897164650261,None,502.3897164650261,None,,,501.2220150899375,None,,,,,1,2022_Mar_31_1435,Real-fake-judgement-flashing-group1,2021.1.2
86,Trial # 84,Group1-stimuli/group1-block1/real-group1-b1/Group1_IMG_0357.jpg,1,Group1_IMG_0357.jpg,,,,,0.0,83.0,83.0,83.0,,,,,,,,,,,,,,,,,,,503.106247505988,None,,,1,1.0120701419655234,505.57381344400346,None,505.57381344400346,None,,,504.4062268160051,None,,,,,1,2022_Mar_31_1435,Real-fake-judgement-flashing-group1,2021.1.2
87,Trial # 85,Group1-stimuli/group1-block1/real-group1-b1/Group1_IMG_9772.jpg,1,Group1_IMG_9772.jpg,,,,,0.0,84.0,84.0,84.0,,,,,,,,,,,,,,,,,,,506.6071609619539,None,,,1,0.847726930049248,509.0742018719902,None,509.0742018719902,None,,,507.9085988480365,None,,,,,1,2022_Mar_31_1435,Real-fake-judgement-flashing-group1,2021.1.2
88,Trial # 86,Group1-stimuli/group1-block1/real-group1-b1/Group1_IMG_0482.jpg,1,Group1_IMG_0482.jpg,,,,,0.0,85.0,85.0,85.0,,,,,,,,,,,,,,,,,,,509.9415868759388,None,,,1,0.4164516549790278,512.4093397409888,None,512.4093397409888,None,,,511.241843089927,None,,,,,1,2022_Mar_31_1435,Real-fake-judgement-flashing-group1,2021.1.2
89,Trial # 87,Group1-stimuli/group1-block1/real-group1-b1/Group1_IMG_0299.jpg,1,Group1_IMG_0299.jpg,,,,,0.0,86.0,86.0,86.0,,,,,,,,,,,,,,,,,,,512.8602011719486,None,,,1,0.4347884920425713,515.3430255099665,None,515.3430255099665,None,,,514.1759416959248,None,,,,,1,2022_Mar_31_1435,Real-fake-judgement-flashing-group1,2021.1.2
90,Trial # 88,Group1-stimuli/group1-block1/fake-group2-b1/encoded_Group2_IMG_0301.jpg,0,encoded_Group2_IMG_0301.jpg,,,,,0.0,87.0,87.0,87.0,,,,,,,,,,,,,,,,,,,515.809648156981,None,,,0,0.5307524970266968,518.2950521910097,None,518.2950521910097,None,,,517.1105513679795,None,,,,,1,2022_Mar_31_1435,Real-fake-judgement-flashing-group1,2021.1.2
91,Trial # 89,Group1-stimuli/group1-block1/fake-group2-b1/encoded_Group2_IMG_5136.jpg,0,encoded_Group2_IMG_5136.jpg,,,,,0.0,88.0,88.0,88.0,,,,,,,,,,,,,,,,,,,518.8449802210089,None,,,0,0.3945136850234121,521.3113736680243,None,521.3113736680243,None,,,520.144315026002,None,,,,,1,2022_Mar_31_1435,Real-fake-judgement-flashing-group1,2021.1.2
92,Trial # 90,Group1-stimuli/group1-block1/real-group1-b1/Group1_IMG_0460.jpg,1,Group1_IMG_0460.jpg,,,,,0.0,89.0,89.0,89.0,,,,,,,,,,,,,,,,,,,521.729028205038,None,,,1,0.3089322679443285,524.2129458449781,None,524.2129458449781,None,,,523.0298503260128,None,,,,,1,2022_Mar_31_1435,Real-fake-judgement-flashing-group1,2021.1.2
93,Trial # 91,Group1-stimuli/group1-block1/fake-group2-b1/encoded_Group2_IMG_0068.jpg,0,encoded_Group2_IMG_0068.jpg,,,,,0.0,90.0,90.0,90.0,,,,,,,,,,,,,,,,,,,524.5468161719618,None,,,0,0.6441050720168278,527.0137754830066,None,527.0137754830066,None,,,525.8461430129828,None,,,,,1,2022_Mar_31_1435,Real-fake-judgement-flashing-group1,2021.1.2
94,Trial # 92,Group1-stimuli/group1-block1/real-group1-b1/Group1_IMG_0337.jpg,1,Group1_IMG_0337.jpg,,,,,0.0,91.0,91.0,91.0,,,,,,,,,,,,,,,,,,,527.6815955359489,None,,,1,0.8780883849831298,530.1477885580389,None,530.1477885580389,None,,,528.9805003829533,None,,,,,1,2022_Mar_31_1435,Real-fake-judgement-flashing-group1,2021.1.2
95,Trial # 93,Group1-stimuli/group1-block1/fake-group2-b1/encoded_Group2_IMG_0346.jpg,0,encoded_Group2_IMG_0346.jpg,,,,,0.0,92.0,92.0,92.0,,,,,,,,,,,,,,,,,,,531.0481808279874,None,,,0,0.5086320349946618,533.5332726379856,None,533.5332726379856,None,,,532.349440888036,None,,,,,1,2022_Mar_31_1435,Real-fake-judgement-flashing-group1,2021.1.2
96,Trial # 94,Group1-stimuli/group1-block1/real-group1-b1/Group1_IMG_4253.jpg,1,Group1_IMG_4253.jpg,,,,,0.0,93.0,93.0,93.0,,,,,,,,,,,,,,,,,,,534.0655907680048,None,,,1,0.7319632309954613,536.549829673022,None,536.549829673022,None,,,535.3658451819792,None,,,,,1,2022_Mar_31_1435,Real-fake-judgement-flashing-group1,2021.1.2
97,Trial # 95,Group1-stimuli/group1-block1/fake-group2-b1/encoded_Group2_IMG_9280.jpg,0,encoded_Group2_IMG_9280.jpg,,,,,0.0,94.0,94.0,94.0,,,,,,,,,,,,,,,,,,,537.3012741470011,None,,,0,1.449793944018893,539.7679749450181,None,539.7679749450181,None,,,538.6001486299792,None,,,,,1,2022_Mar_31_1435,Real-fake-judgement-flashing-group1,2021.1.2
98,Trial # 96,Group1-stimuli/group1-block1/real-group1-b1/Group1_IMG_0417.jpg,1,Group1_IMG_0417.jpg,,,,,0.0,95.0,95.0,95.0,,,,,,,,,,,,,,,,,,,541.2342906949343,None,,,0,0.5712486930424348,543.7186399259372,None,543.7186399259372,None,,,542.6026521279709,None,,,,,1,2022_Mar_31_1435,Real-fake-judgement-flashing-group1,2021.1.2
99,Trial # 97,Group1-stimuli/group1-block1/fake-group2-b1/encoded_Group2_IMG_9695.jpg,0,encoded_Group2_IMG_9695.jpg,,,,,0.0,96.0,96.0,96.0,,,,,,,,,,,,,,,,,,,544.3188390090363,None,,,0,0.4320820959983393,546.769794199965,None,546.769794199965,None,,,545.6022116369568,None,,,,,1,2022_Mar_31_1435,Real-fake-judgement-flashing-group1,2021.1.2
100,Trial # 98,Group1-stimuli/group1-block1/real-group1-b1/Group1_IMG_1160.jpg,1,Group1_IMG_1160.jpg,,,,,0.0,97.0,97.0,97.0,,,,,,,,,,,,,,,,,,,547.2210086189443,None,,,1,1.2588620450114831,549.687033314025,None,549.687033314025,None,,,548.5200032569701,None,,,,,1,2022_Mar_31_1435,Real-fake-judgement-flashing-group1,2021.1.2
101,Trial # 99,Group1-stimuli/group1-block1/real-group1-b1/Group1_IMG_0448.jpg,1,Group1_IMG_0448.jpg,,,,,0.0,98.0,98.0,98.0,,,,,,,,,,,,,,,,,,,550.9705738419434,None,,,1,1.9235752229578795,553.4383028469747,None,553.4383028469747,None,,,552.2721431170357,None,,,,,1,2022_Mar_31_1435,Real-fake-judgement-flashing-group1,2021.1.2
102,Trial # 100,Group1-stimuli/group1-block1/fake-group2-b1/encoded_Group2_IMG_0393.jpg,0,encoded_Group2_IMG_0393.jpg,,,,,0.0,99.0,99.0,99.0,,,,,,,,,,,,,,,,,,,555.3886789289536,None,,,0,1.0490641948999837,557.856751675019,None,557.856751675019,None,,,556.6903816729318,None,,,,,1,2022_Mar_31_1435,Real-fake-judgement-flashing-group1,2021.1.2
103,Trial # 101,Group1-stimuli/group1-block1/real-group1-b1/Group1_IMG_0090.jpg,1,Group1_IMG_0090.jpg,,,,,0.0,100.0,100.0,100.0,,,,,,,,,,,,,,,,,,,558.9231515160063,None,,,1,0.771356915938668,561.390522976988,None,561.390522976988,None,,,560.2235918040387,None,,,,,1,2022_Mar_31_1435,Real-fake-judgement-flashing-group1,2021.1.2
104,Trial # 102,Group1-stimuli/group1-block1/real-group1-b1/Group1_IMG_0310.jpg,1,Group1_IMG_0310.jpg,,,,,0.0,101.0,101.0,101.0,,,,,,,,,,,,,,,,,,,562.1912991360296,None,,,1,0.0551143720513209,564.6747756890254,None,564.6747756890254,None,,,563.4925374139566,None,,,,,1,2022_Mar_31_1435,Real-fake-judgement-flashing-group1,2021.1.2
105,Trial # 103,Group1-stimuli/group1-block1/fake-group2-b1/encoded_Group2_IMG_0528.jpg,0,encoded_Group2_IMG_0528.jpg,,,,,0.0,102.0,102.0,102.0,,,,,,,,,,,,,,,,,,,564.7589762819698,None,,,0,0.8715507719898596,567.2263337540207,None,567.2263337540207,None,,,566.0583034720039,None,,,,,1,2022_Mar_31_1435,Real-fake-judgement-flashing-group1,2021.1.2
106,Trial # 104,Group1-stimuli/group1-block1/fake-group2-b1/encoded_Group2_IMG_1975.jpg,0,encoded_Group2_IMG_1975.jpg,,,,,0.0,103.0,103.0,103.0,,,,,,,,,,,,,,,,,,,568.1276065809652,None,,,0,2.3043715480016544,570.5935701850103,None,570.5935701850103,None,,,569.4272047720151,None,,,,,1,2022_Mar_31_1435,Real-fake-judgement-flashing-group1,2021.1.2
107,Trial # 105,Group1-stimuli/group1-block1/fake-group2-b1/encoded_Group2_IMG_0052.jpg,0,encoded_Group2_IMG_0052.jpg,,,,,0.0,104.0,104.0,104.0,,,,,,,,,,,,,,,,,,,572.9288858870277,None,,,0,1.7345769800012931,575.4113315879367,None,575.4113315879367,None,,,574.2444310280262,None,,,,,1,2022_Mar_31_1435,Real-fake-judgement-flashing-group1,2021.1.2
108,Trial # 106,Group1-stimuli/group1-block1/fake-group2-b1/encoded_Group2_IMG_0225.jpg,0,encoded_Group2_IMG_0225.jpg,,,,,0.0,105.0,105.0,105.0,,,,,,,,,,,,,,,,,,,577.1626933319494,None,,,1,1.267510348930955,579.646352677024,None,579.646352677024,None,,,578.4624096149346,None,,,,,1,2022_Mar_31_1435,Real-fake-judgement-flashing-group1,2021.1.2
109,Trial # 107,Group1-stimuli/group1-block1/real-group1-b1/Group1_IMG_2231.jpg,1,Group1_IMG_2231.jpg,,,,,0.0,106.0,106.0,106.0,,,,,,,,,,,,,,,,,,,580.9462979460368,None,,,1,3.354516890947707,583.4153624610044,None,583.4153624610044,None,,,582.2481898949482,None,,,,,1,2022_Mar_31_1435,Real-fake-judgement-flashing-group1,2021.1.2
110,Trial # 108,Group1-stimuli/group1-block1/real-group1-b1/Group1_IMG_0217.jpg,1,Group1_IMG_0217.jpg,,,,,0.0,107.0,107.0,107.0,,,,,,,,,,,,,,,,,,,586.8000005099457,None,,,1,0.671939880005084,589.2659401679412,None,589.2659401679412,None,,,588.0999236010248,None,,,,,1,2022_Mar_31_1435,Real-fake-judgement-flashing-group1,2021.1.2
111,Trial # 109,Group1-stimuli/group1-block1/real-group1-b1/Group1_IMG_0264.jpg,1,Group1_IMG_0264.jpg,,,,,0.0,108.0,108.0,108.0,,,,,,,,,,,,,,,,,,,589.9658374870196,None,,,1,0.5677845110185444,592.4340309710242,None,592.4340309710242,None,,,591.2665633939905,None,,,,,1,2022_Mar_31_1435,Real-fake-judgement-flashing-group1,2021.1.2
112,Trial # 110,Group1-stimuli/group1-block1/fake-group2-b1/encoded_Group2_IMG_0254.jpg,0,encoded_Group2_IMG_0254.jpg,,,,,0.0,109.0,109.0,109.0,,,,,,,,,,,,,,,,,,,593.0348905549617,None,,,0,1.1727858890080824,595.5010937999468,None,595.5010937999468,None,,,594.3341635779943,None,,,,,1,2022_Mar_31_1435,Real-fake-judgement-flashing-group1,2021.1.2
113,Trial # 111,Group1-stimuli/group1-block1/fake-group2-b1/encoded_Group2_IMG_5433.jpg,0,encoded_Group2_IMG_5433.jpg,,,,,0.0,110.0,110.0,110.0,,,,,,,,,,,,,,,,,,,596.7029572019819,None,,,0,0.9329177739564328,599.1569778559497,None,599.1569778559497,None,,,597.9865716269705,None,,,,,1,2022_Mar_31_1435,Real-fake-judgement-flashing-group1,2021.1.2
114,Trial # 112,Group1-stimuli/group1-block1/real-group1-b1/Group1_IMG_0252.jpg,1,Group1_IMG_0252.jpg,,,,,0.0,111.0,111.0,111.0,,,,,,,,,,,,,,,,,,,600.1078145839274,None,,,0,0.2713484480045736,602.5705324779265,None,602.5705324779265,None,,,601.4024589200271,None,,,,,1,2022_Mar_31_1435,Real-fake-judgement-flashing-group1,2021.1.2
115,Trial # 113,Group1-stimuli/group1-block1/real-group1-b1/Group1_IMG_9720.jpg,1,Group1_IMG_9720.jpg,,,,,0.0,112.0,112.0,112.0,,,,,,,,,,,,,,,,,,,602.87148759095,None,,,1,0.6155301730614156,605.3542958089383,None,605.3542958089383,None,,,604.1869923749473,None,,,,,1,2022_Mar_31_1435,Real-fake-judgement-flashing-group1,2021.1.2
116,Trial # 114,Group1-stimuli/group1-block1/fake-group2-b1/encoded_Group2_IMG_0550.jpg,0,encoded_Group2_IMG_0550.jpg,,,,,0.0,113.0,113.0,113.0,,,,,,,,,,,,,,,,,,,605.987893198966,None,,,1,0.721668791025877,608.4562198120402,None,608.4562198120402,None,,,607.2891256900039,None,,,,,1,2022_Mar_31_1435,Real-fake-judgement-flashing-group1,2021.1.2
117,Trial # 115,Group1-stimuli/group1-block1/real-group1-b1/Group1_IMG_9915.jpg,1,Group1_IMG_9915.jpg,,,,,0.0,114.0,114.0,114.0,,,,,,,,,,,,,,,,,,,609.205971800955,None,,,0,1.2483268229989335,611.6895755599253,None,611.6895755599253,None,,,610.5056575950002,None,,,,,1,2022_Mar_31_1435,Real-fake-judgement-flashing-group1,2021.1.2
118,Trial # 116,Group1-stimuli/group1-block1/real-group1-b1/Group1_IMG_9850.jpg,1,Group1_IMG_9850.jpg,,,,,0.0,115.0,115.0,115.0,,,,,,,,,,,,,,,,,,,612.9578287600307,None,,,1,0.817733925068751,615.4240823290311,None,615.4240823290311,None,,,614.2567744479747,None,,,,,1,2022_Mar_31_1435,Real-fake-judgement-flashing-group1,2021.1.2
119,Trial # 117,Group1-stimuli/group1-block1/real-group1-b1/Group1_IMG_3579.jpg,1,Group1_IMG_3579.jpg,,,,,0.0,116.0,116.0,116.0,,,,,,,,,,,,,,,,,,,616.2737529529259,None,,,1,0.6115332299377769,618.7583462579641,None,618.7583462579641,None,,,617.5758802129421,None,,,,,1,2022_Mar_31_1435,Real-fake-judgement-flashing-group1,2021.1.2
120,Trial # 118,Group1-stimuli/group1-block1/fake-group2-b1/encoded_Group2_IMG_0377.jpg,0,encoded_Group2_IMG_0377.jpg,,,,,0.0,117.0,117.0,117.0,,,,,,,,,,,,,,,,,,,619.3922628540313,None,,,0,0.4940811420092359,621.8598077299539,None,621.8598077299539,None,,,620.6920706839301,None,,,,,1,2022_Mar_31_1435,Real-fake-judgement-flashing-group1,2021.1.2
121,Trial # 119,Group1-stimuli/group1-block1/real-group1-b1/Group1_IMG_0469.jpg,1,Group1_IMG_0469.jpg,,,,,0.0,118.0,118.0,118.0,,,,,,,,,,,,,,,,,,,622.3767696049763,None,,,1,0.9664119980297984,624.8434518069262,None,624.8434518069262,None,,,623.6764725990361,None,,,,,1,2022_Mar_31_1435,Real-fake-judgement-flashing-group1,2021.1.2
122,Trial # 120,Group1-stimuli/group1-block1/fake-group2-b1/encoded_Group2_IMG_0100.jpg,0,encoded_Group2_IMG_0100.jpg,,,,,0.0,119.0,119.0,119.0,,,,,,,,,,,,,,,,,,,625.827442727983,None,,,0,0.6586518309777603,628.2792279080022,None,628.2792279080022,None,,,627.1119820750318,None,,,,,1,2022_Mar_31_1435,Real-fake-judgement-flashing-group1,2021.1.2
123,Trial # 121,Group1-stimuli/group1-block1/real-group1-b1/Group1_IMG_5359.jpg,1,Group1_IMG_5359.jpg,,,,,0.0,120.0,120.0,120.0,,,,,,,,,,,,,,,,,,,628.9615352209657,None,,,0,2.636895667994395,631.4290133059258,None,631.4290133059258,None,,,630.2620014760178,None,,,,,1,2022_Mar_31_1435,Real-fake-judgement-flashing-group1,2021.1.2
124,Trial # 122,Group1-stimuli/group1-block1/fake-group2-b1/encoded_Group2_IMG_0304.jpg,0,encoded_Group2_IMG_0304.jpg,,,,,0.0,121.0,121.0,121.0,,,,,,,,,,,,,,,,,,,634.097160271951,None,,,0,0.4535424950299784,636.564327250002,None,636.564327250002,None,,,635.397136316984,None,,,,,1,2022_Mar_31_1435,Real-fake-judgement-flashing-group1,2021.1.2
125,Trial # 123,Group1-stimuli/group1-block1/real-group1-b1/Group1_IMG_0306.jpg,1,Group1_IMG_0306.jpg,,,,,0.0,122.0,122.0,122.0,,,,,,,,,,,,,,,,,,,637.0479418809991,None,,,1,0.4705785179976374,639.5313976739999,None,639.5313976739999,None,,,638.3488985339645,None,,,,,1,2022_Mar_31_1435,Real-fake-judgement-flashing-group1,2021.1.2
126,Trial # 124,Group1-stimuli/group1-block1/real-group1-b1/Group1_IMG_0224.jpg,1,Group1_IMG_0224.jpg,,,,,0.0,123.0,123.0,123.0,,,,,,,,,,,,,,,,,,,640.0317699440056,None,,,1,0.7185100530041382,642.4992993199266,None,642.4992993199266,None,,,641.331787692965,None,,,,,1,2022_Mar_31_1435,Real-fake-judgement-flashing-group1,2021.1.2
127,Trial # 125,Group1-stimuli/group1-block1/real-group1-b1/Group1_IMG_9889.jpg,1,Group1_IMG_9889.jpg,,,,,0.0,124.0,124.0,124.0,,,,,,,,,,,,,,,,,,,643.249371642014,None,,,0,0.6041289439890534,645.7337776810164,None,645.7337776810164,None,,,644.5494746899931,None,,,,,1,2022_Mar_31_1435,Real-fake-judgement-flashing-group1,2021.1.2
128,Trial # 126,Group1-stimuli/group1-block1/real-group1-b1/Group1_IMG_0293.jpg,1,Group1_IMG_0293.jpg,,,,,0.0,125.0,125.0,125.0,,,,,,,,,,,,,,,,,,,646.3673976699356,None,,,1,0.2156372859608382,648.8341341129271,None,648.8341341129271,None,,,647.6683210729389,None,,,,,1,2022_Mar_31_1435,Real-fake-judgement-flashing-group1,2021.1.2
129,Trial # 127,Group1-stimuli/group1-block1/fake-group2-b1/encoded_Group2_IMG_0321.jpg,0,encoded_Group2_IMG_0321.jpg,,,,,0.0,126.0,126.0,126.0,,,,,,,,,,,,,,,,,,,649.0679292479763,None,,,1,0.5220822140108794,651.5517474309308,None,651.5517474309308,None,,,650.467831447022,None,,,,,1,2022_Mar_31_1435,Real-fake-judgement-flashing-group1,2021.1.2
130,Trial # 128,Group1-stimuli/group1-block1/fake-group2-b1/encoded_Group2_IMG_0400.jpg,0,encoded_Group2_IMG_0400.jpg,,,,,0.0,127.0,127.0,127.0,,,,,,,,,,,,,,,,,,,652.1034650140209,None,,,0,0.9605333040235564,654.5693475069711,None,654.5693475069711,None,,,653.4033416550374,None,,,,,1,2022_Mar_31_1435,Real-fake-judgement-flashing-group1,2021.1.2
131,Trial # 129,Group1-stimuli/group1-block1/fake-group2-b1/encoded_Group2_IMG_0443.jpg,0,encoded_Group2_IMG_0443.jpg,,,,,0.0,128.0,128.0,128.0,,,,,,,,,,,,,,,,,,,655.5538838589564,None,,,0,0.996199471061118,658.0216813649749,None,658.0216813649749,None,,,656.8546150859911,None,,,,,1,2022_Mar_31_1435,Real-fake-judgement-flashing-group1,2021.1.2
132,Trial # 130,Group1-stimuli/group1-block1/fake-group2-b1/encoded_Group2_IMG_0542.jpg,0,encoded_Group2_IMG_0542.jpg,,,,,0.0,129.0,129.0,129.0,,,,,,,,,,,,,,,,,,,659.0378867510008,None,,,1,1.0731106830062345,661.504769081017,None,661.504769081017,None,,,660.3378559399862,None,,,,,1,2022_Mar_31_1435,Real-fake-judgement-flashing-group1,2021.1.2
133,Trial # 131,Group1-stimuli/group1-block1/real-group1-b1/Group1_IMG_0885.jpg,1,Group1_IMG_0885.jpg,,,,,0.0,130.0,130.0,130.0,,,,,,,,,,,,,,,,,,,662.6065641880268,None,,,1,0.4647339809453115,665.0891588160302,None,665.0891588160302,None,,,663.9056314059999,None,,,,,1,2022_Mar_31_1435,Real-fake-judgement-flashing-group1,2021.1.2
134,Trial # 132,Group1-stimuli/group1-block1/real-group1-b1/Group1_IMG_0375.jpg,1,Group1_IMG_0375.jpg,,,,,0.0,131.0,131.0,131.0,,,,,,,,,,,,,,,,,,,665.5729482609313,None,,,0,0.7843381520360708,668.0415413270239,None,668.0415413270239,None,,,666.8745178369572,None,,,,,1,2022_Mar_31_1435,Real-fake-judgement-flashing-group1,2021.1.2
135,Trial # 133,Group1-stimuli/group1-block1/fake-group2-b1/encoded_Group2_IMG_7351.jpg,0,encoded_Group2_IMG_7351.jpg,,,,,0.0,132.0,132.0,132.0,,,,,,,,,,,,,,,,,,,668.8573903100332,None,,,0,0.8772893360583112,671.3245862890035,None,671.3245862890035,None,,,670.1575382979354,None,,,,,1,2022_Mar_31_1435,Real-fake-judgement-flashing-group1,2021.1.2
136,Trial # 134,Group1-stimuli/group1-block1/fake-group2-b1/encoded_Group2_IMG_0416.jpg,0,encoded_Group2_IMG_0416.jpg,,,,,0.0,133.0,133.0,133.0,,,,,,,,,,,,,,,,,,,672.2253809879767,None,,,0,0.501543074962683,674.6922942140372,None,674.6922942140372,None,,,673.5252492750296,None,,,,,1,2022_Mar_31_1435,Real-fake-judgement-flashing-group1,2021.1.2
137,Trial # 135,Group1-stimuli/group1-block1/fake-group2-b1/encoded_Group2_IMG_0139.jpg,0,encoded_Group2_IMG_0139.jpg,,,,,0.0,134.0,134.0,134.0,,,,,,,,,,,,,,,,,,,675.2256002189824,None,,,0,0.5392561620101333,677.7106239639688,None,677.7106239639688,None,,,676.5265282390174,None,,,,,1,2022_Mar_31_1435,Real-fake-judgement-flashing-group1,2021.1.2
138,Trial # 136,Group1-stimuli/group1-block1/real-group1-b1/Group1_IMG_9677.jpg,1,Group1_IMG_9677.jpg,,,,,0.0,135.0,135.0,135.0,,,,,,,,,,,,,,,,,,,678.2779627529671,None,,,1,1.1445197679568082,680.777365943999,None,680.777365943999,None,,,679.5936048430158,None,,,,,1,2022_Mar_31_1435,Real-fake-judgement-flashing-group1,2021.1.2
139,Trial # 137,Group1-stimuli/group1-block1/fake-group2-b1/encoded_Group2_IMG_5982.jpg,0,encoded_Group2_IMG_5982.jpg,,,,,0.0,136.0,136.0,136.0,,,,,,,,,,,,,,,,,,,681.9457712939475,None,,,0,0.9498913129791616,684.4119995379588,None,684.4119995379588,None,,,683.2461028560065,None,,,,,1,2022_Mar_31_1435,Real-fake-judgement-flashing-group1,2021.1.2
140,Trial # 138,Group1-stimuli/group1-block1/fake-group2-b1/encoded_Group2_IMG_1144.jpg,0,encoded_Group2_IMG_1144.jpg,,,,,0.0,137.0,137.0,137.0,,,,,,,,,,,,,,,,,,,685.379035535967,None,,,0,0.6750725860474631,687.8468105279608,None,687.8468105279608,None,,,686.6624203129904,None,,,,,1,2022_Mar_31_1435,Real-fake-judgement-flashing-group1,2021.1.2
141,Trial # 139,Group1-stimuli/group1-block1/fake-group2-b1/encoded_Group2_IMG_0315.jpg,0,encoded_Group2_IMG_0315.jpg,,,,,0.0,138.0,138.0,138.0,,,,,,,,,,,,,,,,,,,688.5469655069755,None,,,0,0.6112873499514535,691.0305931860348,None,691.0305931860348,None,,,689.8635976020014,None,,,,,1,2022_Mar_31_1435,Real-fake-judgement-flashing-group1,2021.1.2
142,Trial # 140,Group1-stimuli/group1-block1/real-group1-b1/Group1_IMG_130.jpg,1,Group1_IMG_130.jpg,,,,,0.0,139.0,139.0,139.0,,,,,,,,,,,,,,,,,,,691.6646643419517,None,,,1,0.8221221449784935,694.1317579640308,None,694.1317579640308,None,,,692.9656184950145,None,,,,,1,2022_Mar_31_1435,Real-fake-judgement-flashing-group1,2021.1.2
143,Trial # 141,Group1-stimuli/group1-block1/real-group1-b1/Group1_IMG_0024.jpg,1,Group1_IMG_0024.jpg,,,,,0.0,140.0,140.0,140.0,,,,,,,,,,,,,,,,,,,694.9819585549412,None,,,0,1.0240009980043396,697.4498536930187,None,697.4498536930187,None,,,696.2989407749847,None,,,,,1,2022_Mar_31_1435,Real-fake-judgement-flashing-group1,2021.1.2
144,Trial # 142,Group1-stimuli/group1-block1/fake-group2-b1/encoded_Group2_IMG_5012.jpg,0,encoded_Group2_IMG_5012.jpg,,,,,0.0,141.0,141.0,141.0,,,,,,,,,,,,,,,,,,,698.5002720450284,None,,,0,0.4667655589291826,700.9671491220361,None,700.9671491220361,None,,,699.8001649209764,None,,,,,1,2022_Mar_31_1435,Real-fake-judgement-flashing-group1,2021.1.2
145,Trial # 143,Group1-stimuli/group1-block1/fake-group2-b1/encoded_Group2_IMG_0209.jpg,0,encoded_Group2_IMG_0209.jpg,,,,,0.0,142.0,142.0,142.0,,,,,,,,,,,,,,,,,,,701.4504417469725,None,,,0,0.7872024161042646,703.9346772329882,None,703.9346772329882,None,,,702.7522382669849,None,,,,,1,2022_Mar_31_1435,Real-fake-judgement-flashing-group1,2021.1.2
146,Trial # 144,Group1-stimuli/group1-block1/real-group1-b1/Group1_IMG_0373.jpg,1,Group1_IMG_0373.jpg,,,,,0.0,143.0,143.0,143.0,,,,,,,,,,,,,,,,,,,704.7515539010055,None,,,1,0.7663793750107288,707.2195556400111,None,707.2195556400111,None,,,706.0685991669307,None,,,,,1,2022_Mar_31_1435,Real-fake-judgement-flashing-group1,2021.1.2
147,Trial # 145,Group1-stimuli/group1-block1/real-group1-b1/Group1_IMG_5899.jpg,1,Group1_IMG_5899.jpg,,,,,0.0,144.0,144.0,144.0,,,,,,,,,,,,,,,,,,,708.0028007120127,None,,,1,0.1676331100752577,710.4581715289969,None,710.4581715289969,None,,,709.2908689259784,None,,,,,1,2022_Mar_31_1435,Real-fake-judgement-flashing-group1,2021.1.2
148,Trial # 146,Group1-stimuli/group1-block1/real-group1-b1/Group1_IMG_0162.jpg,1,Group1_IMG_0162.jpg,,,,,0.0,145.0,145.0,145.0,,,,,,,,,,,,,,,,,,,710.6586008949671,None,,,1,1.0239270760212094,713.1218754060101,None,713.1218754060101,None,,,711.9550502740312,None,,,,,1,2022_Mar_31_1435,Real-fake-judgement-flashing-group1,2021.1.2
149,Trial # 147,Group1-stimuli/group1-block1/real-group1-b1/Group1_IMG_0543.jpg,1,Group1_IMG_0543.jpg,,,,,0.0,146.0,146.0,146.0,,,,,,,,,,,,,,,,,,,714.1710314729717,None,,,1,0.6991463210433722,716.6386666139588,None,716.6386666139588,None,,,715.4715362519491,None,,,,,1,2022_Mar_31_1435,Real-fake-judgement-flashing-group1,2021.1.2
150,Trial # 148,Group1-stimuli/group1-block1/fake-group2-b1/encoded_Group2_IMG_0355.jpg,0,encoded_Group2_IMG_0355.jpg,,,,,0.0,147.0,147.0,147.0,,,,,,,,,,,,,,,,,,,717.355961121968,None,,,0,1.1228979439474642,719.8229830639903,None,719.8229830639903,None,,,718.6557272640057,None,,,,,1,2022_Mar_31_1435,Real-fake-judgement-flashing-group1,2021.1.2
151,Trial # 149,Group1-stimuli/group1-block1/real-group1-b1/Group1_IMG_9765.jpg,1,Group1_IMG_9765.jpg,,,,,0.0,148.0,148.0,148.0,,,,,,,,,,,,,,,,,,,720.9730549720116,None,,,1,1.0398106439970434,723.4420691980049,None,723.4420691980049,None,,,722.2740377399605,None,,,,,1,2022_Mar_31_1435,Real-fake-judgement-flashing-group1,2021.1.2
152,Trial # 150,Group1-stimuli/group1-block1/fake-group2-b1/encoded_Group2_IMG_1378.jpg,0,encoded_Group2_IMG_1378.jpg,,,,,0.0,149.0,149.0,149.0,,,,,,,,,,,,,,,,,,,724.5081187949982,None,,,0,1.0423225170234218,726.9755574299488,None,726.9755574299488,None,,,725.8081374260364,None,,,,,1,2022_Mar_31_1435,Real-fake-judgement-flashing-group1,2021.1.2
153,Trial # 1,Group1-stimuli/group1-block2/fake-group2-b2/encoded_Group2_IMG_0155.jpg,0,encoded_Group2_IMG_0155.jpg,,,,,,,,,0.0,0.0,0.0,0.0,,,,,,,,,,,,,,,935.3646052000112,None,,,0,2.985925368033349,937.807959674974,None,937.807959674974,None,928.6219360729448,None,936.6566915139556,None,728.0431926950114,None,,,1,2022_Mar_31_1435,Real-fake-judgement-flashing-group1,2021.1.2
154,Trial # 2,Group1-stimuli/group1-block2/real-group1-b2/Group1_IMG_0519.jpg,1,Group1_IMG_0519.jpg,,,,,,,,,0.0,1.0,1.0,1.0,,,,,,,,,,,,,,,940.824693712988,None,,,0,1.0856370721012354,943.2922531670192,None,943.2922531670192,None,,,942.1260481249774,None,,,,,1,2022_Mar_31_1435,Real-fake-judgement-flashing-group1,2021.1.2
155,Trial # 3,Group1-stimuli/group1-block2/fake-group2-b2/encoded_Group2_IMG_0135.jpg,0,encoded_Group2_IMG_0135.jpg,,,,,,,,,0.0,2.0,2.0,2.0,,,,,,,,,,,,,,,944.4090434799436,None,,,0,0.7090287039754912,946.8768549090018,None,946.8768549090018,None,,,945.7095380070386,None,,,,,1,2022_Mar_31_1435,Real-fake-judgement-flashing-group1,2021.1.2
156,Trial # 4,Group1-stimuli/group1-block2/real-group1-b2/Group1_IMG_5310.jpg,1,Group1_IMG_5310.jpg,,,,,,,,,0.0,3.0,3.0,3.0,,,,,,,,,,,,,,,947.6112299829256,None,,,0,0.4364453969756141,950.0774470849428,None,950.0774470849428,None,,,948.9113364729564,None,,,,,1,2022_Mar_31_1435,Real-fake-judgement-flashing-group1,2021.1.2
157,Trial # 5,Group1-stimuli/group1-block2/real-group1-b2/Group1_IMG_0522.jpg,1,Group1_IMG_0522.jpg,,,,,,,,,0.0,4.0,4.0,4.0,,,,,,,,,,,,,,,950.544347094954,None,,,1,0.6444048980483785,953.0294845650204,None,953.0294845650204,None,,,951.8458546960028,None,,,,,1,2022_Mar_31_1435,Real-fake-judgement-flashing-group1,2021.1.2
158,Trial # 6,Group1-stimuli/group1-block2/fake-group2-b2/encoded_Group2_IMG_0484.jpg,0,encoded_Group2_IMG_0484.jpg,,,,,,,,,0.0,5.0,5.0,5.0,,,,,,,,,,,,,,,953.6952325429302,None,,,1,0.302859361981973,956.1790752479574,None,956.1790752479574,None,,,955.0454720039852,None,,,,,1,2022_Mar_31_1435,Real-fake-judgement-flashing-group1,2021.1.2
159,Trial # 7,Group1-stimuli/group1-block2/fake-group2-b2/encoded_Group2_IMG_5948.jpg,0,encoded_Group2_IMG_5948.jpg,,,,,,,,,0.0,6.0,6.0,6.0,,,,,,,,,,,,,,,956.5123927349924,None,,,1,0.4039568819571286,959.0139211920324,None,959.0139211920324,None,,,957.8141762949526,None,,,,,1,2022_Mar_31_1435,Real-fake-judgement-flashing-group1,2021.1.2
160,Trial # 8,Group1-stimuli/group1-block2/fake-group2-b2/encoded_Group2_IMG_3591.jpg,0,encoded_Group2_IMG_3591.jpg,,,,,,,,,0.0,7.0,7.0,7.0,,,,,,,,,,,,,,,959.44710567093,None,,,1,0.510235883994028,961.915649055969,None,961.915649055969,None,,,960.747264717007,None,,,,,1,2022_Mar_31_1435,Real-fake-judgement-flashing-group1,2021.1.2
161,Trial # 9,Group1-stimuli/group1-block2/real-group1-b2/Group1_IMG_9835.jpg,1,Group1_IMG_9835.jpg,,,,,,,,,0.0,8.0,8.0,8.0,,,,,,,,,,,,,,,962.44941664394,None,,,1,0.2940829059807583,964.9158028329256,None,964.9158028329256,None,,,963.7492726190249,None,,,,,1,2022_Mar_31_1435,Real-fake-judgement-flashing-group1,2021.1.2
162,Trial # 10,Group1-stimuli/group1-block2/real-group1-b2/Group1_IMG_0556.jpg,1,Group1_IMG_0556.jpg,,,,,,,,,0.0,9.0,9.0,9.0,,,,,,,,,,,,,,,965.2326221360128,None,,,1,0.2851521749980747,967.7007403459866,None,967.7007403459866,None,,,966.532455113018,None,,,,,1,2022_Mar_31_1435,Real-fake-judgement-flashing-group1,2021.1.2
163,Trial # 11,Group1-stimuli/group1-block2/fake-group2-b2/encoded_Group2_IMG_9736.jpg,0,encoded_Group2_IMG_9736.jpg,,,,,,,,,0.0,10.0,10.0,10.0,,,,,,,,,,,,,,,968.01739751501,None,,,0,0.8054767129942775,970.5004038829356,None,970.5004038829356,None,,,969.333224204951,None,,,,,1,2022_Mar_31_1435,Real-fake-judgement-flashing-group1,2021.1.2
164,Trial # 12,Group1-stimuli/group1-block2/real-group1-b2/Group1_IMG_9867.jpg,1,Group1_IMG_9867.jpg,,,,,,,,,0.0,11.0,11.0,11.0,,,,,,,,,,,,,,,971.3343915690202,None,,,0,1.1042649380397052,973.801500799018,None,973.801500799018,None,,,972.6356476850342,None,,,,,1,2022_Mar_31_1435,Real-fake-judgement-flashing-group1,2021.1.2
165,Trial # 13,Group1-stimuli/group1-block2/fake-group2-b2/encoded_Group2_IMG_9886.jpg,0,encoded_Group2_IMG_9886.jpg,,,,,,,,,0.0,12.0,12.0,12.0,,,,,,,,,,,,,,,974.935574310948,None,,,1,0.9430672600865364,977.4027295890264,None,977.4027295890264,None,,,976.2352486639284,None,,,,,1,2022_Mar_31_1435,Real-fake-judgement-flashing-group1,2021.1.2
166,Trial # 14,Group1-stimuli/group1-block2/fake-group2-b2/encoded_Group2_IMG_2245.jpg,0,encoded_Group2_IMG_2245.jpg,,,,,,,,,0.0,13.0,13.0,13.0,,,,,,,,,,,,,,,978.3704938009614,None,,,0,0.8451321059837937,980.8368028189288,None,980.8368028189288,None,,,979.6696935580112,None,,,,,1,2022_Mar_31_1435,Real-fake-judgement-flashing-group1,2021.1.2
167,Trial # 15,Group1-stimuli/group1-block2/fake-group2-b2/encoded_Group2_IMG_0507.jpg,0,encoded_Group2_IMG_0507.jpg,,,,,,,,,0.0,14.0,14.0,14.0,,,,,,,,,,,,,,,981.7039423940004,None,,,1,1.2537896030116826,984.1721010960172,None,984.1721010960172,None,,,983.0053553349572,None,,,,,1,2022_Mar_31_1435,Real-fake-judgement-flashing-group1,2021.1.2
168,Trial # 16,Group1-stimuli/group1-block2/fake-group2-b2/encoded_Group2_IMG_0338.jpg,0,encoded_Group2_IMG_0338.jpg,,,,,,,,,0.0,15.0,15.0,15.0,,,,,,,,,,,,,,,985.4551073689944,None,,,1,1.1265740169910714,987.9232576530194,None,987.9232576530194,None,,,986.754780896008,None,,,,,1,2022_Mar_31_1435,Real-fake-judgement-flashing-group1,2021.1.2
169,Trial # 17,Group1-stimuli/group1-block2/real-group1-b2/Group1_IMG_0376.jpg,1,Group1_IMG_0376.jpg,,,,,,,,,0.0,16.0,16.0,16.0,,,,,,,,,,,,,,,989.0725175850092,None,,,1,0.7816095610614866,991.5401765289716,None,991.5401765289716,None,,,990.373046830995,None,,,,,1,2022_Mar_31_1435,Real-fake-judgement-flashing-group1,2021.1.2
170,Trial # 18,Group1-stimuli/group1-block2/real-group1-b2/Group1_IMG_9821.jpg,1,Group1_IMG_9821.jpg,,,,,,,,,0.0,17.0,17.0,17.0,,,,,,,,,,,,,,,992.3415888960008,None,,,1,0.5300276200287044,994.8078630869276,None,994.8078630869276,None,,,993.6418894639936,None,,,,,1,2022_Mar_31_1435,Real-fake-judgement-flashing-group1,2021.1.2
171,Trial # 19,Group1-stimuli/group1-block2/fake-group2-b2/encoded_Group2_IMG_0388.jpg,0,encoded_Group2_IMG_0388.jpg,,,,,,,,,0.0,18.0,18.0,18.0,,,,,,,,,,,,,,,995.35807380802,None,,,1,1.5994636850664392,997.8264737300342,None,997.8264737300342,None,,,996.7747344819364,None,,,,,1,2022_Mar_31_1435,Real-fake-judgement-flashing-group1,2021.1.2
172,Trial # 20,Group1-stimuli/group1-block2/fake-group2-b2/encoded_Group2_IMG_0222.jpg,0,encoded_Group2_IMG_0222.jpg,,,,,,,,,0.0,19.0,19.0,19.0,,,,,,,,,,,,,,,999.4429880370152,None,,,0,0.5458250099327415,1001.9280658910284,None,1001.9280658910284,None,,,1000.7597135970136,None,,,,,1,2022_Mar_31_1435,Real-fake-judgement-flashing-group1,2021.1.2
173,Trial # 21,Group1-stimuli/group1-block2/fake-group2-b2/encoded_Group2_IMG_2215.jpg,0,encoded_Group2_IMG_2215.jpg,,,,,,,,,0.0,20.0,20.0,20.0,,,,,,,,,,,,,,,1002.4948457119754,None,,,0,0.4008115699980408,1004.9610024209832,None,1004.9610024209832,None,,,1003.7937420079252,None,,,,,1,2022_Mar_31_1435,Real-fake-judgement-flashing-group1,2021.1.2
174,Trial # 22,Group1-stimuli/group1-block2/real-group1-b2/Group1_IMG_9760.jpg,1,Group1_IMG_9760.jpg,,,,,,,,,0.0,21.0,21.0,21.0,,,,,,,,,,,,,,,1005.3945277399616,None,,,1,0.922732863924466,1007.8631584889954,None,1007.8631584889954,None,,,1006.6942542089382,None,,,,,1,2022_Mar_31_1435,Real-fake-judgement-flashing-group1,2021.1.2
175,Trial # 23,Group1-stimuli/group1-block2/real-group1-b2/Group1_IMG_9897.jpg,1,Group1_IMG_9897.jpg,,,,,,,,,0.0,22.0,22.0,22.0,,,,,,,,,,,,,,,1008.8133131460054,None,,,1,0.481810035998933,1011.2959932649974,None,1011.2959932649974,None,,,1010.1125827570212,None,,,,,1,2022_Mar_31_1435,Real-fake-judgement-flashing-group1,2021.1.2
176,Trial # 24,Group1-stimuli/group1-block2/real-group1-b2/Group1_IMG_4250.jpg,1,Group1_IMG_4250.jpg,,,,,,,,,0.0,23.0,23.0,23.0,,,,,,,,,,,,,,,1011.7969275219366,None,,,1,0.5215320360148326,1014.2803568890084,None,1014.2803568890084,None,,,1013.0977721050148,None,,,,,1,2022_Mar_31_1435,Real-fake-judgement-flashing-group1,2021.1.2
177,Trial # 25,Group1-stimuli/group1-block2/real-group1-b2/Group1_IMG_2244.jpg,1,Group1_IMG_2244.jpg,,,,,,,,,0.0,24.0,24.0,24.0,,,,,,,,,,,,,,,1014.8308198669693,None,,,1,15.151753052021377,1017.2981340460246,None,1017.2981340460246,None,,,1016.1307390879374,None,,,,,1,2022_Mar_31_1435,Real-fake-judgement-flashing-group1,2021.1.2
178,Trial # 26,Group1-stimuli/group1-block2/fake-group2-b2/encoded_Group2_IMG_0501.jpg,0,encoded_Group2_IMG_0501.jpg,,,,,,,,,0.0,25.0,25.0,25.0,,,,,,,,,,,,,,,1032.4707726859488,None,,,0,1.864801603951492,1034.937037472031,None,1034.937037472031,None,,,1033.769764155033,None,,,,,1,2022_Mar_31_1435,Real-fake-judgement-flashing-group1,2021.1.2
179,Trial # 27,Group1-stimuli/group1-block2/real-group1-b2/Group1_IMG_9684.jpg,1,Group1_IMG_9684.jpg,,,,,,,,,0.0,26.0,26.0,26.0,,,,,,,,,,,,,,,1036.8214765150333,None,,,1,0.7536988529609516,1039.288272500038,None,1039.288272500038,None,,,1038.1222254990134,None,,,,,1,2022_Mar_31_1435,Real-fake-judgement-flashing-group1,2021.1.2
180,Trial # 28,Group1-stimuli/group1-block2/real-group1-b2/Group1_IMG_1039.jpg,1,Group1_IMG_1039.jpg,,,,,,,,,0.0,27.0,27.0,27.0,,,,,,,,,,,,,,,1040.072461277945,None,,,1,0.4856090190587565,1042.5402818309376,None,1042.5402818309376,None,,,1041.3721080840332,None,,,,,1,2022_Mar_31_1435,Real-fake-judgement-flashing-group1,2021.1.2
181,Trial # 29,Group1-stimuli/group1-block2/fake-group2-b2/encoded_Group2_IMG_0251.jpg,0,encoded_Group2_IMG_0251.jpg,,,,,,,,,0.0,28.0,28.0,28.0,,,,,,,,,,,,,,,1043.057631177944,None,,,0,0.8375819880748168,1045.5403043649858,None,1045.5403043649858,None,,,1044.3728518049463,None,,,,,1,2022_Mar_31_1435,Real-fake-judgement-flashing-group1,2021.1.2
182,Trial # 30,Group1-stimuli/group1-block2/real-group1-b2/Group1_IMG_9692.jpg,1,Group1_IMG_9692.jpg,,,,,,,,,0.0,29.0,29.0,29.0,,,,,,,,,,,,,,,1046.4071603739867,None,,,1,0.4868517740396783,1048.8910369899822,None,1048.8910369899822,None,,,1047.7085818350315,None,,,,,1,2022_Mar_31_1435,Real-fake-judgement-flashing-group1,2021.1.2
183,Trial # 31,Group1-stimuli/group1-block2/real-group1-b2/Group1_IMG_0512.jpg,1,Group1_IMG_0512.jpg,,,,,,,,,0.0,30.0,30.0,30.0,,,,,,,,,,,,,,,1049.4082145659486,None,,,1,0.0367484319722279,1051.877139876946,None,1051.877139876946,None,,,1050.7084458159516,None,,,,,1,2022_Mar_31_1435,Real-fake-judgement-flashing-group1,2021.1.2
184,Trial # 32,Group1-stimuli/group1-block2/fake-group2-b2/encoded_Group2_IMG_9673.jpg,0,encoded_Group2_IMG_9673.jpg,,,,,,,,,0.0,31.0,31.0,31.0,,,,,,,,,,,,,,,1051.9425772019897,None,,,0,2.8635706729255617,1054.4263160970297,None,1054.4263160970297,None,,,1053.2437296479477,None,,,,,1,2022_Mar_31_1435,Real-fake-judgement-flashing-group1,2021.1.2
185,Trial # 33,Group1-stimuli/group1-block2/fake-group2-b2/encoded_Group2_IMG_5135.jpg,0,encoded_Group2_IMG_5135.jpg,,,,,,,,,0.0,32.0,32.0,32.0,,,,,,,,,,,,,,,1057.3117826649686,None,,,0,1.311842299066484,1059.7780484210234,None,1059.7780484210234,None,,,1058.610998166958,None,,,,,1,2022_Mar_31_1435,Real-fake-judgement-flashing-group1,2021.1.2
186,Trial # 34,Group1-stimuli/group1-block2/real-group1-b2/Group1_IMG_0396.jpg,1,Group1_IMG_0396.jpg,,,,,,,,,0.0,33.0,33.0,33.0,,,,,,,,,,,,,,,1061.1118560569594,None,,,1,1.414326753932983,1063.5955671539996,None,1063.5955671539996,None,,,1062.4130891870009,None,,,,,1,2022_Mar_31_1435,Real-fake-judgement-flashing-group1,2021.1.2
187,Trial # 35,Group1-stimuli/group1-block2/real-group1-b2/Group1_IMG_4919.jpg,1,Group1_IMG_4919.jpg,,,,,,,,,0.0,34.0,34.0,34.0,,,,,,,,,,,,,,,1065.0292485189857,None,,,1,6.97641842009034,1067.4974637819687,None,1067.4974637819687,None,,,1066.3463877110044,None,,,,,1,2022_Mar_31_1435,Real-fake-judgement-flashing-group1,2021.1.2
188,Trial # 36,Group1-stimuli/group1-block2/real-group1-b2/Group1_IMG_0449.jpg,1,Group1_IMG_0449.jpg,,,,,,,,,0.0,35.0,35.0,35.0,,,,,,,,,,,,,,,1074.4992540189996,None,,,0,0.986519058002159,1076.9833702800097,None,1076.9833702800097,None,,,1075.8165474169657,None,,,,,1,2022_Mar_31_1435,Real-fake-judgement-flashing-group1,2021.1.2
189,Trial # 37,Group1-stimuli/group1-block2/fake-group2-b2/encoded_Group2_IMG_0539.jpg,0,encoded_Group2_IMG_0539.jpg,,,,,,,,,0.0,36.0,36.0,36.0,,,,,,,,,,,,,,,1078.001352560008,None,,,0,15.718593189958485,1080.4672976379516,None,1080.4672976379516,None,,,1079.3013966289582,None,,,,,1,2022_Mar_31_1435,Real-fake-judgement-flashing-group1,2021.1.2
190,Trial # 38,Group1-stimuli/group1-block2/real-group1-b2/Group1_IMG_0453.jpg,1,Group1_IMG_0453.jpg,,,,,,,,,0.0,37.0,37.0,37.0,,,,,,,,,,,,,,,1096.2060285019688,None,,,1,1.7684866599738598,1098.673365931958,None,1098.673365931958,None,,,1097.5073091669474,None,,,,,1,2022_Mar_31_1435,Real-fake-judgement-flashing-group1,2021.1.2
191,Trial # 39,Group1-stimuli/group1-block2/fake-group2-b2/encoded_Group2_IMG_0318.jpg,0,encoded_Group2_IMG_0318.jpg,,,,,,,,,0.0,38.0,38.0,38.0,,,,,,,,,,,,,,,1100.473991409992,None,,,1,2.307291003060527,1102.942636137013,None,1102.942636137013,None,,,1101.790500937961,None,,,,,1,2022_Mar_31_1435,Real-fake-judgement-flashing-group1,2021.1.2
192,Trial # 40,Group1-stimuli/group1-block2/real-group1-b2/Group1_IMG_1678.jpg,1,Group1_IMG_1678.jpg,,,,,,,,,0.0,39.0,39.0,39.0,,,,,,,,,,,,,,,1105.275477802963,None,,,1,1.0020290920510888,1107.74382668396,None,1107.74382668396,None,,,1106.5753410150064,None,,,,,1,2022_Mar_31_1435,Real-fake-judgement-flashing-group1,2021.1.2
193,Trial # 41,Group1-stimuli/group1-block2/fake-group2-b2/encoded_Group2_IMG_0325.jpg,0,encoded_Group2_IMG_0325.jpg,,,,,,,,,0.0,40.0,40.0,40.0,,,,,,,,,,,,,,,1108.7760103619655,None,,,0,2.957335268962197,1111.2605531429872,None,1111.2605531429872,None,,,1110.0766307020094,None,,,,,1,2022_Mar_31_1435,Real-fake-judgement-flashing-group1,2021.1.2
194,Trial # 42,Group1-stimuli/group1-block2/fake-group2-b2/encoded_Group2_IMG_9935.jpg,0,encoded_Group2_IMG_9935.jpg,,,,,,,,,0.0,41.0,41.0,41.0,,,,,,,,,,,,,,,1114.2448929439995,None,,,0,1.0019901050254705,1116.7118420969928,None,1116.7118420969928,None,,,1115.544739895966,None,,,,,1,2022_Mar_31_1435,Real-fake-judgement-flashing-group1,2021.1.2
195,Trial # 43,Group1-stimuli/group1-block2/fake-group2-b2/encoded_Group2_IMG_0308.jpg,0,encoded_Group2_IMG_0308.jpg,,,,,,,,,0.0,42.0,42.0,42.0,,,,,,,,,,,,,,,1117.7471382960211,None,,,0,1.0041054220637309,1120.229786869022,None,1120.229786869022,None,,,1119.062794129015,None,,,,,1,2022_Mar_31_1435,Real-fake-judgement-flashing-group1,2021.1.2
196,Trial # 44,Group1-stimuli/group1-block2/real-group1-b2/Group1_IMG_0467.jpg,1,Group1_IMG_0467.jpg,,,,,,,,,0.0,43.0,43.0,43.0,,,,,,,,,,,,,,,1121.2638427109923,None,,,1,0.9031409950694068,1123.7307432990056,None,1123.7307432990056,None,,,1122.5650142090162,None,,,,,1,2022_Mar_31_1435,Real-fake-judgement-flashing-group1,2021.1.2
197,Trial # 45,Group1-stimuli/group1-block2/fake-group2-b2/encoded_Group2_IMG_9839.jpg,0,encoded_Group2_IMG_9839.jpg,,,,,,,,,0.0,44.0,44.0,44.0,,,,,,,,,,,,,,,1124.665650562034,None,,,1,0.8207442730199546,1127.1331468949793,None,1127.1331468949793,None,,,1125.9650314919418,None,,,,,1,2022_Mar_31_1435,Real-fake-judgement-flashing-group1,2021.1.2
198,Trial # 46,Group1-stimuli/group1-block2/fake-group2-b2/encoded_Group2_IMG_9681.jpg,0,encoded_Group2_IMG_9681.jpg,,,,,,,,,0.0,45.0,45.0,45.0,,,,,,,,,,,,,,,1127.983632168034,None,,,0,1.2393718489911407,1130.4665169509826,None,1130.4665169509826,None,,,1129.2992043769918,None,,,,,1,2022_Mar_31_1435,Real-fake-judgement-flashing-group1,2021.1.2
199,Trial # 47,Group1-stimuli/group1-block2/fake-group2-b2/encoded_Group2_IMG_0458.jpg,0,encoded_Group2_IMG_0458.jpg,,,,,,,,,0.0,46.0,46.0,46.0,,,,,,,,,,,,,,,1131.7333636999829,None,,,0,0.6484901909716427,1134.2013844259782,None,1134.2013844259782,None,,,1133.035030039027,None,,,,,1,2022_Mar_31_1435,Real-fake-judgement-flashing-group1,2021.1.2
200,Trial # 48,Group1-stimuli/group1-block2/real-group1-b2/Group1_IMG_1095.jpg,1,Group1_IMG_1095.jpg,,,,,,,,,0.0,47.0,47.0,47.0,,,,,,,,,,,,,,,1134.868160870974,None,,,1,1.3054486840264872,1137.336458150996,None,1137.336458150996,None,,,1136.1848242960405,None,,,,,1,2022_Mar_31_1435,Real-fake-judgement-flashing-group1,2021.1.2
201,Trial # 49,Group1-stimuli/group1-block2/fake-group2-b2/encoded_Group2_IMG_9710.jpg,0,encoded_Group2_IMG_9710.jpg,,,,,,,,,0.0,48.0,48.0,48.0,,,,,,,,,,,,,,,1138.6695760609582,None,,,0,0.7048687899950892,1141.137029394973,None,1141.137029394973,None,,,1139.9692933929618,None,,,,,1,2022_Mar_31_1435,Real-fake-judgement-flashing-group1,2021.1.2
202,Trial # 50,Group1-stimuli/group1-block2/fake-group2-b2/encoded_Group2_IMG_9819.jpg,0,encoded_Group2_IMG_9819.jpg,,,,,,,,,0.0,49.0,49.0,49.0,,,,,,,,,,,,,,,1141.870297109941,None,,,1,0.9204484780784696,1144.3374992780157,None,1144.3374992780157,None,,,1143.1713954380248,None,,,,,1,2022_Mar_31_1435,Real-fake-judgement-flashing-group1,2021.1.2
203,Trial # 51,Group1-stimuli/group1-block2/real-group1-b2/Group1_IMG_0064.jpg,1,Group1_IMG_0064.jpg,,,,,,,,,0.0,50.0,50.0,50.0,,,,,,,,,,,,,,,1145.2885087869363,None,,,1,0.9255966680357232,1147.7563104539877,None,1147.7563104539877,None,,,1146.5880816390272,None,,,,,1,2022_Mar_31_1435,Real-fake-judgement-flashing-group1,2021.1.2
204,Trial # 52,Group1-stimuli/group1-block2/fake-group2-b2/encoded_Group2_IMG_9756.jpg,0,encoded_Group2_IMG_9756.jpg,,,,,,,,,0.0,51.0,51.0,51.0,,,,,,,,,,,,,,,1148.7065494839337,None,,,0,0.8129661639686674,1151.1729353879346,None,1151.1729353879346,None,,,1150.005704990006,None,,,,,1,2022_Mar_31_1435,Real-fake-judgement-flashing-group1,2021.1.2
205,Trial # 53,Group1-stimuli/group1-block2/fake-group2-b2/encoded_Group2_IMG_5888.jpg,0,encoded_Group2_IMG_5888.jpg,,,,,,,,,0.0,52.0,52.0,52.0,,,,,,,,,,,,,,,1152.0076809439342,None,,,0,1.0960485310060903,1154.473841405008,None,1154.473841405008,None,,,1153.3072769999271,None,,,,,1,2022_Mar_31_1435,Real-fake-judgement-flashing-group1,2021.1.2
206,Trial # 54,Group1-stimuli/group1-block2/real-group1-b2/Group1_IMG_1476.jpg,1,Group1_IMG_1476.jpg,,,,,,,,,0.0,53.0,53.0,53.0,,,,,,,,,,,,,,,1155.5908080709632,None,,,1,0.7912670678924769,1158.0586173239865,None,1158.0586173239865,None,,,1156.8923105089923,None,,,,,1,2022_Mar_31_1435,Real-fake-judgement-flashing-group1,2021.1.2
207,Trial # 55,Group1-stimuli/group1-block2/real-group1-b2/Group1_IMG_1917.jpg,1,Group1_IMG_1917.jpg,,,,,,,,,0.0,54.0,54.0,54.0,,,,,,,,,,,,,,,1158.875978018972,None,,,1,0.4114038699772209,1161.3424833809258,None,1161.3424833809258,None,,,1160.175344381947,None,,,,,1,2022_Mar_31_1435,Real-fake-judgement-flashing-group1,2021.1.2
208,Trial # 56,Group1-stimuli/group1-block2/real-group1-b2/Group1_IMG_0413.jpg,1,Group1_IMG_0413.jpg,,,,,,,,,0.0,55.0,55.0,55.0,,,,,,,,,,,,,,,1161.7760434319498,None,,,0,0.6604276259895414,1164.261456785025,None,1164.261456785025,None,,,1163.1112065740165,None,,,,,1,2022_Mar_31_1435,Real-fake-judgement-flashing-group1,2021.1.2
209,Trial # 57,Group1-stimuli/group1-block2/real-group1-b2/Group1_IMG_1001.jpg,1,Group1_IMG_1001.jpg,,,,,,,,,0.0,56.0,56.0,56.0,,,,,,,,,,,,,,,1164.9436936309794,None,,,1,0.8303997850744054,1167.4115149530116,None,1167.4115149530116,None,,,1166.24374277296,None,,,,,1,2022_Mar_31_1435,Real-fake-judgement-flashing-group1,2021.1.2
210,Trial # 58,Group1-stimuli/group1-block2/fake-group2-b2/encoded_Group2_IMG_0441.jpg,0,encoded_Group2_IMG_0441.jpg,,,,,,,,,0.0,57.0,57.0,57.0,,,,,,,,,,,,,,,1168.2615667079808,None,,,0,1.0883831899845973,1170.7455037219916,None,1170.7455037219916,None,,,1169.6618449660018,None,,,,,1,2022_Mar_31_1435,Real-fake-judgement-flashing-group1,2021.1.2
211,Trial # 59,Group1-stimuli/group1-block2/real-group1-b2/Group1_IMG_9774.jpg,1,Group1_IMG_9774.jpg,,,,,,,,,0.0,58.0,58.0,58.0,,,,,,,,,,,,,,,1171.8630234919256,None,,,0,0.7838336249114946,1174.32999737293,None,1174.32999737293,None,,,1173.163906331989,None,,,,,1,2022_Mar_31_1435,Real-fake-judgement-flashing-group1,2021.1.2
212,Trial # 60,Group1-stimuli/group1-block2/fake-group2-b2/encoded_Group2_IMG_2751.jpg,0,encoded_Group2_IMG_2751.jpg,,,,,,,,,0.0,59.0,59.0,59.0,,,,,,,,,,,,,,,1175.1469810419949,None,,,1,0.8670991649851203,1177.614800233976,None,1177.614800233976,None,,,1176.4469945660094,None,,,,,1,2022_Mar_31_1435,Real-fake-judgement-flashing-group1,2021.1.2
213,Trial # 61,Group1-stimuli/group1-block2/fake-group2-b2/encoded_Group2_IMG_0409.jpg,0,encoded_Group2_IMG_0409.jpg,,,,,,,,,0.0,60.0,60.0,60.0,,,,,,,,,,,,,,,1178.4991359360283,None,,,0,1.0673782280646265,1180.9824310749536,None,1180.9824310749536,None,,,1179.8147134419996,None,,,,,1,2022_Mar_31_1435,Real-fake-judgement-flashing-group1,2021.1.2
214,Trial # 62,Group1-stimuli/group1-block2/real-group1-b2/Group1_IMG_1346.jpg,1,Group1_IMG_1346.jpg,,,,,,,,,0.0,61.0,61.0,61.0,,,,,,,,,,,,,,,1182.0837770439684,None,,,1,1.0994039010256529,1184.566492805956,None,1184.566492805956,None,,,1183.383908296004,None,,,,,1,2022_Mar_31_1435,Real-fake-judgement-flashing-group1,2021.1.2
215,Trial # 63,Group1-stimuli/group1-block2/real-group1-b2/Group1_IMG_0481.jpg,1,Group1_IMG_0481.jpg,,,,,,,,,0.0,62.0,62.0,62.0,,,,,,,,,,,,,,,1185.6835510280216,None,,,1,0.8415793860331178,1188.1523051470283,None,1188.1523051470283,None,,,1186.984858109965,None,,,,,1,2022_Mar_31_1435,Real-fake-judgement-flashing-group1,2021.1.2
216,Trial # 64,Group1-stimuli/group1-block2/fake-group2-b2/encoded_Group2_IMG_4718.jpg,0,encoded_Group2_IMG_4718.jpg,,,,,,,,,0.0,63.0,63.0,63.0,,,,,,,,,,,,,,,1189.017874502926,None,,,0,1.2847266040043903,1191.485148341977,None,1191.485148341977,None,,,1190.318488555029,None,,,,,1,2022_Mar_31_1435,Real-fake-judgement-flashing-group1,2021.1.2
217,Trial # 65,Group1-stimuli/group1-block2/real-group1-b2/Group1_IMG_0540.jpg,1,Group1_IMG_0540.jpg,,,,,,,,,0.0,64.0,64.0,64.0,,,,,,,,,,,,,,,1192.786645754939,None,,,1,0.7960855410201475,1195.2698015510105,None,1195.2698015510105,None,,,1194.1030784370378,None,,,,,1,2022_Mar_31_1435,Real-fake-judgement-flashing-group1,2021.1.2
218,Trial # 66,Group1-stimuli/group1-block2/fake-group2-b2/encoded_Group2_IMG_0166.jpg,0,encoded_Group2_IMG_0166.jpg,,,,,,,,,0.0,65.0,65.0,65.0,,,,,,,,,,,,,,,1196.086727112997,None,,,0,1.8143463580636308,1198.555470812018,None,1198.555470812018,None,,,1197.3879170989385,None,,,,,1,2022_Mar_31_1435,Real-fake-judgement-flashing-group1,2021.1.2
219,Trial # 67,Group1-stimuli/group1-block2/fake-group2-b2/encoded_Group2_IMG_0412.jpg,0,encoded_Group2_IMG_0412.jpg,,,,,,,,,0.0,66.0,66.0,66.0,,,,,,,,,,,,,,,1200.3880486519774,None,,,0,0.8659815540304407,1202.855917498935,None,1202.855917498935,None,,,1201.6878898399882,None,,,,,1,2022_Mar_31_1435,Real-fake-judgement-flashing-group1,2021.1.2
220,Trial # 68,Group1-stimuli/group1-block2/real-group1-b2/Group1_IMG_0485.jpg,1,Group1_IMG_0485.jpg,,,,,,,,,0.0,67.0,67.0,67.0,,,,,,,,,,,,,,,1203.739665869973,None,,,1,1.02725535701029,1206.2065399049316,None,1206.2065399049316,None,,,1205.039739070926,None,,,,,1,2022_Mar_31_1435,Real-fake-judgement-flashing-group1,2021.1.2
221,Trial # 69,Group1-stimuli/group1-block2/fake-group2-b2/encoded_Group2_IMG_1495.jpg,0,encoded_Group2_IMG_1495.jpg,,,,,,,,,0.0,68.0,68.0,68.0,,,,,,,,,,,,,,,1207.2583657460054,None,,,0,1.1962057119235396,1209.7575996899975,None,1209.7575996899975,None,,,1208.5748233799825,None,,,,,1,2022_Mar_31_1435,Real-fake-judgement-flashing-group1,2021.1.2
222,Trial # 70,Group1-stimuli/group1-block2/real-group1-b2/Group1_IMG_0426.jpg,1,Group1_IMG_0426.jpg,,,,,,,,,0.0,69.0,69.0,69.0,,,,,,,,,,,,,,,1210.974783350015,None,,,1,1.407296566059813,1213.442587957019,None,1213.442587957019,None,,,1212.2760069930227,None,,,,,1,2022_Mar_31_1435,Real-fake-judgement-flashing-group1,2021.1.2
223,Trial # 71,Group1-stimuli/group1-block2/real-group1-b2/Group1_IMG_0349.jpg,1,Group1_IMG_0349.jpg,,,,,,,,,0.0,70.0,70.0,70.0,,,,,,,,,,,,,,,1214.875985363964,None,,,1,0.7452659219270572,1217.3446181879845,None,1217.3446181879845,None,,,1216.175811804016,None,,,,,1,2022_Mar_31_1435,Real-fake-judgement-flashing-group1,2021.1.2
224,Trial # 72,Group1-stimuli/group1-block2/real-group1-b2/Group1_IMG_0414.jpg,1,Group1_IMG_0414.jpg,,,,,,,,,0.0,71.0,71.0,71.0,,,,,,,,,,,,,,,1218.1106781780254,None,,,0,4.232429301016964,1220.5774283040082,None,1220.5774283040082,None,,,1219.4111957179848,None,,,,,1,2022_Mar_31_1435,Real-fake-judgement-flashing-group1,2021.1.2
225,Trial # 73,Group1-stimuli/group1-block2/fake-group2-b2/encoded_Group2_IMG_9856.jpg,0,encoded_Group2_IMG_9856.jpg,,,,,,,,,0.0,72.0,72.0,72.0,,,,,,,,,,,,,,,1224.829003307037,None,,,0,13.696882685064338,1227.2810086000245,None,1227.2810086000245,None,,,1226.1125987640116,None,,,,,1,2022_Mar_31_1435,Real-fake-judgement-flashing-group1,2021.1.2
226,Trial # 74,Group1-stimuli/group1-block2/fake-group2-b2/encoded_Group2_IMG_5313.jpg,0,encoded_Group2_IMG_5313.jpg,,,,,,,,,0.0,73.0,73.0,73.0,,,,,,,,,,,,,,,1241.0004962959792,None,,,0,0.437194045051001,1243.4526960049989,None,1243.4526960049989,None,,,1242.2853548940038,None,,,,,1,2022_Mar_31_1435,Real-fake-judgement-flashing-group1,2021.1.2
227,Trial # 75,Group1-stimuli/group1-block2/fake-group2-b2/encoded_Group2_IMG_0421.jpg,0,encoded_Group2_IMG_0421.jpg,,,,,,,,,0.0,74.0,74.0,74.0,,,,,,,,,,,,,,,1243.9182155600283,None,,,0,1.8556138329440728,1246.4022729139542,None,1246.4022729139542,None,,,1245.218424584018,None,,,,,1,2022_Mar_31_1435,Real-fake-judgement-flashing-group1,2021.1.2
228,Trial # 76,Group1-stimuli/group1-block2/fake-group2-b2/encoded_Group2_IMG_0446.jpg,0,encoded_Group2_IMG_0446.jpg,,,,,,,,,0.0,75.0,75.0,75.0,,,,,,,,,,,,,,,1248.287539448007,None,,,0,3.0635567089775577,1250.770339821931,None,1250.770339821931,None,,,1249.603166098008,None,,,,,1,2022_Mar_31_1435,Real-fake-judgement-flashing-group1,2021.1.2
229,Trial # 77,Group1-stimuli/group1-block2/real-group1-b2/Group1_IMG_5999.jpg,1,Group1_IMG_5999.jpg,,,,,,,,,0.0,76.0,76.0,76.0,,,,,,,,,,,,,,,1253.8546237229602,None,,,1,2.6475098849041387,1256.338388995966,None,1256.338388995966,None,,,1255.1714561620029,None,,,,,1,2022_Mar_31_1435,Real-fake-judgement-flashing-group1,2021.1.2
230,Trial # 78,Group1-stimuli/group1-block2/real-group1-b2/Group1_IMG_0107.jpg,1,Group1_IMG_0107.jpg,,,,,,,,,0.0,77.0,77.0,77.0,,,,,,,,,,,,,,,1259.006209530984,None,,,1,1.2243519730400294,1261.4735360629857,None,1261.4735360629857,None,,,1260.306490269024,None,,,,,1,2022_Mar_31_1435,Real-fake-judgement-flashing-group1,2021.1.2
231,Trial # 79,Group1-stimuli/group1-block2/fake-group2-b2/encoded_Group2_IMG_0322.jpg,0,encoded_Group2_IMG_0322.jpg,,,,,,,,,0.0,78.0,78.0,78.0,,,,,,,,,,,,,,,1262.724190523033,None,,,0,0.5064898779382929,1265.1913984529674,None,1265.1913984529674,None,,,1264.024178890977,None,,,,,1,2022_Mar_31_1435,Real-fake-judgement-flashing-group1,2021.1.2
232,Trial # 80,Group1-stimuli/group1-block2/fake-group2-b2/encoded_Group2_IMG_4255.jpg,0,encoded_Group2_IMG_4255.jpg,,,,,,,,,0.0,79.0,79.0,79.0,,,,,,,,,,,,,,,1265.7246326099848,None,,,0,0.0805584959452971,1268.209362061927,None,1268.209362061927,None,,,1267.026096349931,None,,,,,1,2022_Mar_31_1435,Real-fake-judgement-flashing-group1,2021.1.2
233,Trial # 81,Group1-stimuli/group1-block2/fake-group2-b2/encoded_Group2_IMG_0219.jpg,0,encoded_Group2_IMG_0219.jpg,,,,,,,,,0.0,80.0,80.0,80.0,,,,,,,,,,,,,,,1268.3096232280368,None,,,0,0.4570047999732196,1270.792886817013,None,1270.792886817013,None,,,1269.6258718089666,None,,,,,1,2022_Mar_31_1435,Real-fake-judgement-flashing-group1,2021.1.2
234,Trial # 82,Group1-stimuli/group1-block2/real-group1-b2/Group1_IMG_0548.jpg,1,Group1_IMG_0548.jpg,,,,,,,,,0.0,81.0,81.0,81.0,,,,,,,,,,,,,,,1271.27715979598,None,,,1,0.9995132370386272,1273.7783012320288,None,1273.7783012320288,None,,,1272.5937882500002,None,,,,,1,2022_Mar_31_1435,Real-fake-judgement-flashing-group1,2021.1.2
235,Trial # 83,Group1-stimuli/group1-block2/real-group1-b2/Group1_IMG_0229.jpg,1,Group1_IMG_0229.jpg,,,,,,,,,0.0,82.0,82.0,82.0,,,,,,,,,,,,,,,1274.810964575969,None,,,0,1.5950893859844657,1277.2787953219377,None,1277.2787953219377,None,,,1276.1112300809473,None,,,,,1,2022_Mar_31_1435,Real-fake-judgement-flashing-group1,2021.1.2
236,Trial # 84,Group1-stimuli/group1-block2/fake-group2-b2/encoded_Group2_IMG_0365.jpg,0,encoded_Group2_IMG_0365.jpg,,,,,,,,,0.0,83.0,83.0,83.0,,,,,,,,,,,,,,,1278.8969221919542,None,,,1,1.862056031008251,1281.379829086014,None,1281.379829086014,None,,,1280.2125354330055,None,,,,,1,2022_Mar_31_1435,Real-fake-judgement-flashing-group1,2021.1.2
237,Trial # 85,Group1-stimuli/group1-block2/real-group1-b2/Group1_IMG_9822.jpg,1,Group1_IMG_9822.jpg,,,,,,,,,0.0,84.0,84.0,84.0,,,,,,,,,,,,,,,1283.2633561949478,None,,,1,0.4869175739586353,1285.7309706560336,None,1285.7309706560336,None,,,1284.5640602229396,None,,,,,1,2022_Mar_31_1435,Real-fake-judgement-flashing-group1,2021.1.2
238,Trial # 86,Group1-stimuli/group1-block2/fake-group2-b2/encoded_Group2_IMG_0195.jpg,0,encoded_Group2_IMG_0195.jpg,,,,,,,,,0.0,85.0,85.0,85.0,,,,,,,,,,,,,,,1286.2486085169949,None,,,0,0.9340241838945076,1288.6998660709942,None,1288.6998660709942,None,,,1287.5324056169484,None,,,,,1,2022_Mar_31_1435,Real-fake-judgement-flashing-group1,2021.1.2
239,Trial # 87,Group1-stimuli/group1-block2/fake-group2-b2/encoded_Group2_IMG_0494.jpg,0,encoded_Group2_IMG_0494.jpg,,,,,,,,,0.0,86.0,86.0,86.0,,,,,,,,,,,,,,,1289.665417082957,None,,,1,1.1636566129745916,1292.1342365079329,None,1292.1342365079329,None,,,1290.9658000069903,None,,,,,1,2022_Mar_31_1435,Real-fake-judgement-flashing-group1,2021.1.2
240,Trial # 88,Group1-stimuli/group1-block2/real-group1-b2/Group1_IMG_0509.jpg,1,Group1_IMG_0509.jpg,,,,,,,,,0.0,87.0,87.0,87.0,,,,,,,,,,,,,,,1293.3178408850215,None,,,1,0.5452283970080316,1295.800671702949,None,1295.800671702949,None,,,1294.6335727130063,None,,,,,1,2022_Mar_31_1435,Real-fake-judgement-flashing-group1,2021.1.2
241,Trial # 89,Group1-stimuli/group1-block2/fake-group2-b2/encoded_Group2_IMG_8924.jpg,0,encoded_Group2_IMG_8924.jpg,,,,,,,,,0.0,88.0,88.0,88.0,,,,,,,,,,,,,,,1296.367356074974,None,,,0,0.7015959509881213,1298.8363082699943,None,1298.8363082699943,None,,,1297.669086643029,None,,,,,1,2022_Mar_31_1435,Real-fake-judgement-flashing-group1,2021.1.2
242,Trial # 90,Group1-stimuli/group1-block2/real-group1-b2/Group1_IMG_0360.jpg,1,Group1_IMG_0360.jpg,,,,,,,,,0.0,89.0,89.0,89.0,,,,,,,,,,,,,,,1299.568791017984,None,,,1,1.1797614670358598,1302.054123547976,None,1302.054123547976,None,,,1300.8858090389986,None,,,,,1,2022_Mar_31_1435,Real-fake-judgement-flashing-group1,2021.1.2
243,Trial # 91,Group1-stimuli/group1-block2/fake-group2-b2/encoded_Group2_IMG_0523.jpg,0,encoded_Group2_IMG_0523.jpg,,,,,,,,,0.0,90.0,90.0,90.0,,,,,,,,,,,,,,,1303.253909748979,None,,,1,0.6494239190360531,1305.7204771760153,None,1305.7204771760153,None,,,1304.5532046309672,None,,,,,1,2022_Mar_31_1435,Real-fake-judgement-flashing-group1,2021.1.2
244,Trial # 92,Group1-stimuli/group1-block2/real-group1-b2/Group1_IMG_0518.jpg,1,Group1_IMG_0518.jpg,,,,,,,,,0.0,91.0,91.0,91.0,,,,,,,,,,,,,,,1306.3880080729723,None,,,1,0.9869961779331788,1308.8548291280167,None,1308.8548291280167,None,,,1307.6888786780182,None,,,,,1,2022_Mar_31_1435,Real-fake-judgement-flashing-group1,2021.1.2
245,Trial # 93,Group1-stimuli/group1-block2/fake-group2-b2/encoded_Group2_IMG_0372.jpg,0,encoded_Group2_IMG_0372.jpg,,,,,,,,,0.0,92.0,92.0,92.0,,,,,,,,,,,,,,,1309.8716299559455,None,,,1,0.7252276330254972,1312.3405869930284,None,1312.3405869930284,None,,,1311.172151225037,None,,,,,1,2022_Mar_31_1435,Real-fake-judgement-flashing-group1,2021.1.2
246,Trial # 94,Group1-stimuli/group1-block2/fake-group2-b2/encoded_Group2_IMG_9761.jpg,0,encoded_Group2_IMG_9761.jpg,,,,,,,,,0.0,93.0,93.0,93.0,,,,,,,,,,,,,,,1313.090464556939,None,,,0,1.2771304100751877,1315.556747760973,None,1315.556747760973,None,,,1314.3897169419795,None,,,,,1,2022_Mar_31_1435,Real-fake-judgement-flashing-group1,2021.1.2
247,Trial # 95,Group1-stimuli/group1-block2/real-group1-b2/Group1_IMG_2690.jpg,1,Group1_IMG_2690.jpg,,,,,,,,,0.0,94.0,94.0,94.0,,,,,,,,,,,,,,,1316.856901007006,None,,,1,1.5090214619413018,1319.3248653989283,None,1319.3248653989283,None,,,1318.158763141022,None,,,,,1,2022_Mar_31_1435,Real-fake-judgement-flashing-group1,2021.1.2
248,Trial # 96,Group1-stimuli/group1-block2/real-group1-b2/Group1_IMG_9855.jpg,1,Group1_IMG_9855.jpg,,,,,,,,,0.0,95.0,95.0,95.0,,,,,,,,,,,,,,,1320.8584489829373,None,,,1,0.6906754969386384,1323.3272148149554,None,1323.3272148149554,None,,,1322.1924284630222,None,,,,,1,2022_Mar_31_1435,Real-fake-judgement-flashing-group1,2021.1.2
249,Trial # 97,Group1-stimuli/group1-block2/fake-group2-b2/encoded_Group2_IMG_0470.jpg,0,encoded_Group2_IMG_0470.jpg,,,,,,,,,0.0,96.0,96.0,96.0,,,,,,,,,,,,,,,1324.0428442939883,None,,,0,0.8434766830177978,1326.510432112031,None,1326.510432112031,None,,,1325.3431592120323,None,,,,,1,2022_Mar_31_1435,Real-fake-judgement-flashing-group1,2021.1.2
250,Trial # 98,Group1-stimuli/group1-block2/fake-group2-b2/encoded_Group2_IMG_1191.jpg,0,encoded_Group2_IMG_1191.jpg,,,,,,,,,0.0,97.0,97.0,97.0,,,,,,,,,,,,,,,1327.378559852019,None,,,1,0.6926116370595992,1329.8612117109587,None,1329.8612117109587,None,,,1328.6781199160032,None,,,,,1,2022_Mar_31_1435,Real-fake-judgement-flashing-group1,2021.1.2
251,Trial # 99,Group1-stimuli/group1-block2/real-group1-b2/Group1_IMG_9937.jpg,1,Group1_IMG_9937.jpg,,,,,,,,,0.0,98.0,98.0,98.0,,,,,,,,,,,,,,,1330.5782620899845,None,,,1,0.4191926680505276,1333.046687379945,None,1333.046687379945,None,,,1331.87798982393,None,,,,,1,2022_Mar_31_1435,Real-fake-judgement-flashing-group1,2021.1.2
252,Trial # 100,Group1-stimuli/group1-block2/fake-group2-b2/encoded_Group2_IMG_0106.jpg,0,encoded_Group2_IMG_0106.jpg,,,,,,,,,0.0,99.0,99.0,99.0,,,,,,,,,,,,,,,1333.4971471949248,None,,,0,1.022028524894267,1335.9798590189312,None,1335.9798590189312,None,,,1334.8464900649851,None,,,,,1,2022_Mar_31_1435,Real-fake-judgement-flashing-group1,2021.1.2
253,Trial # 101,Group1-stimuli/group1-block2/real-group1-b2/Group1_IMG_2790.jpg,1,Group1_IMG_2790.jpg,,,,,,,,,0.0,100.0,100.0,100.0,,,,,,,,,,,,,,,1337.030875738943,None,,,0,7.031688165967353,1339.5142508340068,None,1339.5142508340068,None,,,1338.331570346956,None,,,,,1,2022_Mar_31_1435,Real-fake-judgement-flashing-group1,2021.1.2
254,Trial # 102,Group1-stimuli/group1-block2/real-group1-b2/Group1_IMG_9792.jpg,1,Group1_IMG_9792.jpg,,,,,,,,,0.0,101.0,101.0,101.0,,,,,,,,,,,,,,,1346.566322708968,None,,,0,0.3360763590317219,1349.033825527993,None,1349.033825527993,None,,,1347.867005513981,None,,,,,1,2022_Mar_31_1435,Real-fake-judgement-flashing-group1,2021.1.2
255,Trial # 103,Group1-stimuli/group1-block2/real-group1-b2/Group1_IMG_1640.jpg,1,Group1_IMG_1640.jpg,,,,,,,,,0.0,102.0,102.0,102.0,,,,,,,,,,,,,,,1349.400769655011,None,,,1,0.5976164710009471,1351.8842960080365,None,1351.8842960080365,None,,,1350.7011106660357,None,,,,,1,2022_Mar_31_1435,Real-fake-judgement-flashing-group1,2021.1.2
256,Trial # 104,Group1-stimuli/group1-block2/real-group1-b2/Group1_IMG_0033.jpg,1,Group1_IMG_0033.jpg,,,,,,,,,0.0,103.0,103.0,103.0,,,,,,,,,,,,,,,1352.502117527998,None,,,1,0.4800891800550744,1354.9857967540156,None,1354.9857967540156,None,,,1353.8185337859904,None,,,,,1,2022_Mar_31_1435,Real-fake-judgement-flashing-group1,2021.1.2
257,Trial # 105,Group1-stimuli/group1-block2/real-group1-b2/Group1_IMG_0079.jpg,1,Group1_IMG_0079.jpg,,,,,,,,,0.0,104.0,104.0,104.0,,,,,,,,,,,,,,,1355.485801612027,None,,,1,0.6634589270688593,1357.9704420969356,None,1357.9704420969356,None,,,1356.7861307699932,None,,,,,1,2022_Mar_31_1435,Real-fake-judgement-flashing-group1,2021.1.2
258,Trial # 106,Group1-stimuli/group1-block2/fake-group2-b2/encoded_Group2_IMG_9909.jpg,0,encoded_Group2_IMG_9909.jpg,,,,,,,,,0.0,105.0,105.0,105.0,,,,,,,,,,,,,,,1358.6538752709748,None,,,0,0.3376992170233279,1361.104189459933,None,1361.104189459933,None,,,1359.937197505962,None,,,,,1,2022_Mar_31_1435,Real-fake-judgement-flashing-group1,2021.1.2
259,Trial # 107,Group1-stimuli/group1-block2/fake-group2-b2/encoded_Group2_IMG_0398.jpg,0,encoded_Group2_IMG_0398.jpg,,,,,,,,,0.0,106.0,106.0,106.0,,,,,,,,,,,,,,,1361.4706706519935,None,,,0,0.4620890400838107,1363.9397900130134,None,1363.9397900130134,None,,,1362.7724598619388,None,,,,,1,2022_Mar_31_1435,Real-fake-judgement-flashing-group1,2021.1.2
260,Trial # 108,Group1-stimuli/group1-block2/real-group1-b2/Group1_IMG_4268.jpg,1,Group1_IMG_4268.jpg,,,,,,,,,0.0,107.0,107.0,107.0,,,,,,,,,,,,,,,1364.422142024967,None,,,1,0.3609464629553258,1366.8889900689246,None,1366.8889900689246,None,,,1365.722216960974,None,,,,,1,2022_Mar_31_1435,Real-fake-judgement-flashing-group1,2021.1.2
261,Trial # 109,Group1-stimuli/group1-block2/fake-group2-b2/encoded_Group2_IMG_9321.jpg,0,encoded_Group2_IMG_9321.jpg,,,,,,,,,0.0,108.0,108.0,108.0,,,,,,,,,,,,,,,1367.273946622037,None,,,0,0.8856500069377944,1369.7402382879518,None,1369.7402382879518,None,,,1368.5742499480257,None,,,,,1,2022_Mar_31_1435,Real-fake-judgement-flashing-group1,2021.1.2
262,Trial # 110,Group1-stimuli/group1-block2/fake-group2-b2/encoded_Group2_IMG_9964.jpg,0,encoded_Group2_IMG_9964.jpg,,,,,,,,,0.0,109.0,109.0,109.0,,,,,,,,,,,,,,,1370.6571609160164,None,,,0,0.8438275079242885,1373.1260591140017,None,1373.1260591140017,None,,,1371.9587761400037,None,,,,,1,2022_Mar_31_1435,Real-fake-judgement-flashing-group1,2021.1.2
263,Trial # 111,Group1-stimuli/group1-block2/real-group1-b2/Group1_IMG_0329.jpg,1,Group1_IMG_0329.jpg,,,,,,,,,0.0,110.0,110.0,110.0,,,,,,,,,,,,,,,1373.9917701450177,None,,,1,0.7027900409884751,1376.4591223179596,None,1376.4591223179596,None,,,1375.2924691250082,None,,,,,1,2022_Mar_31_1435,Real-fake-judgement-flashing-group1,2021.1.2
264,Trial # 112,Group1-stimuli/group1-block2/fake-group2-b2/encoded_Group2_IMG_0534.jpg,0,encoded_Group2_IMG_0534.jpg,,,,,,,,,0.0,111.0,111.0,111.0,,,,,,,,,,,,,,,1377.1941130449995,None,,,1,0.622152172960341,1379.6597337049898,None,1379.6597337049898,None,,,1378.4932869989425,None,,,,,1,2022_Mar_31_1435,Real-fake-judgement-flashing-group1,2021.1.2
265,Trial # 113,Group1-stimuli/group1-block2/fake-group2-b2/encoded_Group2_IMG_0054.jpg,0,encoded_Group2_IMG_0054.jpg,,,,,,,,,0.0,112.0,112.0,112.0,,,,,,,,,,,,,,,1380.310193139012,None,,,0,0.4790247220080346,1382.778902787948,None,1382.778902787948,None,,,1381.643738296931,None,,,,,1,2022_Mar_31_1435,Real-fake-judgement-flashing-group1,2021.1.2
266,Trial # 114,Group1-stimuli/group1-block2/real-group1-b2/Group1_IMG_9979.jpg,1,Group1_IMG_9979.jpg,,,,,,,,,0.0,113.0,113.0,113.0,,,,,,,,,,,,,,,1383.278996662004,None,,,1,0.4961844159988686,1385.761713815038,None,1385.761713815038,None,,,1384.5946941369912,None,,,,,1,2022_Mar_31_1435,Real-fake-judgement-flashing-group1,2021.1.2
267,Trial # 115,Group1-stimuli/group1-block2/real-group1-b2/Group1_IMG_0170.jpg,1,Group1_IMG_0170.jpg,,,,,,,,,0.0,114.0,114.0,114.0,,,,,,,,,,,,,,,1386.279318138957,None,,,1,0.7509008239721879,1388.7629226979334,None,1388.7629226979334,None,,,1387.5796640419867,None,,,,,1,2022_Mar_31_1435,Real-fake-judgement-flashing-group1,2021.1.2
268,Trial # 116,Group1-stimuli/group1-block2/fake-group2-b2/encoded_Group2_IMG_0007.jpg,0,encoded_Group2_IMG_0007.jpg,,,,,,,,,0.0,115.0,115.0,115.0,,,,,,,,,,,,,,,1389.5464880999643,None,,,0,0.4034149179933592,1392.0144938849844,None,1392.0144938849844,None,,,1390.8465470790395,None,,,,,1,2022_Mar_31_1435,Real-fake-judgement-flashing-group1,2021.1.2
269,Trial # 117,Group1-stimuli/group1-block2/real-group1-b2/Group1_IMG_0192.jpg,1,Group1_IMG_0192.jpg,,,,,,,,,0.0,116.0,116.0,116.0,,,,,,,,,,,,,,,1392.4484437429346,None,,,1,0.5113166089868173,1394.9145735519703,None,1394.9145735519703,None,,,1393.7475474799285,None,,,,,1,2022_Mar_31_1435,Real-fake-judgement-flashing-group1,2021.1.2
270,Trial # 118,Group1-stimuli/group1-block2/real-group1-b2/Group1_IMG_9786.jpg,1,Group1_IMG_9786.jpg,,,,,,,,,0.0,117.0,117.0,117.0,,,,,,,,,,,,,,,1395.4488327759318,None,,,1,0.5568543950794265,1397.9170327869942,None,1397.9170327869942,None,,,1396.7653882609447,None,,,,,1,2022_Mar_31_1435,Real-fake-judgement-flashing-group1,2021.1.2
271,Trial # 119,Group1-stimuli/group1-block2/real-group1-b2/Group1_IMG_0187.jpg,1,Group1_IMG_0187.jpg,,,,,,,,,0.0,118.0,118.0,118.0,,,,,,,,,,,,,,,1398.4997435240075,None,,,1,1.0995516640832648,1400.966311189928,None,1400.966311189928,None,,,1399.7993784119608,None,,,,,1,2022_Mar_31_1435,Real-fake-judgement-flashing-group1,2021.1.2
272,Trial # 120,Group1-stimuli/group1-block2/fake-group2-b2/encoded_Group2_IMG_0249.jpg,0,encoded_Group2_IMG_0249.jpg,,,,,,,,,0.0,119.0,119.0,119.0,,,,,,,,,,,,,,,1402.0839668789413,None,,,1,1.1634731779340657,1404.5344025499653,None,1404.5344025499653,None,,,1403.368403431028,None,,,,,1,2022_Mar_31_1435,Real-fake-judgement-flashing-group1,2021.1.2
273,Trial # 121,Group1-stimuli/group1-block2/fake-group2-b2/encoded_Group2_IMG_0074.jpg,0,encoded_Group2_IMG_0074.jpg,,,,,,,,,0.0,120.0,120.0,120.0,,,,,,,,,,,,,,,1405.7184286470292,None,,,1,0.3670436480315402,1408.1868197410367,None,1408.1868197410367,None,,,1407.119456593995,None,,,,,1,2022_Mar_31_1435,Real-fake-judgement-flashing-group1,2021.1.2
274,Trial # 122,Group1-stimuli/group1-block2/real-group1-b2/Group1_IMG_0243.jpg,1,Group1_IMG_0243.jpg,,,,,,,,,0.0,121.0,121.0,121.0,,,,,,,,,,,,,,,1408.585993757937,None,,,1,0.3247114659752697,1411.05318455596,None,1411.05318455596,None,,,1409.8860012789955,None,,,,,1,2022_Mar_31_1435,Real-fake-judgement-flashing-group1,2021.1.2
275,Trial # 123,Group1-stimuli/group1-block2/real-group1-b2/Group1_IMG_0130.jpg,1,Group1_IMG_0130.jpg,,,,,,,,,0.0,122.0,122.0,122.0,,,,,,,,,,,,,,,1411.4036069579888,None,,,1,0.4427366729360074,1413.8871479500085,None,1413.8871479500085,None,,,1412.7045553890057,None,,,,,1,2022_Mar_31_1435,Real-fake-judgement-flashing-group1,2021.1.2
276,Trial # 124,Group1-stimuli/group1-block2/real-group1-b2/Group1_IMG_0298.jpg,1,Group1_IMG_0298.jpg,,,,,,,,,0.0,123.0,123.0,123.0,,,,,,,,,,,,,,,1414.3544606480282,None,,,1,0.4364661290310323,1416.8214142540237,None,1416.8214142540237,None,,,1415.654308771016,None,,,,,1,2022_Mar_31_1435,Real-fake-judgement-flashing-group1,2021.1.2
277,Trial # 125,Group1-stimuli/group1-block2/real-group1-b2/Group1_IMG_5871.jpg,1,Group1_IMG_5871.jpg,,,,,,,,,0.0,124.0,124.0,124.0,,,,,,,,,,,,,,,1417.2896784659242,None,,,1,0.5580532860476524,1419.7558353369825,None,1419.7558353369825,None,,,1418.589763612952,None,,,,,1,2022_Mar_31_1435,Real-fake-judgement-flashing-group1,2021.1.2
278,Trial # 126,Group1-stimuli/group1-block2/fake-group2-b2/encoded_Group2_IMG_0479.jpg,0,encoded_Group2_IMG_0479.jpg,,,,,,,,,0.0,125.0,125.0,125.0,,,,,,,,,,,,,,,1420.3396712789545,None,,,0,0.3858307760674506,1422.808046485996,None,1422.808046485996,None,,,1421.6396804460092,None,,,,,1,2022_Mar_31_1435,Real-fake-judgement-flashing-group1,2021.1.2
279,Trial # 127,Group1-stimuli/group1-block2/fake-group2-b2/encoded_Group2_IMG_4971.jpg,0,encoded_Group2_IMG_4971.jpg,,,,,,,,,0.0,126.0,126.0,126.0,,,,,,,,,,,,,,,1423.2247535779609,None,,,0,0.534781169029884,1425.691023521009,None,1425.691023521009,None,,,1424.5237590549514,None,,,,,1,2022_Mar_31_1435,Real-fake-judgement-flashing-group1,2021.1.2
280,Trial # 128,Group1-stimuli/group1-block2/real-group1-b2/Group1_IMG_0173.jpg,1,Group1_IMG_0173.jpg,,,,,,,,,0.0,127.0,127.0,127.0,,,,,,,,,,,,,,,1426.257946028025,None,,,1,0.563392509939149,1428.726429843926,None,1428.726429843926,None,,,1427.55957221298,None,,,,,1,2022_Mar_31_1435,Real-fake-judgement-flashing-group1,2021.1.2
281,Trial # 129,Group1-stimuli/group1-block2/real-group1-b2/Group1_IMG_0213.jpg,1,Group1_IMG_0213.jpg,,,,,,,,,0.0,128.0,128.0,128.0,,,,,,,,,,,,,,,1429.3088675149484,None,,,0,0.4577330099418759,1431.7761564180255,None,1431.7761564180255,None,,,1430.608921848936,None,,,,,1,2022_Mar_31_1435,Real-fake-judgement-flashing-group1,2021.1.2
282,Trial # 130,Group1-stimuli/group1-block2/fake-group2-b2/encoded_Group2_IMG_0260.jpg,0,encoded_Group2_IMG_0260.jpg,,,,,,,,,0.0,129.0,129.0,129.0,,,,,,,,,,,,,,,1432.2608713760274,None,,,0,0.4350908750202507,1434.7267599810148,None,1434.7267599810148,None,,,1433.5610474350397,None,,,,,1,2022_Mar_31_1435,Real-fake-judgement-flashing-group1,2021.1.2
283,Trial # 131,Group1-stimuli/group1-block2/fake-group2-b2/encoded_Group2_IMG_7291.jpg,0,encoded_Group2_IMG_7291.jpg,,,,,,,,,0.0,130.0,130.0,130.0,,,,,,,,,,,,,,,1435.1945917250123,None,,,0,0.3563821240095421,1437.661519138026,None,1437.661519138026,None,,,1436.494086578954,None,,,,,1,2022_Mar_31_1435,Real-fake-judgement-flashing-group1,2021.1.2
284,Trial # 132,Group1-stimuli/group1-block2/fake-group2-b2/encoded_Group2_IMG_0176.jpg,0,encoded_Group2_IMG_0176.jpg,,,,,,,,,0.0,131.0,131.0,131.0,,,,,,,,,,,,,,,1438.0460656000068,None,,,0,0.4497871219646185,1440.5120991299627,None,1440.5120991299627,None,,,1439.3454340719618,None,,,,,1,2022_Mar_31_1435,Real-fake-judgement-flashing-group1,2021.1.2
285,Trial # 133,Group1-stimuli/group1-block2/real-group1-b2/Group1_IMG_9699.jpg,1,Group1_IMG_9699.jpg,,,,,,,,,0.0,132.0,132.0,132.0,,,,,,,,,,,,,,,1440.978940248955,None,,,1,0.6030618229415268,1443.4468269409845,None,1443.4468269409845,None,,,1442.2805866899434,None,,,,,1,2022_Mar_31_1435,Real-fake-judgement-flashing-group1,2021.1.2
286,Trial # 134,Group1-stimuli/group1-block2/real-group1-b2/Group1_IMG_0381.jpg,1,Group1_IMG_0381.jpg,,,,,,,,,0.0,133.0,133.0,133.0,,,,,,,,,,,,,,,1444.080001691007,None,,,1,0.6865046289749444,1446.5474025110016,None,1446.5474025110016,None,,,1445.3802037850255,None,,,,,1,2022_Mar_31_1435,Real-fake-judgement-flashing-group1,2021.1.2
287,Trial # 135,Group1-stimuli/group1-block2/real-group1-b2/Group1_IMG_0309.jpg,1,Group1_IMG_0309.jpg,,,,,,,,,0.0,134.0,134.0,134.0,,,,,,,,,,,,,,,1447.2658163459273,None,,,0,0.7421807770151645,1449.7317082040245,None,1449.7317082040245,None,,,1448.5656624810072,None,,,,,1,2022_Mar_31_1435,Real-fake-judgement-flashing-group1,2021.1.2
288,Trial # 136,Group1-stimuli/group1-block2/fake-group2-b2/encoded_Group2_IMG_0041.jpg,0,encoded_Group2_IMG_0041.jpg,,,,,,,,,0.0,135.0,135.0,135.0,,,,,,,,,,,,,,,1450.499804602936,None,,,0,0.6033068969845772,1452.9665798729984,None,1452.9665798729984,None,,,1451.799088145024,None,,,,,1,2022_Mar_31_1435,Real-fake-judgement-flashing-group1,2021.1.2
289,Trial # 137,Group1-stimuli/group1-block2/real-group1-b2/Group1_IMG_0303.jpg,1,Group1_IMG_0303.jpg,,,,,,,,,0.0,136.0,136.0,136.0,,,,,,,,,,,,,,,1453.5995419740211,None,,,1,0.6706161930924281,1456.083271579002,None,1456.083271579002,None,,,1454.9330554539338,None,,,,,1,2022_Mar_31_1435,Real-fake-judgement-flashing-group1,2021.1.2
290,Trial # 138,Group1-stimuli/group1-block2/fake-group2-b2/encoded_Group2_IMG_0419.jpg,0,encoded_Group2_IMG_0419.jpg,,,,,,,,,0.0,137.0,137.0,137.0,,,,,,,,,,,,,,,1456.7832967629656,None,,,0,0.3328894060105085,1459.2689869279277,None,1459.2689869279277,None,,,1458.0854583740002,None,,,,,1,2022_Mar_31_1435,Real-fake-judgement-flashing-group1,2021.1.2
291,Trial # 139,Group1-stimuli/group1-block2/real-group1-b2/Group1_IMG_0384.jpg,1,Group1_IMG_0384.jpg,,,,,,,,,0.0,138.0,138.0,138.0,,,,,,,,,,,,,,,1459.617916009971,None,,,1,0.7469862869475037,1462.0867816719692,None,1462.0867816719692,None,,,1460.9184334919555,None,,,,,1,2022_Mar_31_1435,Real-fake-judgement-flashing-group1,2021.1.2
292,Trial # 140,Group1-stimuli/group1-block2/real-group1-b2/Group1_IMG_0147.jpg,1,Group1_IMG_0147.jpg,,,,,,,,,0.0,139.0,139.0,139.0,,,,,,,,,,,,,,,1462.8537727530347,None,,,1,0.7218677180353552,1465.3199863890186,None,1465.3199863890186,None,,,1464.1527594280196,None,,,,,1,2022_Mar_31_1435,Real-fake-judgement-flashing-group1,2021.1.2
293,Trial # 141,Group1-stimuli/group1-block2/real-group1-b2/Group1_IMG_9725.jpg,1,Group1_IMG_9725.jpg,,,,,,,,,0.0,140.0,140.0,140.0,,,,,,,,,,,,,,,1466.070201702998,None,,,1,0.5838552420027554,1468.537961374037,None,1468.537961374037,None,,,1467.3714960570214,None,,,,,1,2022_Mar_31_1435,Real-fake-judgement-flashing-group1,2021.1.2
