,Trial_num,image_path,ground_truth,image_name,demos.thisRepN,demos.thisTrialN,demos.thisN,demos.thisIndex,block1.thisRepN,block1.thisTrialN,block1.thisN,block1.thisIndex,block2.thisRepN,block2.thisTrialN,block2.thisN,block2.thisIndex,block1_rep2.thisRepN,block1_rep2.thisTrialN,block1_rep2.thisN,block1_rep2.thisIndex,block2_rep.thisRepN,block2_rep.thisTrialN,block2_rep.thisN,block2_rep.thisIndex,text_3.started,text_3.stopped,text_4.started,text_4.stopped,text.started,text.stopped,trail_num.started,trail_num.stopped,image_6.started,image_6.stopped,Judgement.keys,Judgement.rt,Judgement.started,Judgement.stopped,text_19.started,text_19.stopped,text_12.started,text_12.stopped,image.started,image.stopped,text_2.started,text_2.stopped,text_13.started,text_13.stopped,session,date,expName,psychopyVersion
0,Demo 1,demo/Demo_IMG_0974.jpg,demo,Demo_IMG_0974.jpg,0.0,0.0,0.0,0.0,,,,,,,,,,,,,,,,,23.792680256068707,None,51.43427968886681,None,67.10581532306969,None,70.01415937393904,None,71.37438576994464,None,1,2.6827935830224305,72.45802292507142,None,72.45802292507142,None,,,,,,,,,1,2022_Apr_07_1540,Real-fake-judgement-flashing-group1,2021.1.2
1,Demo 2,demo/Demo_IMG_1024.jpg,demo,Demo_IMG_1024.jpg,0.0,1.0,1.0,1.0,,,,,,,,,,,,,,,,,,,,,,,75.15922253392637,None,76.52556485799141,None,0,2.809260533889756,77.64355497388169,None,77.64355497388169,None,,,,,,,,,1,2022_Apr_07_1540,Real-fake-judgement-flashing-group1,2021.1.2
2,Demo 3,demo/Demo_seed_80003.png,demo,Demo_seed_80003.png,0.0,2.0,2.0,2.0,,,,,,,,,,,,,,,,,,,,,,,80.47692198096775,None,81.82723127887584,None,1,2.1405044111888856,82.94431205792353,None,82.94431205792353,None,,,,,,,,,1,2022_Apr_07_1540,Real-fake-judgement-flashing-group1,2021.1.2
3,Trial # 1,Group1-stimuli/group1-block1/real-group1-b1/Group1_IMG_0022.jpg,1,Group1_IMG_0022.jpg,,,,,0.0,0.0,0.0,0.0,,,,,,,,,,,,,,,,,,,98.49964186688884,None,,,0,4.006589276948944,100.95021940488368,None,100.95021940488368,None,85.59486234607175,None,99.80064687295815,None,,,,,1,2022_Apr_07_1540,Real-fake-judgement-flashing-group1,2021.1.2
4,Trial # 2,Group1-stimuli/group1-block1/fake-group2-b1/encoded_Group2_IMG_0386.jpg,0,encoded_Group2_IMG_0386.jpg,,,,,0.0,1.0,1.0,1.0,,,,,,,,,,,,,,,,,,,104.9858426109422,None,,,0,13.816180433146656,107.46863512392156,None,107.46863512392156,None,,,106.3181484749075,None,,,,,1,2022_Apr_07_1540,Real-fake-judgement-flashing-group1,2021.1.2
5,Trial # 3,Group1-stimuli/group1-block1/real-group1-b1/Group1_IMG_9704.jpg,1,Group1_IMG_9704.jpg,,,,,0.0,2.0,2.0,2.0,,,,,,,,,,,,,,,,,,,121.30618221499026,None,,,0,1.5659953490830958,123.77482259995304,None,123.77482259995304,None,,,122.65645832195878,None,,,,,1,2022_Apr_07_1540,Real-fake-judgement-flashing-group1,2021.1.2
6,Trial # 4,Group1-stimuli/group1-block1/real-group1-b1/Group1_IMG_0406.jpg,1,Group1_IMG_0406.jpg,,,,,0.0,3.0,3.0,3.0,,,,,,,,,,,,,,,,,,,125.35858216206545,None,,,0,1.95542792393826,127.84137580008246,None,127.84137580008246,None,,,126.67454269295558,None,,,,,1,2022_Apr_07_1540,Real-fake-judgement-flashing-group1,2021.1.2
7,Trial # 5,Group1-stimuli/group1-block1/fake-group2-b1/encoded_Group2_IMG_0364.jpg,0,encoded_Group2_IMG_0364.jpg,,,,,0.0,4.0,4.0,4.0,,,,,,,,,,,,,,,,,,,129.82670314097777,None,,,0,0.4723743479698896,132.27646649605597,None,132.27646649605597,None,,,131.10922588594258,None,,,,,1,2022_Apr_07_1540,Real-fake-judgement-flashing-group1,2021.1.2
8,Trial # 6,Group1-stimuli/group1-block1/fake-group2-b1/encoded_Group2_IMG_0407.jpg,0,encoded_Group2_IMG_0407.jpg,,,,,0.0,5.0,5.0,5.0,,,,,,,,,,,,,,,,,,,132.77627418888733,None,,,1,0.5841208919882774,135.2446856459137,None,135.2446856459137,None,,,134.09459777199663,None,,,,,1,2022_Apr_07_1540,Real-fake-judgement-flashing-group1,2021.1.2
9,Trial # 7,Group1-stimuli/group1-block1/real-group1-b1/Group1_IMG_0428.jpg,1,Group1_IMG_0428.jpg,,,,,0.0,6.0,6.0,6.0,,,,,,,,,,,,,,,,,,,135.84457784099504,None,,,1,0.34063247195445,138.32818761188537,None,138.32818761188537,None,,,137.16106899199076,None,,,,,1,2022_Apr_07_1540,Real-fake-judgement-flashing-group1,2021.1.2
10,Trial # 8,Group1-stimuli/group1-block1/fake-group2-b1/encoded_Group2_IMG_0474.jpg,0,encoded_Group2_IMG_0474.jpg,,,,,0.0,7.0,7.0,7.0,,,,,,,,,,,,,,,,,,,138.69531140709296,None,,,0,0.3376373280771076,141.17917219386436,None,141.17917219386436,None,,,140.01317489007488,None,,,,,1,2022_Apr_07_1540,Real-fake-judgement-flashing-group1,2021.1.2
11,Trial # 9,Group1-stimuli/group1-block1/fake-group2-b1/encoded_Group2_IMG_1506.jpg,0,encoded_Group2_IMG_1506.jpg,,,,,0.0,8.0,8.0,8.0,,,,,,,,,,,,,,,,,,,141.54585105087608,None,,,1,0.4382650619372725,144.01454362808727,None,144.01454362808727,None,,,142.86277475208044,None,,,,,1,2022_Apr_07_1540,Real-fake-judgement-flashing-group1,2021.1.2
12,Trial # 10,Group1-stimuli/group1-block1/real-group1-b1/Group1_IMG_9789.jpg,1,Group1_IMG_9789.jpg,,,,,0.0,9.0,9.0,9.0,,,,,,,,,,,,,,,,,,,144.4811238439288,None,,,0,0.8646269738674164,146.96415196894668,None,146.96415196894668,None,,,145.79711731593125,None,,,,,1,2022_Apr_07_1540,Real-fake-judgement-flashing-group1,2021.1.2
13,Trial # 11,Group1-stimuli/group1-block1/real-group1-b1/Group1_IMG_9778.jpg,1,Group1_IMG_9778.jpg,,,,,0.0,10.0,10.0,10.0,,,,,,,,,,,,,,,,,,,147.847973769065,None,,,1,0.3295134759973734,150.3152931430377,None,150.3152931430377,None,,,149.16610429086722,None,,,,,1,2022_Apr_07_1540,Real-fake-judgement-flashing-group1,2021.1.2
14,Trial # 12,Group1-stimuli/group1-block1/real-group1-b1/Group1_IMG_9813.jpg,1,Group1_IMG_9813.jpg,,,,,0.0,11.0,11.0,11.0,,,,,,,,,,,,,,,,,,,150.66566687286831,None,,,1,0.3192830528132617,153.1495259939693,None,153.1495259939693,None,,,151.966559558874,None,,,,,1,2022_Apr_07_1540,Real-fake-judgement-flashing-group1,2021.1.2
15,Trial # 13,Group1-stimuli/group1-block1/real-group1-b1/Group1_IMG_0516.jpg,1,Group1_IMG_0516.jpg,,,,,0.0,12.0,12.0,12.0,,,,,,,,,,,,,,,,,,,153.4996167998761,None,,,1,0.3578295181505382,155.96697823191062,None,155.96697823191062,None,,,154.8008442199789,None,,,,,1,2022_Apr_07_1540,Real-fake-judgement-flashing-group1,2021.1.2
16,Trial # 14,Group1-stimuli/group1-block1/fake-group2-b1/encoded_Group2_IMG_0038.jpg,0,encoded_Group2_IMG_0038.jpg,,,,,0.0,13.0,13.0,13.0,,,,,,,,,,,,,,,,,,,156.3514419789426,None,,,1,0.3456573148723691,158.81914552208036,None,158.81914552208036,None,,,157.66747846105136,None,,,,,1,2022_Apr_07_1540,Real-fake-judgement-flashing-group1,2021.1.2
17,Trial # 15,Group1-stimuli/group1-block1/real-group1-b1/Group1_IMG_5984.jpg,1,Group1_IMG_5984.jpg,,,,,0.0,14.0,14.0,14.0,,,,,,,,,,,,,,,,,,,159.185939040035,None,,,0,0.35953468689695,161.66927142092027,None,161.66927142092027,None,,,160.50217729690485,None,,,,,1,2022_Apr_07_1540,Real-fake-judgement-flashing-group1,2021.1.2
18,Trial # 16,Group1-stimuli/group1-block1/real-group1-b1/Group1_IMG_0383.jpg,1,Group1_IMG_0383.jpg,,,,,0.0,15.0,15.0,15.0,,,,,,,,,,,,,,,,,,,162.05199947301298,None,,,1,0.332697857869789,164.5201055239886,None,164.5201055239886,None,,,163.368924878072,None,,,,,1,2022_Apr_07_1540,Real-fake-judgement-flashing-group1,2021.1.2
19,Trial # 17,Group1-stimuli/group1-block1/fake-group2-b1/encoded_Group2_IMG_0456.jpg,0,encoded_Group2_IMG_0456.jpg,,,,,0.0,16.0,16.0,16.0,,,,,,,,,,,,,,,,,,,164.87089582090266,None,,,1,0.2989888209849596,167.35381831391717,None,167.35381831391717,None,,,166.23767839791253,None,,,,,1,2022_Apr_07_1540,Real-fake-judgement-flashing-group1,2021.1.2
20,Trial # 18,Group1-stimuli/group1-block1/fake-group2-b1/encoded_Group2_IMG_8390.jpg,0,encoded_Group2_IMG_8390.jpg,,,,,0.0,17.0,17.0,17.0,,,,,,,,,,,,,,,,,,,167.6706487738993,None,,,0,0.7862489281687886,170.12256092904136,None,170.12256092904136,None,,,168.954639632022,None,,,,,1,2022_Apr_07_1540,Real-fake-judgement-flashing-group1,2021.1.2
21,Trial # 19,Group1-stimuli/group1-block1/real-group1-b1/Group1_IMG_0011.jpg,1,Group1_IMG_0011.jpg,,,,,0.0,18.0,18.0,18.0,,,,,,,,,,,,,,,,,,,170.93828983488493,None,,,1,0.2710263729095459,173.40580280101858,None,173.40580280101858,None,,,172.25528877787292,None,,,,,1,2022_Apr_07_1540,Real-fake-judgement-flashing-group1,2021.1.2
22,Trial # 20,Group1-stimuli/group1-block1/fake-group2-b1/encoded_Group2_IMG_0328.jpg,0,encoded_Group2_IMG_0328.jpg,,,,,0.0,19.0,19.0,19.0,,,,,,,,,,,,,,,,,,,173.70731204887852,None,,,0,0.3197380050551146,176.17306709988043,None,176.17306709988043,None,,,175.00735720898956,None,,,,,1,2022_Apr_07_1540,Real-fake-judgement-flashing-group1,2021.1.2
23,Trial # 21,Group1-stimuli/group1-block1/fake-group2-b1/encoded_Group2_IMG_0163.jpg,0,encoded_Group2_IMG_0163.jpg,,,,,0.0,20.0,20.0,20.0,,,,,,,,,,,,,,,,,,,176.52339872904122,None,,,1,0.4217156500089913,178.99109118897468,None,178.99109118897468,None,,,177.82371486187913,None,,,,,1,2022_Apr_07_1540,Real-fake-judgement-flashing-group1,2021.1.2
24,Trial # 22,Group1-stimuli/group1-block1/real-group1-b1/Group1_IMG_9862.jpg,1,Group1_IMG_9862.jpg,,,,,0.0,21.0,21.0,21.0,,,,,,,,,,,,,,,,,,,179.4421939048916,None,,,0,0.4323461588937789,181.90847020596263,None,181.90847020596263,None,,,180.74127516592853,None,,,,,1,2022_Apr_07_1540,Real-fake-judgement-flashing-group1,2021.1.2
25,Trial # 23,Group1-stimuli/group1-block1/fake-group2-b1/encoded_Group2_IMG_0296.jpg,0,encoded_Group2_IMG_0296.jpg,,,,,0.0,22.0,22.0,22.0,,,,,,,,,,,,,,,,,,,182.359170953976,None,,,1,0.3217440969310701,184.8270646049641,None,184.8270646049641,None,,,183.6599852470681,None,,,,,1,2022_Apr_07_1540,Real-fake-judgement-flashing-group1,2021.1.2
26,Trial # 24,Group1-stimuli/group1-block1/fake-group2-b1/encoded_Group2_IMG_0503.jpg,0,encoded_Group2_IMG_0503.jpg,,,,,0.0,23.0,23.0,23.0,,,,,,,,,,,,,,,,,,,185.17591322492808,None,,,1,0.3299121581949293,187.6268957909197,None,187.6268957909197,None,,,186.46013769204728,None,,,,,1,2022_Apr_07_1540,Real-fake-judgement-flashing-group1,2021.1.2
27,Trial # 25,Group1-stimuli/group1-block1/fake-group2-b1/encoded_Group2_IMG_9804.jpg,0,encoded_Group2_IMG_9804.jpg,,,,,0.0,24.0,24.0,24.0,,,,,,,,,,,,,,,,,,,187.9764588070102,None,,,0,0.3364115210715681,190.44432809692807,None,190.44432809692807,None,,,189.2617384949699,None,,,,,1,2022_Apr_07_1540,Real-fake-judgement-flashing-group1,2021.1.2
28,Trial # 26,Group1-stimuli/group1-block1/real-group1-b1/Group1_IMG_0391.jpg,1,Group1_IMG_0391.jpg,,,,,0.0,25.0,25.0,25.0,,,,,,,,,,,,,,,,,,,190.811283485964,None,,,1,0.2941431850194931,193.27865392901003,None,193.27865392901003,None,,,192.11143159400672,None,,,,,1,2022_Apr_07_1540,Real-fake-judgement-flashing-group1,2021.1.2
29,Trial # 27,Group1-stimuli/group1-block1/fake-group2-b1/encoded_Group2_IMG_3584.jpg,0,encoded_Group2_IMG_3584.jpg,,,,,0.0,26.0,26.0,26.0,,,,,,,,,,,,,,,,,,,193.5959628040437,None,,,1,0.398073639953509,196.0626682098955,None,196.0626682098955,None,,,194.8968856560532,None,,,,,1,2022_Apr_07_1540,Real-fake-judgement-flashing-group1,2021.1.2
30,Trial # 28,Group1-stimuli/group1-block1/fake-group2-b1/encoded_Group2_IMG_0434.jpg,0,encoded_Group2_IMG_0434.jpg,,,,,0.0,27.0,27.0,27.0,,,,,,,,,,,,,,,,,,,196.4796636500396,None,,,1,0.312370273983106,198.94843469792977,None,198.94843469792977,None,,,197.77986210398376,None,,,,,1,2022_Apr_07_1540,Real-fake-judgement-flashing-group1,2021.1.2
31,Trial # 29,Group1-stimuli/group1-block1/fake-group2-b1/encoded_Group2_IMG_9575.jpg,0,encoded_Group2_IMG_9575.jpg,,,,,0.0,28.0,28.0,28.0,,,,,,,,,,,,,,,,,,,199.2816213369369,None,,,0,0.856454512104392,201.7643552920781,None,201.7643552920781,None,,,200.5974421100691,None,,,,,1,2022_Apr_07_1540,Real-fake-judgement-flashing-group1,2021.1.2
32,Trial # 30,Group1-stimuli/group1-block1/fake-group2-b1/encoded_Group2_IMG_1025.jpg,0,encoded_Group2_IMG_1025.jpg,,,,,0.0,29.0,29.0,29.0,,,,,,,,,,,,,,,,,,,202.6479660689365,None,,,0,0.2799970349296927,205.1167944469489,None,205.1167944469489,None,,,203.94961947994307,None,,,,,1,2022_Apr_07_1540,Real-fake-judgement-flashing-group1,2021.1.2
33,Trial # 31,Group1-stimuli/group1-block1/real-group1-b1/Group1_IMG_0502.jpg,1,Group1_IMG_0502.jpg,,,,,0.0,30.0,30.0,30.0,,,,,,,,,,,,,,,,,,,205.4168857510668,None,,,1,0.2489383399952203,207.8998605280649,None,207.8998605280649,None,,,206.73270871909327,None,,,,,1,2022_Apr_07_1540,Real-fake-judgement-flashing-group1,2021.1.2
34,Trial # 32,Group1-stimuli/group1-block1/real-group1-b1/Group1_IMG_0182.jpg,1,Group1_IMG_0182.jpg,,,,,0.0,31.0,31.0,31.0,,,,,,,,,,,,,,,,,,,208.16671782103367,None,,,1,0.2573244262021035,210.65148249687627,None,210.65148249687627,None,,,209.48446167400107,None,,,,,1,2022_Apr_07_1540,Real-fake-judgement-flashing-group1,2021.1.2
35,Trial # 33,Group1-stimuli/group1-block1/fake-group2-b1/encoded_Group2_IMG_2728.jpg,0,encoded_Group2_IMG_2728.jpg,,,,,0.0,32.0,32.0,32.0,,,,,,,,,,,,,,,,,,,210.93405036791228,None,,,0,0.3226776809897274,213.4181321798824,None,213.4181321798824,None,,,212.30107779894024,None,,,,,1,2022_Apr_07_1540,Real-fake-judgement-flashing-group1,2021.1.2
36,Trial # 34,Group1-stimuli/group1-block1/fake-group2-b1/encoded_Group2_IMG_4867.jpg,0,encoded_Group2_IMG_4867.jpg,,,,,0.0,33.0,33.0,33.0,,,,,,,,,,,,,,,,,,,213.76941009587608,None,,,1,0.2650318050291389,216.2357833599672,None,216.2357833599672,None,,,215.06974012497813,None,,,,,1,2022_Apr_07_1540,Real-fake-judgement-flashing-group1,2021.1.2
37,Trial # 35,Group1-stimuli/group1-block1/real-group1-b1/Group1_IMG_9894.jpg,1,Group1_IMG_9894.jpg,,,,,0.0,34.0,34.0,34.0,,,,,,,,,,,,,,,,,,,216.5191393259447,None,,,0,0.3218859781045466,218.9869233870413,None,218.9869233870413,None,,,217.81911982805468,None,,,,,1,2022_Apr_07_1540,Real-fake-judgement-flashing-group1,2021.1.2
38,Trial # 36,Group1-stimuli/group1-block1/fake-group2-b1/encoded_Group2_IMG_0444.jpg,0,encoded_Group2_IMG_0444.jpg,,,,,0.0,35.0,35.0,35.0,,,,,,,,,,,,,,,,,,,219.3380589140579,None,,,1,0.2647027890197932,221.8040500760544,None,221.8040500760544,None,,,220.63736056396732,None,,,,,1,2022_Apr_07_1540,Real-fake-judgement-flashing-group1,2021.1.2
39,Trial # 37,Group1-stimuli/group1-block1/real-group1-b1/Group1_IMG_2656.jpg,1,Group1_IMG_2656.jpg,,,,,0.0,36.0,36.0,36.0,,,,,,,,,,,,,,,,,,,222.08778160391373,None,,,0,0.5046962480992079,224.5561114419252,None,224.5561114419252,None,,,223.4044593640137,None,,,,,1,2022_Apr_07_1540,Real-fake-judgement-flashing-group1,2021.1.2
40,Trial # 38,Group1-stimuli/group1-block1/real-group1-b1/Group1_IMG_0207.jpg,1,Group1_IMG_0207.jpg,,,,,0.0,37.0,37.0,37.0,,,,,,,,,,,,,,,,,,,225.08971352502704,None,,,0,0.3682404670398682,227.572530701058,None,227.572530701058,None,,,226.4054000589531,None,,,,,1,2022_Apr_07_1540,Real-fake-judgement-flashing-group1,2021.1.2
41,Trial # 39,Group1-stimuli/group1-block1/real-group1-b1/Group1_IMG_9638.jpg,1,Group1_IMG_9638.jpg,,,,,0.0,38.0,38.0,38.0,,,,,,,,,,,,,,,,,,,227.97278444492252,None,,,1,0.2516360429581254,230.4411683809012,None,230.4411683809012,None,,,229.27429554704577,None,,,,,1,2022_Apr_07_1540,Real-fake-judgement-flashing-group1,2021.1.2
42,Trial # 40,Group1-stimuli/group1-block1/real-group1-b1/Group1_IMG_0148.jpg,1,Group1_IMG_0148.jpg,,,,,0.0,39.0,39.0,39.0,,,,,,,,,,,,,,,,,,,230.723571409937,None,,,1,0.2290084050036966,233.20784212904985,None,233.20784212904985,None,,,232.02467035106383,None,,,,,1,2022_Apr_07_1540,Real-fake-judgement-flashing-group1,2021.1.2
43,Trial # 41,Group1-stimuli/group1-block1/real-group1-b1/Group1_IMG_2891.jpg,1,Group1_IMG_2891.jpg,,,,,0.0,40.0,40.0,40.0,,,,,,,,,,,,,,,,,,,233.4579775838647,None,,,1,0.2556240691337734,235.92516879201867,None,235.92516879201867,None,,,234.7758377639111,None,,,,,1,2022_Apr_07_1540,Real-fake-judgement-flashing-group1,2021.1.2
44,Trial # 42,Group1-stimuli/group1-block1/real-group1-b1/Group1_IMG_0157.jpg,1,Group1_IMG_0157.jpg,,,,,0.0,41.0,41.0,41.0,,,,,,,,,,,,,,,,,,,236.2086594300345,None,,,1,0.0484027909114956,238.67641307087607,None,238.67641307087607,None,,,237.52550808503293,None,,,,,1,2022_Apr_07_1540,Real-fake-judgement-flashing-group1,2021.1.2
45,Trial # 43,Group1-stimuli/group1-block1/real-group1-b1/Group1_IMG_9833.jpg,1,Group1_IMG_9833.jpg,,,,,0.0,42.0,42.0,42.0,,,,,,,,,,,,,,,,,,,238.742995231878,None,,,0,0.5699866379145533,241.22682286403145,None,241.22682286403145,None,,,240.0608545460273,None,,,,,1,2022_Apr_07_1540,Real-fake-judgement-flashing-group1,2021.1.2
46,Trial # 44,Group1-stimuli/group1-block1/fake-group2-b1/encoded_Group2_IMG_2230.jpg,0,encoded_Group2_IMG_2230.jpg,,,,,0.0,43.0,43.0,43.0,,,,,,,,,,,,,,,,,,,241.82705390802585,None,,,1,0.0539060530718416,244.2949018920772,None,244.2949018920772,None,,,243.14374552993104,None,,,,,1,2022_Apr_07_1540,Real-fake-judgement-flashing-group1,2021.1.2
47,Trial # 45,Group1-stimuli/group1-block1/real-group1-b1/Group1_IMG_9966.jpg,1,Group1_IMG_9966.jpg,,,,,0.0,44.0,44.0,44.0,,,,,,,,,,,,,,,,,,,244.3788616738748,None,,,0,0.1189757680986076,246.8618194889277,None,246.8618194889277,None,,,245.69588552601635,None,,,,,1,2022_Apr_07_1540,Real-fake-judgement-flashing-group1,2021.1.2
48,Trial # 46,Group1-stimuli/group1-block1/real-group1-b1/Group1_IMG_0239.jpg,1,Group1_IMG_0239.jpg,,,,,0.0,45.0,45.0,45.0,,,,,,,,,,,,,,,,,,,247.01257310202345,None,,,1,0.2130059120245278,249.47980237193408,None,249.47980237193408,None,,,248.31224161200225,None,,,,,1,2022_Apr_07_1540,Real-fake-judgement-flashing-group1,2021.1.2
49,Trial # 47,Group1-stimuli/group1-block1/fake-group2-b1/encoded_Group2_IMG_0536.jpg,0,encoded_Group2_IMG_0536.jpg,,,,,0.0,46.0,46.0,46.0,,,,,,,,,,,,,,,,,,,249.7130109660793,None,,,1,0.3286527909804135,252.18015488889068,None,252.18015488889068,None,,,251.01287553901784,None,,,,,1,2022_Apr_07_1540,Real-fake-judgement-flashing-group1,2021.1.2
50,Trial # 48,Group1-stimuli/group1-block1/fake-group2-b1/encoded_Group2_IMG_0521.jpg,0,encoded_Group2_IMG_0521.jpg,,,,,0.0,47.0,47.0,47.0,,,,,,,,,,,,,,,,,,,252.5301230479963,None,,,1,0.0539745739661157,254.99883392103948,None,254.99883392103948,None,,,253.8150931200944,None,,,,,1,2022_Apr_07_1540,Real-fake-judgement-flashing-group1,2021.1.2
51,Trial # 49,Group1-stimuli/group1-block1/fake-group2-b1/encoded_Group2_IMG_9924.jpg,0,encoded_Group2_IMG_9924.jpg,,,,,0.0,48.0,48.0,48.0,,,,,,,,,,,,,,,,,,,255.08232650905848,None,,,0,0.8562576589174569,257.54855084000155,None,257.54855084000155,None,,,256.3814465429168,None,,,,,1,2022_Apr_07_1540,Real-fake-judgement-flashing-group1,2021.1.2
52,Trial # 50,Group1-stimuli/group1-block1/real-group1-b1/Group1_IMG_9730.jpg,1,Group1_IMG_9730.jpg,,,,,0.0,49.0,49.0,49.0,,,,,,,,,,,,,,,,,,,258.4321374769788,None,,,1,0.0321379620581865,260.916677308036,None,260.916677308036,None,,,259.7335674969945,None,,,,,1,2022_Apr_07_1540,Real-fake-judgement-flashing-group1,2021.1.2
53,Trial # 51,Group1-stimuli/group1-block1/real-group1-b1/Group1_IMG_0053.jpg,1,Group1_IMG_0053.jpg,,,,,0.0,50.0,50.0,50.0,,,,,,,,,,,,,,,,,,,260.9663751970511,None,,,0,0.6357960980385542,263.4329460579902,None,263.4329460579902,None,,,262.2666321070865,None,,,,,1,2022_Apr_07_1540,Real-fake-judgement-flashing-group1,2021.1.2
54,Trial # 52,Group1-stimuli/group1-block1/real-group1-b1/Group1_IMG_9698.jpg,1,Group1_IMG_9698.jpg,,,,,0.0,51.0,51.0,51.0,,,,,,,,,,,,,,,,,,,264.1014465829357,None,,,0,0.0529227328952401,266.56788528501056,None,266.56788528501056,None,,,265.4020836299751,None,,,,,1,2022_Apr_07_1540,Real-fake-judgement-flashing-group1,2021.1.2
55,Trial # 53,Group1-stimuli/group1-block1/fake-group2-b1/encoded_Group2_IMG_0553.jpg,0,encoded_Group2_IMG_0553.jpg,,,,,0.0,52.0,52.0,52.0,,,,,,,,,,,,,,,,,,,266.6512909180019,None,,,0,0.390210977056995,269.10259862197563,None,269.10259862197563,None,,,267.93474848987535,None,,,,,1,2022_Apr_07_1540,Real-fake-judgement-flashing-group1,2021.1.2
56,Trial # 54,Group1-stimuli/group1-block1/fake-group2-b1/encoded_Group2_IMG_9758.jpg,0,encoded_Group2_IMG_9758.jpg,,,,,0.0,53.0,53.0,53.0,,,,,,,,,,,,,,,,,,,269.5199082430918,None,,,1,0.0825149940792471,271.9863017280586,None,271.9863017280586,None,,,270.8192509289365,None,,,,,1,2022_Apr_07_1540,Real-fake-judgement-flashing-group1,2021.1.2
57,Trial # 55,Group1-stimuli/group1-block1/fake-group2-b1/encoded_Group2_IMG_0339.jpg,0,encoded_Group2_IMG_0339.jpg,,,,,0.0,54.0,54.0,54.0,,,,,,,,,,,,,,,,,,,272.0862013390288,None,,,1,5.585698544047773,274.5550394488964,None,274.5550394488964,None,,,273.40336606488563,None,,,,,1,2022_Apr_07_1540,Real-fake-judgement-flashing-group1,2021.1.2
58,Trial # 56,Group1-stimuli/group1-block1/real-group1-b1/Group1_IMG_0314.jpg,1,Group1_IMG_0314.jpg,,,,,0.0,55.0,55.0,55.0,,,,,,,,,,,,,,,,,,,280.17284090607427,None,,,0,1.1724643718916925,282.65634395205416,None,282.65634395205416,None,,,281.48916166787967,None,,,,,1,2022_Apr_07_1540,Real-fake-judgement-flashing-group1,2021.1.2
59,Trial # 57,Group1-stimuli/group1-block1/fake-group2-b1/encoded_Group2_IMG_0532.jpg,0,encoded_Group2_IMG_0532.jpg,,,,,0.0,56.0,56.0,56.0,,,,,,,,,,,,,,,,,,,283.8578658720944,None,,,1,0.8807199401780963,286.3240877420176,None,286.3240877420176,None,,,285.15772128407843,None,,,,,1,2022_Apr_07_1540,Real-fake-judgement-flashing-group1,2021.1.2
60,Trial # 58,Group1-stimuli/group1-block1/fake-group2-b1/encoded_Group2_IMG_0462.jpg,0,encoded_Group2_IMG_0462.jpg,,,,,0.0,57.0,57.0,57.0,,,,,,,,,,,,,,,,,,,287.2251639040187,None,,,1,0.0483985049650073,289.69234713492915,None,289.69234713492915,None,,,288.5242745720316,None,,,,,1,2022_Apr_07_1540,Real-fake-judgement-flashing-group1,2021.1.2
61,Trial # 59,Group1-stimuli/group1-block1/real-group1-b1/Group1_IMG_0172.jpg,1,Group1_IMG_0172.jpg,,,,,0.0,58.0,58.0,58.0,,,,,,,,,,,,,,,,,,,289.75938704190776,None,,,0,0.642122316872701,292.2426855720114,None,292.2426855720114,None,,,291.07521595596336,None,,,,,1,2022_Apr_07_1540,Real-fake-judgement-flashing-group1,2021.1.2
62,Trial # 60,Group1-stimuli/group1-block1/real-group1-b1/Group1_IMG_4841.jpg,1,Group1_IMG_4841.jpg,,,,,0.0,59.0,59.0,59.0,,,,,,,,,,,,,,,,,,,292.90919543989,None,,,1,0.0666736678685993,295.3781339949928,None,295.3781339949928,None,,,294.2265622110572,None,,,,,1,2022_Apr_07_1540,Real-fake-judgement-flashing-group1,2021.1.2
63,Trial # 61,Group1-stimuli/group1-block1/fake-group2-b1/encoded_Group2_IMG_0352.jpg,0,encoded_Group2_IMG_0352.jpg,,,,,0.0,60.0,60.0,60.0,,,,,,,,,,,,,,,,,,,295.4614642299712,None,,,0,0.3978958581574261,297.9109154320322,None,297.9109154320322,None,,,296.74388446006924,None,,,,,1,2022_Apr_07_1540,Real-fake-judgement-flashing-group1,2021.1.2
64,Trial # 62,Group1-stimuli/group1-block1/fake-group2-b1/encoded_Group2_IMG_9726.jpg,0,encoded_Group2_IMG_9726.jpg,,,,,0.0,61.0,61.0,61.0,,,,,,,,,,,,,,,,,,,298.3283972928766,None,,,1,0.2416736909653991,300.79515734291635,None,300.79515734291635,None,,,299.6293172449805,None,,,,,1,2022_Apr_07_1540,Real-fake-judgement-flashing-group1,2021.1.2
65,Trial # 63,Group1-stimuli/group1-block1/fake-group2-b1/encoded_Group2_IMG_9785.jpg,0,encoded_Group2_IMG_9785.jpg,,,,,0.0,62.0,62.0,62.0,,,,,,,,,,,,,,,,,,,301.0620623410214,None,,,1,0.2914780620485544,303.52925414405763,None,303.52925414405763,None,,,302.3623672260437,None,,,,,1,2022_Apr_07_1540,Real-fake-judgement-flashing-group1,2021.1.2
66,Trial # 64,Group1-stimuli/group1-block1/fake-group2-b1/encoded_Group2_IMG_0440.jpg,0,encoded_Group2_IMG_0440.jpg,,,,,0.0,63.0,63.0,63.0,,,,,,,,,,,,,,,,,,,303.8469197659288,None,,,1,0.2673033929895609,306.2974501370918,None,306.2974501370918,None,,,305.1309640770778,None,,,,,1,2022_Apr_07_1540,Real-fake-judgement-flashing-group1,2021.1.2
67,Trial # 65,Group1-stimuli/group1-block1/fake-group2-b1/encoded_Group2_IMG_1695.jpg,0,encoded_Group2_IMG_1695.jpg,,,,,0.0,64.0,64.0,64.0,,,,,,,,,,,,,,,,,,,306.5971451699734,None,,,0,0.3079768361058086,309.06483165407553,None,309.06483165407553,None,,,307.89718881994486,None,,,,,1,2022_Apr_07_1540,Real-fake-judgement-flashing-group1,2021.1.2
68,Trial # 66,Group1-stimuli/group1-block1/real-group1-b1/Group1_IMG_0552.jpg,1,Group1_IMG_0552.jpg,,,,,0.0,65.0,65.0,65.0,,,,,,,,,,,,,,,,,,,309.398353937082,None,,,0,0.4508600400295108,311.8818920929916,None,311.8818920929916,None,,,310.71485296287574,None,,,,,1,2022_Apr_07_1540,Real-fake-judgement-flashing-group1,2021.1.2
69,Trial # 67,Group1-stimuli/group1-block1/real-group1-b1/Group1_IMG_1029.jpg,1,Group1_IMG_1029.jpg,,,,,0.0,66.0,66.0,66.0,,,,,,,,,,,,,,,,,,,312.3652724309359,None,,,1,0.0345606049522757,314.8342101259623,None,314.8342101259623,None,,,313.68377938400954,None,,,,,1,2022_Apr_07_1540,Real-fake-judgement-flashing-group1,2021.1.2
70,Trial # 68,Group1-stimuli/group1-block1/fake-group2-b1/encoded_Group2_IMG_6517.jpg,0,encoded_Group2_IMG_6517.jpg,,,,,0.0,67.0,67.0,67.0,,,,,,,,,,,,,,,,,,,314.90017544687726,None,,,0,0.3177986089140177,317.366942221066,None,317.366942221066,None,,,316.20002973801456,None,,,,,1,2022_Apr_07_1540,Real-fake-judgement-flashing-group1,2021.1.2
71,Trial # 69,Group1-stimuli/group1-block1/fake-group2-b1/encoded_Group2_IMG_0002.jpg,0,encoded_Group2_IMG_0002.jpg,,,,,0.0,68.0,68.0,68.0,,,,,,,,,,,,,,,,,,,317.7173108949792,None,,,1,0.026943853823468,320.1858628538903,None,320.1858628538903,None,,,319.0186067970935,None,,,,,1,2022_Apr_07_1540,Real-fake-judgement-flashing-group1,2021.1.2
72,Trial # 70,Group1-stimuli/group1-block1/real-group1-b1/Group1_IMG_0495.jpg,1,Group1_IMG_0495.jpg,,,,,0.0,69.0,69.0,69.0,,,,,,,,,,,,,,,,,,,320.23466249206103,None,,,0,0.8467428120784461,322.7020653418731,None,322.7020653418731,None,,,321.55161742004566,None,,,,,1,2022_Apr_07_1540,Real-fake-judgement-flashing-group1,2021.1.2
73,Trial # 71,Group1-stimuli/group1-block1/real-group1-b1/Group1_IMG_1391.jpg,1,Group1_IMG_1391.jpg,,,,,0.0,70.0,70.0,70.0,,,,,,,,,,,,,,,,,,,323.56842926703393,None,,,1,0.2564633321017027,326.03634409001097,None,326.03634409001097,None,,,324.8871728309896,None,,,,,1,2022_Apr_07_1540,Real-fake-judgement-flashing-group1,2021.1.2
74,Trial # 72,Group1-stimuli/group1-block1/real-group1-b1/Group1_IMG_0343.jpg,1,Group1_IMG_0343.jpg,,,,,0.0,71.0,71.0,71.0,,,,,,,,,,,,,,,,,,,326.3196882219054,None,,,0,0.8652021940797567,328.7875168500468,None,328.7875168500468,None,,,327.6367407499347,None,,,,,1,2022_Apr_07_1540,Real-fake-judgement-flashing-group1,2021.1.2
75,Trial # 73,Group1-stimuli/group1-block1/fake-group2-b1/encoded_Group2_IMG_9810.jpg,0,encoded_Group2_IMG_9810.jpg,,,,,0.0,72.0,72.0,72.0,,,,,,,,,,,,,,,,,,,329.6721126739867,None,,,0,0.5701586750801653,332.1546486308798,None,332.1546486308798,None,,,330.9878344819881,None,,,,,1,2022_Apr_07_1540,Real-fake-judgement-flashing-group1,2021.1.2
76,Trial # 74,Group1-stimuli/group1-block1/fake-group2-b1/encoded_Group2_IMG_5900.jpg,0,encoded_Group2_IMG_5900.jpg,,,,,0.0,73.0,73.0,73.0,,,,,,,,,,,,,,,,,,,332.7554453350604,None,,,1,0.253852074034512,335.22295536403544,None,335.22295536403544,None,,,334.0733178239316,None,,,,,1,2022_Apr_07_1540,Real-fake-judgement-flashing-group1,2021.1.2
77,Trial # 75,Group1-stimuli/group1-block1/real-group1-b1/Group1_IMG_9679.jpg,1,Group1_IMG_9679.jpg,,,,,0.0,74.0,74.0,74.0,,,,,,,,,,,,,,,,,,,335.5065023289062,None,,,0,0.2864837499801069,337.99033113289624,None,337.99033113289624,None,,,336.82298453804106,None,,,,,1,2022_Apr_07_1540,Real-fake-judgement-flashing-group1,2021.1.2
78,Trial # 76,Group1-stimuli/group1-block1/fake-group2-b1/encoded_Group2_IMG_4249.jpg,0,encoded_Group2_IMG_4249.jpg,,,,,0.0,75.0,75.0,75.0,,,,,,,,,,,,,,,,,,,338.3073122180067,None,,,1,0.0224867139477282,340.7743206040468,None,340.7743206040468,None,,,339.5916935610585,None,,,,,1,2022_Apr_07_1540,Real-fake-judgement-flashing-group1,2021.1.2
79,Trial # 77,Group1-stimuli/group1-block1/fake-group2-b1/encoded_Group2_IMG_0174.jpg,0,encoded_Group2_IMG_0174.jpg,,,,,0.0,76.0,76.0,76.0,,,,,,,,,,,,,,,,,,,340.8244066289626,None,,,0,0.0821169710252434,343.2747062300332,None,343.2747062300332,None,,,342.1079948160332,None,,,,,1,2022_Apr_07_1540,Real-fake-judgement-flashing-group1,2021.1.2
80,Trial # 78,Group1-stimuli/group1-block1/fake-group2-b1/encoded_Group2_IMG_0475.jpg,0,encoded_Group2_IMG_0475.jpg,,,,,0.0,77.0,77.0,77.0,,,,,,,,,,,,,,,,,,,343.3744139710907,None,,,0,0.5854380091186613,345.843306172872,None,345.843306172872,None,,,344.6595380890649,None,,,,,1,2022_Apr_07_1540,Real-fake-judgement-flashing-group1,2021.1.2
81,Trial # 79,Group1-stimuli/group1-block1/fake-group2-b1/encoded_Group2_IMG_9751.jpg,0,encoded_Group2_IMG_9751.jpg,,,,,0.0,78.0,78.0,78.0,,,,,,,,,,,,,,,,,,,346.4435548160691,None,,,1,0.1087456301320344,348.92806914192624,None,348.92806914192624,None,,,347.7429781660903,None,,,,,1,2022_Apr_07_1540,Real-fake-judgement-flashing-group1,2021.1.2
82,Trial # 80,Group1-stimuli/group1-block1/fake-group2-b1/encoded_Group2_IMG_0492.jpg,0,encoded_Group2_IMG_0492.jpg,,,,,0.0,79.0,79.0,79.0,,,,,,,,,,,,,,,,,,,349.06133645796217,None,,,0,0.3092077651526779,351.5275986210909,None,351.5275986210909,None,,,350.36170930601656,None,,,,,1,2022_Apr_07_1540,Real-fake-judgement-flashing-group1,2021.1.2
83,Trial # 81,Group1-stimuli/group1-block1/real-group1-b1/Group1_IMG_0535.jpg,1,Group1_IMG_0535.jpg,,,,,0.0,80.0,80.0,80.0,,,,,,,,,,,,,,,,,,,351.8615522379987,None,,,0,0.3960024730768055,354.3288118650671,None,354.3288118650671,None,,,353.1780277180951,None,,,,,1,2022_Apr_07_1540,Real-fake-judgement-flashing-group1,2021.1.2
84,Trial # 82,Group1-stimuli/group1-block1/real-group1-b1/Group1_IMG_0077.jpg,1,Group1_IMG_0077.jpg,,,,,0.0,81.0,81.0,81.0,,,,,,,,,,,,,,,,,,,354.7464644990396,None,,,1,0.2322241750080138,357.2125905309804,None,357.2125905309804,None,,,356.0456660739146,None,,,,,1,2022_Apr_07_1540,Real-fake-judgement-flashing-group1,2021.1.2
85,Trial # 83,Group1-stimuli/group1-block1/fake-group2-b1/encoded_Group2_IMG_9702.jpg,0,encoded_Group2_IMG_9702.jpg,,,,,0.0,82.0,82.0,82.0,,,,,,,,,,,,,,,,,,,357.4629681040533,None,,,0,0.2814466580748558,359.93129428406246,None,359.93129428406246,None,,,358.7473069690168,None,,,,,1,2022_Apr_07_1540,Real-fake-judgement-flashing-group1,2021.1.2
86,Trial # 84,Group1-stimuli/group1-block1/real-group1-b1/Group1_IMG_0357.jpg,1,Group1_IMG_0357.jpg,,,,,0.0,83.0,83.0,83.0,,,,,,,,,,,,,,,,,,,360.23066871007904,None,,,0,0.3632555450312793,362.69755113800056,None,362.69755113800056,None,,,361.5306384728756,None,,,,,1,2022_Apr_07_1540,Real-fake-judgement-flashing-group1,2021.1.2
87,Trial # 85,Group1-stimuli/group1-block1/real-group1-b1/Group1_IMG_9772.jpg,1,Group1_IMG_9772.jpg,,,,,0.0,84.0,84.0,84.0,,,,,,,,,,,,,,,,,,,363.0809301449917,None,,,1,0.0792120450641959,365.54959361301735,None,365.54959361301735,None,,,364.39939506794326,None,,,,,1,2022_Apr_07_1540,Real-fake-judgement-flashing-group1,2021.1.2
88,Trial # 86,Group1-stimuli/group1-block1/real-group1-b1/Group1_IMG_0482.jpg,1,Group1_IMG_0482.jpg,,,,,0.0,85.0,85.0,85.0,,,,,,,,,,,,,,,,,,,365.6484186139424,None,,,0,0.2568201080430299,368.1159941430669,None,368.1159941430669,None,,,366.94872342702,None,,,,,1,2022_Apr_07_1540,Real-fake-judgement-flashing-group1,2021.1.2
89,Trial # 87,Group1-stimuli/group1-block1/real-group1-b1/Group1_IMG_0299.jpg,1,Group1_IMG_0299.jpg,,,,,0.0,86.0,86.0,86.0,,,,,,,,,,,,,,,,,,,368.3997476140503,None,,,1,0.233746324898675,370.8669962598942,None,370.8669962598942,None,,,369.7008669199422,None,,,,,1,2022_Apr_07_1540,Real-fake-judgement-flashing-group1,2021.1.2
90,Trial # 88,Group1-stimuli/group1-block1/fake-group2-b1/encoded_Group2_IMG_0301.jpg,0,encoded_Group2_IMG_0301.jpg,,,,,0.0,87.0,87.0,87.0,,,,,,,,,,,,,,,,,,,371.1333001800813,None,,,1,0.0282869490329176,373.6005290299654,None,373.6005290299654,None,,,372.4340627780184,None,,,,,1,2022_Apr_07_1540,Real-fake-judgement-flashing-group1,2021.1.2
91,Trial # 89,Group1-stimuli/group1-block1/fake-group2-b1/encoded_Group2_IMG_5136.jpg,0,encoded_Group2_IMG_5136.jpg,,,,,0.0,88.0,88.0,88.0,,,,,,,,,,,,,,,,,,,373.6522302890662,None,,,1,0.0542700600344687,376.118546351092,None,376.118546351092,None,,,374.93595714401454,None,,,,,1,2022_Apr_07_1540,Real-fake-judgement-flashing-group1,2021.1.2
92,Trial # 90,Group1-stimuli/group1-block1/real-group1-b1/Group1_IMG_0460.jpg,1,Group1_IMG_0460.jpg,,,,,0.0,89.0,89.0,89.0,,,,,,,,,,,,,,,,,,,376.20237364107743,None,,,1,0.1583054938819259,378.6865497059189,None,378.6865497059189,None,,,377.5189209850505,None,,,,,1,2022_Apr_07_1540,Real-fake-judgement-flashing-group1,2021.1.2
93,Trial # 91,Group1-stimuli/group1-block1/fake-group2-b1/encoded_Group2_IMG_0068.jpg,0,encoded_Group2_IMG_0068.jpg,,,,,0.0,90.0,90.0,90.0,,,,,,,,,,,,,,,,,,,378.87070612888783,None,,,1,0.0759199429303407,381.3369045800064,None,381.3369045800064,None,,,380.169851813931,None,,,,,1,2022_Apr_07_1540,Real-fake-judgement-flashing-group1,2021.1.2
94,Trial # 92,Group1-stimuli/group1-block1/real-group1-b1/Group1_IMG_0337.jpg,1,Group1_IMG_0337.jpg,,,,,0.0,91.0,91.0,91.0,,,,,,,,,,,,,,,,,,,381.43681798595935,None,,,0,0.1314891709480434,383.90525471,None,383.90525471,None,,,382.73716765409335,None,,,,,1,2022_Apr_07_1540,Real-fake-judgement-flashing-group1,2021.1.2
95,Trial # 93,Group1-stimuli/group1-block1/fake-group2-b1/encoded_Group2_IMG_0346.jpg,0,encoded_Group2_IMG_0346.jpg,,,,,0.0,92.0,92.0,92.0,,,,,,,,,,,,,,,,,,,384.0555520930793,None,,,0,0.1396935649681836,386.5051085068844,None,386.5051085068844,None,,,385.3393520610407,None,,,,,1,2022_Apr_07_1540,Real-fake-judgement-flashing-group1,2021.1.2
96,Trial # 94,Group1-stimuli/group1-block1/real-group1-b1/Group1_IMG_4253.jpg,1,Group1_IMG_4253.jpg,,,,,0.0,93.0,93.0,93.0,,,,,,,,,,,,,,,,,,,386.671909369994,None,,,1,0.2169657119084149,389.1397755409125,None,389.1397755409125,None,,,387.9882253829856,None,,,,,1,2022_Apr_07_1540,Real-fake-judgement-flashing-group1,2021.1.2
97,Trial # 95,Group1-stimuli/group1-block1/fake-group2-b1/encoded_Group2_IMG_9280.jpg,0,encoded_Group2_IMG_9280.jpg,,,,,0.0,94.0,94.0,94.0,,,,,,,,,,,,,,,,,,,389.3896781429648,None,,,0,0.3239323568996042,391.8568830180448,None,391.8568830180448,None,,,390.6897609150037,None,,,,,1,2022_Apr_07_1540,Real-fake-judgement-flashing-group1,2021.1.2
98,Trial # 96,Group1-stimuli/group1-block1/real-group1-b1/Group1_IMG_0417.jpg,1,Group1_IMG_0417.jpg,,,,,0.0,95.0,95.0,95.0,,,,,,,,,,,,,,,,,,,392.2066192829516,None,,,0,0.2733294060453772,394.6755036490504,None,394.6755036490504,None,,,393.55662585492246,None,,,,,1,2022_Apr_07_1540,Real-fake-judgement-flashing-group1,2021.1.2
99,Trial # 97,Group1-stimuli/group1-block1/fake-group2-b1/encoded_Group2_IMG_9695.jpg,0,encoded_Group2_IMG_9695.jpg,,,,,0.0,96.0,96.0,96.0,,,,,,,,,,,,,,,,,,,394.9757449240424,None,,,0,0.538635928882286,397.458178648958,None,397.458178648958,None,,,396.291814890923,None,,,,,1,2022_Apr_07_1540,Real-fake-judgement-flashing-group1,2021.1.2
100,Trial # 98,Group1-stimuli/group1-block1/real-group1-b1/Group1_IMG_1160.jpg,1,Group1_IMG_1160.jpg,,,,,0.0,97.0,97.0,97.0,,,,,,,,,,,,,,,,,,,398.0245726420544,None,,,1,0.4389904320705682,400.4938300959766,None,400.4938300959766,None,,,399.342649170896,None,,,,,1,2022_Apr_07_1540,Real-fake-judgement-flashing-group1,2021.1.2
101,Trial # 99,Group1-stimuli/group1-block1/real-group1-b1/Group1_IMG_0448.jpg,1,Group1_IMG_0448.jpg,,,,,0.0,98.0,98.0,98.0,,,,,,,,,,,,,,,,,,,400.9593634728808,None,,,0,0.3055641441605985,403.4272497089114,None,403.4272497089114,None,,,402.2601369279437,None,,,,,1,2022_Apr_07_1540,Real-fake-judgement-flashing-group1,2021.1.2
102,Trial # 100,Group1-stimuli/group1-block1/fake-group2-b1/encoded_Group2_IMG_0393.jpg,0,encoded_Group2_IMG_0393.jpg,,,,,0.0,99.0,99.0,99.0,,,,,,,,,,,,,,,,,,,403.7618331979029,None,,,1,0.9612456299364568,406.2275670939125,None,406.2275670939125,None,,,405.0619444858749,None,,,,,1,2022_Apr_07_1540,Real-fake-judgement-flashing-group1,2021.1.2
103,Trial # 101,Group1-stimuli/group1-block1/real-group1-b1/Group1_IMG_0090.jpg,1,Group1_IMG_0090.jpg,,,,,0.0,100.0,100.0,100.0,,,,,,,,,,,,,,,,,,,407.2113605369814,None,,,0,0.3254696310032159,409.6793527309783,None,409.6793527309783,None,,,408.527940495871,None,,,,,1,2022_Apr_07_1540,Real-fake-judgement-flashing-group1,2021.1.2
104,Trial # 102,Group1-stimuli/group1-block1/real-group1-b1/Group1_IMG_0310.jpg,1,Group1_IMG_0310.jpg,,,,,0.0,101.0,101.0,101.0,,,,,,,,,,,,,,,,,,,410.0294808449689,None,,,0,0.9715732610784472,412.51324053201824,None,412.51324053201824,None,,,411.34589113108814,None,,,,,1,2022_Apr_07_1540,Real-fake-judgement-flashing-group1,2021.1.2
105,Trial # 103,Group1-stimuli/group1-block1/fake-group2-b1/encoded_Group2_IMG_0528.jpg,0,encoded_Group2_IMG_0528.jpg,,,,,0.0,102.0,102.0,102.0,,,,,,,,,,,,,,,,,,,413.5135240969248,None,,,0,0.3598914740141481,415.9809686879162,None,415.9809686879162,None,,,414.8150912520941,None,,,,,1,2022_Apr_07_1540,Real-fake-judgement-flashing-group1,2021.1.2
106,Trial # 104,Group1-stimuli/group1-block1/fake-group2-b1/encoded_Group2_IMG_1975.jpg,0,encoded_Group2_IMG_1975.jpg,,,,,0.0,103.0,103.0,103.0,,,,,,,,,,,,,,,,,,,416.3641080409288,None,,,0,0.3236690920311957,418.833154860884,None,418.833154860884,None,,,417.6813773398753,None,,,,,1,2022_Apr_07_1540,Real-fake-judgement-flashing-group1,2021.1.2
107,Trial # 105,Group1-stimuli/group1-block1/fake-group2-b1/encoded_Group2_IMG_0052.jpg,0,encoded_Group2_IMG_0052.jpg,,,,,0.0,104.0,104.0,104.0,,,,,,,,,,,,,,,,,,,419.1828858458903,None,,,0,0.3554925641510635,421.6493238739204,None,421.6493238739204,None,,,420.4821995110251,None,,,,,1,2022_Apr_07_1540,Real-fake-judgement-flashing-group1,2021.1.2
108,Trial # 106,Group1-stimuli/group1-block1/fake-group2-b1/encoded_Group2_IMG_0225.jpg,0,encoded_Group2_IMG_0225.jpg,,,,,0.0,105.0,105.0,105.0,,,,,,,,,,,,,,,,,,,422.0326199200936,None,,,1,0.2161312790121883,424.5006203278899,None,424.5006203278899,None,,,423.33310068096034,None,,,,,1,2022_Apr_07_1540,Real-fake-judgement-flashing-group1,2021.1.2
109,Trial # 107,Group1-stimuli/group1-block1/real-group1-b1/Group1_IMG_2231.jpg,1,Group1_IMG_2231.jpg,,,,,0.0,106.0,106.0,106.0,,,,,,,,,,,,,,,,,,,424.73479888099246,None,,,1,0.2431576179806143,427.2176560319495,None,427.2176560319495,None,,,426.0506632709876,None,,,,,1,2022_Apr_07_1540,Real-fake-judgement-flashing-group1,2021.1.2
110,Trial # 108,Group1-stimuli/group1-block1/real-group1-b1/Group1_IMG_0217.jpg,1,Group1_IMG_0217.jpg,,,,,0.0,107.0,107.0,107.0,,,,,,,,,,,,,,,,,,,427.4849727170076,None,,,1,0.2675965279340744,429.9532208170276,None,429.9532208170276,None,,,428.7859981239308,None,,,,,1,2022_Apr_07_1540,Real-fake-judgement-flashing-group1,2021.1.2
111,Trial # 109,Group1-stimuli/group1-block1/real-group1-b1/Group1_IMG_0264.jpg,1,Group1_IMG_0264.jpg,,,,,0.0,108.0,108.0,108.0,,,,,,,,,,,,,,,,,,,430.25327654206194,None,,,1,0.2933650841005146,432.7194615129847,None,432.7194615129847,None,,,431.55316462693736,None,,,,,1,2022_Apr_07_1540,Real-fake-judgement-flashing-group1,2021.1.2
112,Trial # 110,Group1-stimuli/group1-block1/fake-group2-b1/encoded_Group2_IMG_0254.jpg,0,encoded_Group2_IMG_0254.jpg,,,,,0.0,109.0,109.0,109.0,,,,,,,,,,,,,,,,,,,433.0364447410684,None,,,0,0.3005391370970756,435.50420281407423,None,435.50420281407423,None,,,434.3378085389268,None,,,,,1,2022_Apr_07_1540,Real-fake-judgement-flashing-group1,2021.1.2
113,Trial # 111,Group1-stimuli/group1-block1/fake-group2-b1/encoded_Group2_IMG_5433.jpg,0,encoded_Group2_IMG_5433.jpg,,,,,0.0,110.0,110.0,110.0,,,,,,,,,,,,,,,,,,,435.837325027911,None,,,0,0.9405026349704712,438.3043049678672,None,438.3043049678672,None,,,437.13743784395047,None,,,,,1,2022_Apr_07_1540,Real-fake-judgement-flashing-group1,2021.1.2
114,Trial # 112,Group1-stimuli/group1-block1/real-group1-b1/Group1_IMG_0252.jpg,1,Group1_IMG_0252.jpg,,,,,0.0,111.0,111.0,111.0,,,,,,,,,,,,,,,,,,,439.2726955430117,None,,,0,0.4005828720983118,441.7561531250831,None,441.7561531250831,None,,,440.5884185449686,None,,,,,1,2022_Apr_07_1540,Real-fake-judgement-flashing-group1,2021.1.2
115,Trial # 113,Group1-stimuli/group1-block1/real-group1-b1/Group1_IMG_9720.jpg,1,Group1_IMG_9720.jpg,,,,,0.0,112.0,112.0,112.0,,,,,,,,,,,,,,,,,,,442.18902771989815,None,,,1,0.2111373441293835,444.6576962529216,None,444.6576962529216,None,,,443.5056000659242,None,,,,,1,2022_Apr_07_1540,Real-fake-judgement-flashing-group1,2021.1.2
116,Trial # 114,Group1-stimuli/group1-block1/fake-group2-b1/encoded_Group2_IMG_0550.jpg,0,encoded_Group2_IMG_0550.jpg,,,,,0.0,113.0,113.0,113.0,,,,,,,,,,,,,,,,,,,444.8905602190644,None,,,0,0.2555781060364097,447.3572308700532,None,447.3572308700532,None,,,446.1902621060144,None,,,,,1,2022_Apr_07_1540,Real-fake-judgement-flashing-group1,2021.1.2
117,Trial # 115,Group1-stimuli/group1-block1/real-group1-b1/Group1_IMG_9915.jpg,1,Group1_IMG_9915.jpg,,,,,0.0,114.0,114.0,114.0,,,,,,,,,,,,,,,,,,,447.6408494389616,None,,,0,0.4954532929696142,450.1093888268806,None,450.1093888268806,None,,,448.9914575919975,None,,,,,1,2022_Apr_07_1540,Real-fake-judgement-flashing-group1,2021.1.2
118,Trial # 116,Group1-stimuli/group1-block1/real-group1-b1/Group1_IMG_9850.jpg,1,Group1_IMG_9850.jpg,,,,,0.0,115.0,115.0,115.0,,,,,,,,,,,,,,,,,,,450.62599227996543,None,,,0,0.4485302509274333,453.0923236480448,None,453.0923236480448,None,,,451.925284944009,None,,,,,1,2022_Apr_07_1540,Real-fake-judgement-flashing-group1,2021.1.2
119,Trial # 117,Group1-stimuli/group1-block1/real-group1-b1/Group1_IMG_3579.jpg,1,Group1_IMG_3579.jpg,,,,,0.0,116.0,116.0,116.0,,,,,,,,,,,,,,,,,,,453.5593899579253,None,,,0,1.4892506450414658,456.0275580510497,None,456.0275580510497,None,,,454.86067436705343,None,,,,,1,2022_Apr_07_1540,Real-fake-judgement-flashing-group1,2021.1.2
120,Trial # 118,Group1-stimuli/group1-block1/fake-group2-b1/encoded_Group2_IMG_0377.jpg,0,encoded_Group2_IMG_0377.jpg,,,,,0.0,117.0,117.0,117.0,,,,,,,,,,,,,,,,,,,457.54322679992765,None,,,0,0.3523488740902394,460.0124674460385,None,460.0124674460385,None,,,458.8619927919936,None,,,,,1,2022_Apr_07_1540,Real-fake-judgement-flashing-group1,2021.1.2
121,Trial # 119,Group1-stimuli/group1-block1/real-group1-b1/Group1_IMG_0469.jpg,1,Group1_IMG_0469.jpg,,,,,0.0,118.0,118.0,118.0,,,,,,,,,,,,,,,,,,,460.3957398170605,None,,,0,0.3254505081567913,462.8953561980743,None,462.8953561980743,None,,,461.7116419109516,None,,,,,1,2022_Apr_07_1540,Real-fake-judgement-flashing-group1,2021.1.2
122,Trial # 120,Group1-stimuli/group1-block1/fake-group2-b1/encoded_Group2_IMG_0100.jpg,0,encoded_Group2_IMG_0100.jpg,,,,,0.0,119.0,119.0,119.0,,,,,,,,,,,,,,,,,,,463.2459218020085,None,,,1,0.2265887330286204,465.7142668368761,None,465.7142668368761,None,,,464.5471212340053,None,,,,,1,2022_Apr_07_1540,Real-fake-judgement-flashing-group1,2021.1.2
123,Trial # 121,Group1-stimuli/group1-block1/real-group1-b1/Group1_IMG_5359.jpg,1,Group1_IMG_5359.jpg,,,,,0.0,120.0,120.0,120.0,,,,,,,,,,,,,,,,,,,465.9634237559512,None,,,1,1.2856066080275923,468.4471415160224,None,468.4471415160224,None,,,467.2800303918775,None,,,,,1,2022_Apr_07_1540,Real-fake-judgement-flashing-group1,2021.1.2
124,Trial # 122,Group1-stimuli/group1-block1/fake-group2-b1/encoded_Group2_IMG_0304.jpg,0,encoded_Group2_IMG_0304.jpg,,,,,0.0,121.0,121.0,121.0,,,,,,,,,,,,,,,,,,,469.764538543066,None,,,1,0.2697555820923298,472.2150625549257,None,472.2150625549257,None,,,471.0479190868791,None,,,,,1,2022_Apr_07_1540,Real-fake-judgement-flashing-group1,2021.1.2
125,Trial # 123,Group1-stimuli/group1-block1/real-group1-b1/Group1_IMG_0306.jpg,1,Group1_IMG_0306.jpg,,,,,0.0,122.0,122.0,122.0,,,,,,,,,,,,,,,,,,,472.5149350739084,None,,,1,0.2292409089859575,474.9835786449257,None,474.9835786449257,None,,,473.8334861109033,None,,,,,1,2022_Apr_07_1540,Real-fake-judgement-flashing-group1,2021.1.2
126,Trial # 124,Group1-stimuli/group1-block1/real-group1-b1/Group1_IMG_0224.jpg,1,Group1_IMG_0224.jpg,,,,,0.0,123.0,123.0,123.0,,,,,,,,,,,,,,,,,,,475.2339209029451,None,,,1,0.239873276092112,477.7169423040468,None,477.7169423040468,None,,,476.54962027305737,None,,,,,1,2022_Apr_07_1540,Real-fake-judgement-flashing-group1,2021.1.2
127,Trial # 125,Group1-stimuli/group1-block1/real-group1-b1/Group1_IMG_9889.jpg,1,Group1_IMG_9889.jpg,,,,,0.0,124.0,124.0,124.0,,,,,,,,,,,,,,,,,,,477.9831312398892,None,,,0,0.3058664298150688,480.4509492078796,None,480.4509492078796,None,,,479.3015735859517,None,,,,,1,2022_Apr_07_1540,Real-fake-judgement-flashing-group1,2021.1.2
128,Trial # 126,Group1-stimuli/group1-block1/real-group1-b1/Group1_IMG_0293.jpg,1,Group1_IMG_0293.jpg,,,,,0.0,125.0,125.0,125.0,,,,,,,,,,,,,,,,,,,480.7845657670405,None,,,0,0.4650056411046535,483.2518009990454,None,483.2518009990454,None,,,482.0849466009531,None,,,,,1,2022_Apr_07_1540,Real-fake-judgement-flashing-group1,2021.1.2
129,Trial # 127,Group1-stimuli/group1-block1/fake-group2-b1/encoded_Group2_IMG_0321.jpg,0,encoded_Group2_IMG_0321.jpg,,,,,0.0,126.0,126.0,126.0,,,,,,,,,,,,,,,,,,,483.73552160407417,None,,,1,0.3206298579461872,486.2202013218776,None,486.2202013218776,None,,,485.0534757899586,None,,,,,1,2022_Apr_07_1540,Real-fake-judgement-flashing-group1,2021.1.2
130,Trial # 128,Group1-stimuli/group1-block1/fake-group2-b1/encoded_Group2_IMG_0400.jpg,0,encoded_Group2_IMG_0400.jpg,,,,,0.0,127.0,127.0,127.0,,,,,,,,,,,,,,,,,,,486.569501881022,None,,,1,0.1987523979041725,489.0540572600439,None,489.0540572600439,None,,,487.869765517069,None,,,,,1,2022_Apr_07_1540,Real-fake-judgement-flashing-group1,2021.1.2
131,Trial # 129,Group1-stimuli/group1-block1/fake-group2-b1/encoded_Group2_IMG_0443.jpg,0,encoded_Group2_IMG_0443.jpg,,,,,0.0,128.0,128.0,128.0,,,,,,,,,,,,,,,,,,,489.27067157207057,None,,,1,0.4023584129754454,491.7544490110595,None,491.7544490110595,None,,,490.5883998379577,None,,,,,1,2022_Apr_07_1540,Real-fake-judgement-flashing-group1,2021.1.2
132,Trial # 130,Group1-stimuli/group1-block1/fake-group2-b1/encoded_Group2_IMG_0542.jpg,0,encoded_Group2_IMG_0542.jpg,,,,,0.0,129.0,129.0,129.0,,,,,,,,,,,,,,,,,,,492.1887407680042,None,,,0,0.3162252530455589,494.6565942589659,None,494.6565942589659,None,,,493.4880265290849,None,,,,,1,2022_Apr_07_1540,Real-fake-judgement-flashing-group1,2021.1.2
133,Trial # 131,Group1-stimuli/group1-block1/real-group1-b1/Group1_IMG_0885.jpg,1,Group1_IMG_0885.jpg,,,,,0.0,130.0,130.0,130.0,,,,,,,,,,,,,,,,,,,494.98892252286896,None,,,1,0.2519329038914293,497.4727569599636,None,497.4727569599636,None,,,496.3056976289954,None,,,,,1,2022_Apr_07_1540,Real-fake-judgement-flashing-group1,2021.1.2
134,Trial # 132,Group1-stimuli/group1-block1/real-group1-b1/Group1_IMG_0375.jpg,1,Group1_IMG_0375.jpg,,,,,0.0,131.0,131.0,131.0,,,,,,,,,,,,,,,,,,,497.75574831292033,None,,,0,0.2519024000503123,500.22490612696856,None,500.22490612696856,None,,,499.0576150780544,None,,,,,1,2022_Apr_07_1540,Real-fake-judgement-flashing-group1,2021.1.2
135,Trial # 133,Group1-stimuli/group1-block1/fake-group2-b1/encoded_Group2_IMG_7351.jpg,0,encoded_Group2_IMG_7351.jpg,,,,,0.0,132.0,132.0,132.0,,,,,,,,,,,,,,,,,,,500.5070340859238,None,,,0,0.3177830690983683,502.97504922095686,None,502.97504922095686,None,,,501.807279034052,None,,,,,1,2022_Apr_07_1540,Real-fake-judgement-flashing-group1,2021.1.2
136,Trial # 134,Group1-stimuli/group1-block1/fake-group2-b1/encoded_Group2_IMG_0416.jpg,0,encoded_Group2_IMG_0416.jpg,,,,,0.0,133.0,133.0,133.0,,,,,,,,,,,,,,,,,,,503.3249305118807,None,,,1,0.2287448688875883,505.792068046052,None,505.792068046052,None,,,504.62610419187695,None,,,,,1,2022_Apr_07_1540,Real-fake-judgement-flashing-group1,2021.1.2
137,Trial # 135,Group1-stimuli/group1-block1/fake-group2-b1/encoded_Group2_IMG_0139.jpg,0,encoded_Group2_IMG_0139.jpg,,,,,0.0,134.0,134.0,134.0,,,,,,,,,,,,,,,,,,,506.0422339860816,None,,,0,0.3183339110109955,508.5264320368879,None,508.5264320368879,None,,,507.3425352310296,None,,,,,1,2022_Apr_07_1540,Real-fake-judgement-flashing-group1,2021.1.2
138,Trial # 136,Group1-stimuli/group1-block1/real-group1-b1/Group1_IMG_9677.jpg,1,Group1_IMG_9677.jpg,,,,,0.0,135.0,135.0,135.0,,,,,,,,,,,,,,,,,,,508.8776245950721,None,,,0,0.3164291370194405,511.3603908158839,None,511.3603908158839,None,,,510.194552962901,None,,,,,1,2022_Apr_07_1540,Real-fake-judgement-flashing-group1,2021.1.2
139,Trial # 137,Group1-stimuli/group1-block1/fake-group2-b1/encoded_Group2_IMG_5982.jpg,0,encoded_Group2_IMG_5982.jpg,,,,,0.0,136.0,136.0,136.0,,,,,,,,,,,,,,,,,,,511.6941432240419,None,,,0,0.2590541769750416,514.1617506879847,None,514.1617506879847,None,,,513.0111879850738,None,,,,,1,2022_Apr_07_1540,Real-fake-judgement-flashing-group1,2021.1.2
140,Trial # 138,Group1-stimuli/group1-block1/fake-group2-b1/encoded_Group2_IMG_1144.jpg,0,encoded_Group2_IMG_1144.jpg,,,,,0.0,137.0,137.0,137.0,,,,,,,,,,,,,,,,,,,514.4451502000447,None,,,1,0.5167591460049152,516.9120448830072,None,516.9120448830072,None,,,515.7450609579682,None,,,,,1,2022_Apr_07_1540,Real-fake-judgement-flashing-group1,2021.1.2
141,Trial # 139,Group1-stimuli/group1-block1/fake-group2-b1/encoded_Group2_IMG_0315.jpg,0,encoded_Group2_IMG_0315.jpg,,,,,0.0,138.0,138.0,138.0,,,,,,,,,,,,,,,,,,,517.4452888299711,None,,,0,0.2038343069143593,519.8969812588766,None,519.8969812588766,None,,,518.7306296960451,None,,,,,1,2022_Apr_07_1540,Real-fake-judgement-flashing-group1,2021.1.2
142,Trial # 140,Group1-stimuli/group1-block1/real-group1-b1/Group1_IMG_130.jpg,1,Group1_IMG_130.jpg,,,,,0.0,139.0,139.0,139.0,,,,,,,,,,,,,,,,,,,520.1301154498942,None,,,1,0.078946340130642,522.6138360290788,None,522.6138360290788,None,,,521.4468610910699,None,,,,,1,2022_Apr_07_1540,Real-fake-judgement-flashing-group1,2021.1.2
143,Trial # 141,Group1-stimuli/group1-block1/real-group1-b1/Group1_IMG_0024.jpg,1,Group1_IMG_0024.jpg,,,,,0.0,140.0,140.0,140.0,,,,,,,,,,,,,,,,,,,522.7138666869141,None,,,1,0.0540537009947001,525.1827602810226,None,525.1827602810226,None,,,524.0154831160326,None,,,,,1,2022_Apr_07_1540,Real-fake-judgement-flashing-group1,2021.1.2
144,Trial # 142,Group1-stimuli/group1-block1/fake-group2-b1/encoded_Group2_IMG_5012.jpg,0,encoded_Group2_IMG_5012.jpg,,,,,0.0,141.0,141.0,141.0,,,,,,,,,,,,,,,,,,,525.2660653619096,None,,,1,0.032594745978713,527.7322214620654,None,527.7322214620654,None,,,526.5650548529811,None,,,,,1,2022_Apr_07_1540,Real-fake-judgement-flashing-group1,2021.1.2
145,Trial # 143,Group1-stimuli/group1-block1/fake-group2-b1/encoded_Group2_IMG_0209.jpg,0,encoded_Group2_IMG_0209.jpg,,,,,0.0,142.0,142.0,142.0,,,,,,,,,,,,,,,,,,,527.7825836569536,None,,,0,0.3947101740632206,530.2340901910793,None,530.2340901910793,None,,,529.0670342410449,None,,,,,1,2022_Apr_07_1540,Real-fake-judgement-flashing-group1,2021.1.2
146,Trial # 144,Group1-stimuli/group1-block1/real-group1-b1/Group1_IMG_0373.jpg,1,Group1_IMG_0373.jpg,,,,,0.0,143.0,143.0,143.0,,,,,,,,,,,,,,,,,,,530.6495083740447,None,,,0,0.2070979718118906,533.1337592320051,None,533.1337592320051,None,,,531.9665647759102,None,,,,,1,2022_Apr_07_1540,Real-fake-judgement-flashing-group1,2021.1.2
147,Trial # 145,Group1-stimuli/group1-block1/real-group1-b1/Group1_IMG_5899.jpg,1,Group1_IMG_5899.jpg,,,,,0.0,144.0,144.0,144.0,,,,,,,,,,,,,,,,,,,533.3673520560842,None,,,0,0.2661408791318536,535.834658269072,None,535.834658269072,None,,,534.6687216300052,None,,,,,1,2022_Apr_07_1540,Real-fake-judgement-flashing-group1,2021.1.2
148,Trial # 146,Group1-stimuli/group1-block1/real-group1-b1/Group1_IMG_0162.jpg,1,Group1_IMG_0162.jpg,,,,,0.0,145.0,145.0,145.0,,,,,,,,,,,,,,,,,,,536.1181639870629,None,,,1,1.218407465144992,538.6023293980397,None,538.6023293980397,None,,,537.4350759228691,None,,,,,1,2022_Apr_07_1540,Real-fake-judgement-flashing-group1,2021.1.2
149,Trial # 147,Group1-stimuli/group1-block1/real-group1-b1/Group1_IMG_0543.jpg,1,Group1_IMG_0543.jpg,,,,,0.0,146.0,146.0,146.0,,,,,,,,,,,,,,,,,,,539.853663380025,None,,,0,0.3721423200331628,542.3366755619645,None,542.3366755619645,None,,,541.1703776039649,None,,,,,1,2022_Apr_07_1540,Real-fake-judgement-flashing-group1,2021.1.2
150,Trial # 148,Group1-stimuli/group1-block1/fake-group2-b1/encoded_Group2_IMG_0355.jpg,0,encoded_Group2_IMG_0355.jpg,,,,,0.0,147.0,147.0,147.0,,,,,,,,,,,,,,,,,,,542.7373366819229,None,,,0,0.0552664729766547,545.205565304961,None,545.205565304961,None,,,544.0713618160225,None,,,,,1,2022_Apr_07_1540,Real-fake-judgement-flashing-group1,2021.1.2
151,Trial # 149,Group1-stimuli/group1-block1/real-group1-b1/Group1_IMG_9765.jpg,1,Group1_IMG_9765.jpg,,,,,0.0,148.0,148.0,148.0,,,,,,,,,,,,,,,,,,,545.289130205987,None,,,1,0.0971458710264414,547.7716455529444,None,547.7716455529444,None,,,546.6214452160057,None,,,,,1,2022_Apr_07_1540,Real-fake-judgement-flashing-group1,2021.1.2
152,Trial # 150,Group1-stimuli/group1-block1/fake-group2-b1/encoded_Group2_IMG_1378.jpg,0,encoded_Group2_IMG_1378.jpg,,,,,0.0,149.0,149.0,149.0,,,,,,,,,,,,,,,,,,,547.8892885830719,None,,,1,0.2157905539497733,550.356988833053,None,550.356988833053,None,,,549.1900552909356,None,,,,,1,2022_Apr_07_1540,Real-fake-judgement-flashing-group1,2021.1.2
153,Trial # 1,Group1-stimuli/group1-block2/fake-group2-b2/encoded_Group2_IMG_0155.jpg,0,encoded_Group2_IMG_0155.jpg,,,,,,,,,0.0,0.0,0.0,0.0,,,,,,,,,,,,,,,568.0945713638794,None,,,1,0.6855171700008214,570.4951804380398,None,570.4951804380398,None,555.7954345359467,None,569.3462209159043,None,550.5892637630459,None,,,1,2022_Apr_07_1540,Real-fake-judgement-flashing-group1,2021.1.2
154,Trial # 2,Group1-stimuli/group1-block2/real-group1-b2/Group1_IMG_0519.jpg,1,Group1_IMG_0519.jpg,,,,,,,,,0.0,1.0,1.0,1.0,,,,,,,,,,,,,,,571.212292003911,None,,,1,1.7480726218782363,573.6967608809937,None,573.6967608809937,None,,,572.5287876210641,None,,,,,1,2022_Apr_07_1540,Real-fake-judgement-flashing-group1,2021.1.2
155,Trial # 3,Group1-stimuli/group1-block2/fake-group2-b2/encoded_Group2_IMG_0135.jpg,0,encoded_Group2_IMG_0135.jpg,,,,,,,,,0.0,2.0,2.0,2.0,,,,,,,,,,,,,,,575.4644979978912,None,,,0,2.8809757828712463,577.947844642913,None,577.947844642913,None,,,576.7809839718975,None,,,,,1,2022_Apr_07_1540,Real-fake-judgement-flashing-group1,2021.1.2
156,Trial # 4,Group1-stimuli/group1-block2/real-group1-b2/Group1_IMG_5310.jpg,1,Group1_IMG_5310.jpg,,,,,,,,,0.0,3.0,3.0,3.0,,,,,,,,,,,,,,,580.8492617339361,None,,,1,0.2159512578509748,583.3328600069508,None,583.3328600069508,None,,,582.1655766209587,None,,,,,1,2022_Apr_07_1540,Real-fake-judgement-flashing-group1,2021.1.2
157,Trial # 5,Group1-stimuli/group1-block2/real-group1-b2/Group1_IMG_0522.jpg,1,Group1_IMG_0522.jpg,,,,,,,,,0.0,4.0,4.0,4.0,,,,,,,,,,,,,,,583.5663263080642,None,,,1,0.1233656350523233,586.0334524118807,None,586.0334524118807,None,,,584.8843461629003,None,,,,,1,2022_Apr_07_1540,Real-fake-judgement-flashing-group1,2021.1.2
158,Trial # 6,Group1-stimuli/group1-block2/fake-group2-b2/encoded_Group2_IMG_0484.jpg,0,encoded_Group2_IMG_0484.jpg,,,,,,,,,0.0,5.0,5.0,5.0,,,,,,,,,,,,,,,586.1835280689411,None,,,0,0.0256188029889017,588.6671952609904,None,588.6671952609904,None,,,587.5005663740449,None,,,,,1,2022_Apr_07_1540,Real-fake-judgement-flashing-group1,2021.1.2
159,Trial # 7,Group1-stimuli/group1-block2/fake-group2-b2/encoded_Group2_IMG_5948.jpg,0,encoded_Group2_IMG_5948.jpg,,,,,,,,,0.0,6.0,6.0,6.0,,,,,,,,,,,,,,,588.718499823939,None,,,0,0.2116317320615053,591.1851814158726,None,591.1851814158726,None,,,590.0192972919904,None,,,,,1,2022_Apr_07_1540,Real-fake-judgement-flashing-group1,2021.1.2
160,Trial # 8,Group1-stimuli/group1-block2/fake-group2-b2/encoded_Group2_IMG_3591.jpg,0,encoded_Group2_IMG_3591.jpg,,,,,,,,,0.0,7.0,7.0,7.0,,,,,,,,,,,,,,,591.4188131000847,None,,,0,0.0297940550372004,593.8870503769722,None,593.8870503769722,None,,,592.8021632400341,None,,,,,1,2022_Apr_07_1540,Real-fake-judgement-flashing-group1,2021.1.2
161,Trial # 9,Group1-stimuli/group1-block2/real-group1-b2/Group1_IMG_9835.jpg,1,Group1_IMG_9835.jpg,,,,,,,,,0.0,8.0,8.0,8.0,,,,,,,,,,,,,,,593.9372542819474,None,,,0,0.0809199060313403,596.4199061959516,None,596.4199061959516,None,,,595.2543159069028,None,,,,,1,2022_Apr_07_1540,Real-fake-judgement-flashing-group1,2021.1.2
162,Trial # 10,Group1-stimuli/group1-block2/real-group1-b2/Group1_IMG_0556.jpg,1,Group1_IMG_0556.jpg,,,,,,,,,0.0,9.0,9.0,9.0,,,,,,,,,,,,,,,596.5214269780554,None,,,0,0.07211928605102,598.9887628380675,None,598.9887628380675,None,,,597.8538877419196,None,,,,,1,2022_Apr_07_1540,Real-fake-judgement-flashing-group1,2021.1.2
163,Trial # 11,Group1-stimuli/group1-block2/fake-group2-b2/encoded_Group2_IMG_9736.jpg,0,encoded_Group2_IMG_9736.jpg,,,,,,,,,0.0,10.0,10.0,10.0,,,,,,,,,,,,,,,599.0890985520091,None,,,1,0.0092177200131118,601.5715981659014,None,601.5715981659014,None,,,600.4045818750747,None,,,,,1,2022_Apr_07_1540,Real-fake-judgement-flashing-group1,2021.1.2
164,Trial # 12,Group1-stimuli/group1-block2/real-group1-b2/Group1_IMG_9867.jpg,1,Group1_IMG_9867.jpg,,,,,,,,,0.0,11.0,11.0,11.0,,,,,,,,,,,,,,,601.605183907086,None,,,0,0.4430155609734356,604.0737852689344,None,604.0737852689344,None,,,602.9219606390689,None,,,,,1,2022_Apr_07_1540,Real-fake-judgement-flashing-group1,2021.1.2
165,Trial # 13,Group1-stimuli/group1-block2/fake-group2-b2/encoded_Group2_IMG_9886.jpg,0,encoded_Group2_IMG_9886.jpg,,,,,,,,,0.0,12.0,12.0,12.0,,,,,,,,,,,,,,,604.5405733259395,None,,,0,0.333225981099531,607.0235143350437,None,607.0235143350437,None,,,605.8562988159247,None,,,,,1,2022_Apr_07_1540,Real-fake-judgement-flashing-group1,2021.1.2
166,Trial # 14,Group1-stimuli/group1-block2/fake-group2-b2/encoded_Group2_IMG_2245.jpg,0,encoded_Group2_IMG_2245.jpg,,,,,,,,,0.0,13.0,13.0,13.0,,,,,,,,,,,,,,,607.3898738359567,None,,,0,0.0910297110676765,609.8577851450536,None,609.8577851450536,None,,,608.6918783448637,None,,,,,1,2022_Apr_07_1540,Real-fake-judgement-flashing-group1,2021.1.2
167,Trial # 15,Group1-stimuli/group1-block2/fake-group2-b2/encoded_Group2_IMG_0507.jpg,0,encoded_Group2_IMG_0507.jpg,,,,,,,,,0.0,14.0,14.0,14.0,,,,,,,,,,,,,,,609.9749664310366,None,,,1,0.0676027468871325,612.4251241548918,None,612.4251241548918,None,,,611.2579242300708,None,,,,,1,2022_Apr_07_1540,Real-fake-judgement-flashing-group1,2021.1.2
168,Trial # 16,Group1-stimuli/group1-block2/fake-group2-b2/encoded_Group2_IMG_0338.jpg,0,encoded_Group2_IMG_0338.jpg,,,,,,,,,0.0,15.0,15.0,15.0,,,,,,,,,,,,,,,612.5251945240889,None,,,0,0.3071313230320811,614.9936856960412,None,614.9936856960412,None,,,613.8433056920767,None,,,,,1,2022_Apr_07_1540,Real-fake-judgement-flashing-group1,2021.1.2
169,Trial # 17,Group1-stimuli/group1-block2/real-group1-b2/Group1_IMG_0376.jpg,1,Group1_IMG_0376.jpg,,,,,,,,,0.0,16.0,16.0,16.0,,,,,,,,,,,,,,,615.3265317920595,None,,,0,0.2998541400302201,617.7928440149408,None,617.7928440149408,None,,,616.626269267872,None,,,,,1,2022_Apr_07_1540,Real-fake-judgement-flashing-group1,2021.1.2
170,Trial # 18,Group1-stimuli/group1-block2/real-group1-b2/Group1_IMG_9821.jpg,1,Group1_IMG_9821.jpg,,,,,,,,,0.0,17.0,17.0,17.0,,,,,,,,,,,,,,,618.1267161560245,None,,,0,1.0420280219987037,620.6107873860747,None,620.6107873860747,None,,,619.4283388250042,None,,,,,1,2022_Apr_07_1540,Real-fake-judgement-flashing-group1,2021.1.2
171,Trial # 19,Group1-stimuli/group1-block2/fake-group2-b2/encoded_Group2_IMG_0388.jpg,0,encoded_Group2_IMG_0388.jpg,,,,,,,,,0.0,18.0,18.0,18.0,,,,,,,,,,,,,,,621.6778087099083,None,,,1,0.1950176900718361,624.1458396839444,None,624.1458396839444,None,,,622.977807235904,None,,,,,1,2022_Apr_07_1540,Real-fake-judgement-flashing-group1,2021.1.2
172,Trial # 20,Group1-stimuli/group1-block2/fake-group2-b2/encoded_Group2_IMG_0222.jpg,0,encoded_Group2_IMG_0222.jpg,,,,,,,,,0.0,19.0,19.0,19.0,,,,,,,,,,,,,,,624.3635497700889,None,,,1,0.3334605530835688,626.8472682279535,None,626.8472682279535,None,,,625.6803298119921,None,,,,,1,2022_Apr_07_1540,Real-fake-judgement-flashing-group1,2021.1.2
173,Trial # 21,Group1-stimuli/group1-block2/fake-group2-b2/encoded_Group2_IMG_2215.jpg,0,encoded_Group2_IMG_2215.jpg,,,,,,,,,0.0,20.0,20.0,20.0,,,,,,,,,,,,,,,627.2136965519749,None,,,0,0.3877251581288874,629.6650852549355,None,629.6650852549355,None,,,628.4967370349914,None,,,,,1,2022_Apr_07_1540,Real-fake-judgement-flashing-group1,2021.1.2
174,Trial # 22,Group1-stimuli/group1-block2/real-group1-b2/Group1_IMG_9760.jpg,1,Group1_IMG_9760.jpg,,,,,,,,,0.0,21.0,21.0,21.0,,,,,,,,,,,,,,,630.0819804789498,None,,,1,0.2164770381059497,632.5643248169217,None,632.5643248169217,None,,,631.4142574060243,None,,,,,1,2022_Apr_07_1540,Real-fake-judgement-flashing-group1,2021.1.2
175,Trial # 23,Group1-stimuli/group1-block2/real-group1-b2/Group1_IMG_9897.jpg,1,Group1_IMG_9897.jpg,,,,,,,,,0.0,22.0,22.0,22.0,,,,,,,,,,,,,,,632.7991075480822,None,,,0,0.3146572271361947,635.2821898309048,None,635.2821898309048,None,,,634.1162246889435,None,,,,,1,2022_Apr_07_1540,Real-fake-judgement-flashing-group1,2021.1.2
176,Trial # 24,Group1-stimuli/group1-block2/real-group1-b2/Group1_IMG_4250.jpg,1,Group1_IMG_4250.jpg,,,,,,,,,0.0,23.0,23.0,23.0,,,,,,,,,,,,,,,635.6153582390398,None,,,1,0.2970904218964278,638.0997615130618,None,638.0997615130618,None,,,636.9325646089856,None,,,,,1,2022_Apr_07_1540,Real-fake-judgement-flashing-group1,2021.1.2
177,Trial # 25,Group1-stimuli/group1-block2/real-group1-b2/Group1_IMG_2244.jpg,1,Group1_IMG_2244.jpg,,,,,,,,,0.0,24.0,24.0,24.0,,,,,,,,,,,,,,,638.4165191538632,None,,,1,0.3677377288695425,640.8850798029453,None,640.8850798029453,None,,,639.7346497590188,None,,,,,1,2022_Apr_07_1540,Real-fake-judgement-flashing-group1,2021.1.2
178,Trial # 26,Group1-stimuli/group1-block2/fake-group2-b2/encoded_Group2_IMG_0501.jpg,0,encoded_Group2_IMG_0501.jpg,,,,,,,,,0.0,25.0,25.0,25.0,,,,,,,,,,,,,,,641.2845544798765,None,,,1,0.3890252080745995,643.7517831178848,None,643.7517831178848,None,,,642.5843472119886,None,,,,,1,2022_Apr_07_1540,Real-fake-judgement-flashing-group1,2021.1.2
179,Trial # 27,Group1-stimuli/group1-block2/real-group1-b2/Group1_IMG_9684.jpg,1,Group1_IMG_9684.jpg,,,,,,,,,0.0,26.0,26.0,26.0,,,,,,,,,,,,,,,644.1695545190014,None,,,0,0.2883934080600738,646.6524297969881,None,646.6524297969881,None,,,645.485724380007,None,,,,,1,2022_Apr_07_1540,Real-fake-judgement-flashing-group1,2021.1.2
180,Trial # 28,Group1-stimuli/group1-block2/real-group1-b2/Group1_IMG_1039.jpg,1,Group1_IMG_1039.jpg,,,,,,,,,0.0,27.0,27.0,27.0,,,,,,,,,,,,,,,646.9693230369594,None,,,1,0.2552479938603937,649.4535680019762,None,649.4535680019762,None,,,648.2855655578896,None,,,,,1,2022_Apr_07_1540,Real-fake-judgement-flashing-group1,2021.1.2
181,Trial # 29,Group1-stimuli/group1-block2/fake-group2-b2/encoded_Group2_IMG_0251.jpg,0,encoded_Group2_IMG_0251.jpg,,,,,,,,,0.0,28.0,28.0,28.0,,,,,,,,,,,,,,,649.7377419669647,None,,,0,0.3200651779770851,652.2207593589555,None,652.2207593589555,None,,,651.0703083949629,None,,,,,1,2022_Apr_07_1540,Real-fake-judgement-flashing-group1,2021.1.2
182,Trial # 30,Group1-stimuli/group1-block2/real-group1-b2/Group1_IMG_9692.jpg,1,Group1_IMG_9692.jpg,,,,,,,,,0.0,29.0,29.0,29.0,,,,,,,,,,,,,,,652.5717621028889,None,,,0,0.270120003959164,655.0387142628897,None,655.0387142628897,None,,,653.8723563069943,None,,,,,1,2022_Apr_07_1540,Real-fake-judgement-flashing-group1,2021.1.2
183,Trial # 31,Group1-stimuli/group1-block2/real-group1-b2/Group1_IMG_0512.jpg,1,Group1_IMG_0512.jpg,,,,,,,,,0.0,30.0,30.0,30.0,,,,,,,,,,,,,,,655.3396345439833,None,,,1,0.2463737609796226,657.8224414179567,None,657.8224414179567,None,,,656.6720135400537,None,,,,,1,2022_Apr_07_1540,Real-fake-judgement-flashing-group1,2021.1.2
184,Trial # 32,Group1-stimuli/group1-block2/fake-group2-b2/encoded_Group2_IMG_9673.jpg,0,encoded_Group2_IMG_9673.jpg,,,,,,,,,0.0,31.0,31.0,31.0,,,,,,,,,,,,,,,658.0886817129795,None,,,0,0.807391001842916,660.5734242398757,None,660.5734242398757,None,,,659.3908152710646,None,,,,,1,2022_Apr_07_1540,Real-fake-judgement-flashing-group1,2021.1.2
185,Trial # 33,Group1-stimuli/group1-block2/fake-group2-b2/encoded_Group2_IMG_5135.jpg,0,encoded_Group2_IMG_5135.jpg,,,,,,,,,0.0,32.0,32.0,32.0,,,,,,,,,,,,,,,661.4073799909092,None,,,1,0.2019756310619413,663.8748432178982,None,663.8748432178982,None,,,662.7072015278973,None,,,,,1,2022_Apr_07_1540,Real-fake-judgement-flashing-group1,2021.1.2
186,Trial # 34,Group1-stimuli/group1-block2/real-group1-b2/Group1_IMG_0396.jpg,1,Group1_IMG_0396.jpg,,,,,,,,,0.0,33.0,33.0,33.0,,,,,,,,,,,,,,,664.1081535259727,None,,,1,0.2456436930224299,666.5751719470136,None,666.5751719470136,None,,,665.4092101289425,None,,,,,1,2022_Apr_07_1540,Real-fake-judgement-flashing-group1,2021.1.2
187,Trial # 35,Group1-stimuli/group1-block2/real-group1-b2/Group1_IMG_4919.jpg,1,Group1_IMG_4919.jpg,,,,,,,,,0.0,34.0,34.0,34.0,,,,,,,,,,,,,,,666.8419948918745,None,,,1,0.1581203369423747,669.3106978980359,None,669.3106978980359,None,,,668.142219549045,None,,,,,1,2022_Apr_07_1540,Real-fake-judgement-flashing-group1,2021.1.2
188,Trial # 36,Group1-stimuli/group1-block2/real-group1-b2/Group1_IMG_0449.jpg,1,Group1_IMG_0449.jpg,,,,,,,,,0.0,35.0,35.0,35.0,,,,,,,,,,,,,,,669.4940397709142,None,,,1,0.3798882300034165,671.9769279009197,None,671.9769279009197,None,,,670.7930566419382,None,,,,,1,2022_Apr_07_1540,Real-fake-judgement-flashing-group1,2021.1.2
189,Trial # 37,Group1-stimuli/group1-block2/fake-group2-b2/encoded_Group2_IMG_0539.jpg,0,encoded_Group2_IMG_0539.jpg,,,,,,,,,0.0,36.0,36.0,36.0,,,,,,,,,,,,,,,672.3774916480761,None,,,0,0.4073460060171783,674.8454682528973,None,674.8454682528973,None,,,673.6604607789777,None,,,,,1,2022_Apr_07_1540,Real-fake-judgement-flashing-group1,2021.1.2
190,Trial # 38,Group1-stimuli/group1-block2/real-group1-b2/Group1_IMG_0453.jpg,1,Group1_IMG_0453.jpg,,,,,,,,,0.0,37.0,37.0,37.0,,,,,,,,,,,,,,,675.2778590710368,None,,,1,0.2348136140499264,677.7620026399381,None,677.7620026399381,None,,,676.5949406828731,None,,,,,1,2022_Apr_07_1540,Real-fake-judgement-flashing-group1,2021.1.2
191,Trial # 39,Group1-stimuli/group1-block2/fake-group2-b2/encoded_Group2_IMG_0318.jpg,0,encoded_Group2_IMG_0318.jpg,,,,,,,,,0.0,38.0,38.0,38.0,,,,,,,,,,,,,,,678.0290473760106,None,,,0,0.0374103288631886,680.4794041200075,None,680.4794041200075,None,,,679.3135316520929,None,,,,,1,2022_Apr_07_1540,Real-fake-judgement-flashing-group1,2021.1.2
192,Trial # 40,Group1-stimuli/group1-block2/real-group1-b2/Group1_IMG_1678.jpg,1,Group1_IMG_1678.jpg,,,,,,,,,0.0,39.0,39.0,39.0,,,,,,,,,,,,,,,680.5462287010159,None,,,0,0.0143915640655905,683.0303554299753,None,683.0303554299753,None,,,681.8629829529673,None,,,,,1,2022_Apr_07_1540,Real-fake-judgement-flashing-group1,2021.1.2
193,Trial # 41,Group1-stimuli/group1-block2/fake-group2-b2/encoded_Group2_IMG_0325.jpg,0,encoded_Group2_IMG_0325.jpg,,,,,,,,,0.0,40.0,40.0,40.0,,,,,,,,,,,,,,,683.0638182859402,None,,,0,0.8484674911014736,685.5323521920945,None,685.5323521920945,None,,,684.3817773258779,None,,,,,1,2022_Apr_07_1540,Real-fake-judgement-flashing-group1,2021.1.2
194,Trial # 42,Group1-stimuli/group1-block2/fake-group2-b2/encoded_Group2_IMG_9935.jpg,0,encoded_Group2_IMG_9935.jpg,,,,,,,,,0.0,41.0,41.0,41.0,,,,,,,,,,,,,,,686.3980456560384,None,,,0,0.3782815360464155,688.8665338400751,None,688.8665338400751,None,,,687.698332139058,None,,,,,1,2022_Apr_07_1540,Real-fake-judgement-flashing-group1,2021.1.2
195,Trial # 43,Group1-stimuli/group1-block2/fake-group2-b2/encoded_Group2_IMG_0308.jpg,0,encoded_Group2_IMG_0308.jpg,,,,,,,,,0.0,42.0,42.0,42.0,,,,,,,,,,,,,,,689.2658329480328,None,,,1,0.1037871390581131,691.7330282460898,None,691.7330282460898,None,,,690.5658645709045,None,,,,,1,2022_Apr_07_1540,Real-fake-judgement-flashing-group1,2021.1.2
196,Trial # 44,Group1-stimuli/group1-block2/real-group1-b2/Group1_IMG_0467.jpg,1,Group1_IMG_0467.jpg,,,,,,,,,0.0,43.0,43.0,43.0,,,,,,,,,,,,,,,691.8664224310778,None,,,1,0.045934499008581,694.3348605590872,None,694.3348605590872,None,,,693.1833780480083,None,,,,,1,2022_Apr_07_1540,Real-fake-judgement-flashing-group1,2021.1.2
197,Trial # 45,Group1-stimuli/group1-block2/fake-group2-b2/encoded_Group2_IMG_9839.jpg,0,encoded_Group2_IMG_9839.jpg,,,,,,,,,0.0,44.0,44.0,44.0,,,,,,,,,,,,,,,694.4014910659753,None,,,0,0.0325261650141328,696.8683079839684,None,696.8683079839684,None,,,695.7008354940917,None,,,,,1,2022_Apr_07_1540,Real-fake-judgement-flashing-group1,2021.1.2
198,Trial # 46,Group1-stimuli/group1-block2/fake-group2-b2/encoded_Group2_IMG_9681.jpg,0,encoded_Group2_IMG_9681.jpg,,,,,,,,,0.0,45.0,45.0,45.0,,,,,,,,,,,,,,,696.9186906330287,None,,,0,0.0343264250550419,699.3865099379327,None,699.3865099379327,None,,,698.2015140699223,None,,,,,1,2022_Apr_07_1540,Real-fake-judgement-flashing-group1,2021.1.2
199,Trial # 47,Group1-stimuli/group1-block2/fake-group2-b2/encoded_Group2_IMG_0458.jpg,0,encoded_Group2_IMG_0458.jpg,,,,,,,,,0.0,46.0,46.0,46.0,,,,,,,,,,,,,,,699.4534046039917,None,,,1,0.1815869251731783,701.9032641639933,None,701.9032641639933,None,,,700.7368789799511,None,,,,,1,2022_Apr_07_1540,Real-fake-judgement-flashing-group1,2021.1.2
200,Trial # 48,Group1-stimuli/group1-block2/real-group1-b2/Group1_IMG_1095.jpg,1,Group1_IMG_1095.jpg,,,,,,,,,0.0,47.0,47.0,47.0,,,,,,,,,,,,,,,702.1028632160742,None,,,1,0.0814733549486845,704.571260035038,None,704.571260035038,None,,,703.4031311729923,None,,,,,1,2022_Apr_07_1540,Real-fake-judgement-flashing-group1,2021.1.2
201,Trial # 49,Group1-stimuli/group1-block2/fake-group2-b2/encoded_Group2_IMG_9710.jpg,0,encoded_Group2_IMG_9710.jpg,,,,,,,,,0.0,48.0,48.0,48.0,,,,,,,,,,,,,,,704.6716488569509,None,,,0,0.1233269299846142,707.1375432300847,None,707.1375432300847,None,,,705.9706053389236,None,,,,,1,2022_Apr_07_1540,Real-fake-judgement-flashing-group1,2021.1.2
202,Trial # 50,Group1-stimuli/group1-block2/fake-group2-b2/encoded_Group2_IMG_9819.jpg,0,encoded_Group2_IMG_9819.jpg,,,,,,,,,0.0,49.0,49.0,49.0,,,,,,,,,,,,,,,707.288164252881,None,,,0,0.1843198740389198,709.756423518993,None,709.756423518993,None,,,708.587614639895,None,,,,,1,2022_Apr_07_1540,Real-fake-judgement-flashing-group1,2021.1.2
203,Trial # 51,Group1-stimuli/group1-block2/real-group1-b2/Group1_IMG_0064.jpg,1,Group1_IMG_0064.jpg,,,,,,,,,0.0,50.0,50.0,50.0,,,,,,,,,,,,,,,709.9723534039222,None,,,1,0.1248571469914168,712.4559587328695,None,712.4559587328695,None,,,711.2889196609613,None,,,,,1,2022_Apr_07_1540,Real-fake-judgement-flashing-group1,2021.1.2
204,Trial # 52,Group1-stimuli/group1-block2/fake-group2-b2/encoded_Group2_IMG_9756.jpg,0,encoded_Group2_IMG_9756.jpg,,,,,,,,,0.0,51.0,51.0,51.0,,,,,,,,,,,,,,,712.6062898139935,None,,,1,0.1140289928298443,715.0748416620772,None,715.0748416620772,None,,,713.9241899419576,None,,,,,1,2022_Apr_07_1540,Real-fake-judgement-flashing-group1,2021.1.2
205,Trial # 53,Group1-stimuli/group1-block2/fake-group2-b2/encoded_Group2_IMG_5888.jpg,0,encoded_Group2_IMG_5888.jpg,,,,,,,,,0.0,52.0,52.0,52.0,,,,,,,,,,,,,,,715.2081692379434,None,,,0,0.0991744049824774,717.6736262768973,None,717.6736262768973,None,,,716.507215376012,None,,,,,1,2022_Apr_07_1540,Real-fake-judgement-flashing-group1,2021.1.2
206,Trial # 54,Group1-stimuli/group1-block2/real-group1-b2/Group1_IMG_1476.jpg,1,Group1_IMG_1476.jpg,,,,,,,,,0.0,53.0,53.0,53.0,,,,,,,,,,,,,,,717.7917127360124,None,,,1,0.4168585289735347,720.2598885078914,None,720.2598885078914,None,,,719.1092294540722,None,,,,,1,2022_Apr_07_1540,Real-fake-judgement-flashing-group1,2021.1.2
207,Trial # 55,Group1-stimuli/group1-block2/real-group1-b2/Group1_IMG_1917.jpg,1,Group1_IMG_1917.jpg,,,,,,,,,0.0,54.0,54.0,54.0,,,,,,,,,,,,,,,720.7093864800408,None,,,0,0.1727067530155182,723.1761209410615,None,723.1761209410615,None,,,722.0084520580713,None,,,,,1,2022_Apr_07_1540,Real-fake-judgement-flashing-group1,2021.1.2
208,Trial # 56,Group1-stimuli/group1-block2/real-group1-b2/Group1_IMG_0413.jpg,1,Group1_IMG_0413.jpg,,,,,,,,,0.0,55.0,55.0,55.0,,,,,,,,,,,,,,,723.3764690449461,None,,,0,0.0645498698577284,725.8601926448755,None,725.8601926448755,None,,,724.6943761340808,None,,,,,1,2022_Apr_07_1540,Real-fake-judgement-flashing-group1,2021.1.2
209,Trial # 57,Group1-stimuli/group1-block2/real-group1-b2/Group1_IMG_1001.jpg,1,Group1_IMG_1001.jpg,,,,,,,,,0.0,56.0,56.0,56.0,,,,,,,,,,,,,,,725.9435540670529,None,,,1,0.4099090350791812,728.4109056529123,None,728.4109056529123,None,,,727.2438452520873,None,,,,,1,2022_Apr_07_1540,Real-fake-judgement-flashing-group1,2021.1.2
210,Trial # 58,Group1-stimuli/group1-block2/fake-group2-b2/encoded_Group2_IMG_0441.jpg,0,encoded_Group2_IMG_0441.jpg,,,,,,,,,0.0,57.0,57.0,57.0,,,,,,,,,,,,,,,728.845519898925,None,,,1,0.0689093200489878,731.311925857095,None,731.311925857095,None,,,730.1460738459136,None,,,,,1,2022_Apr_07_1540,Real-fake-judgement-flashing-group1,2021.1.2
211,Trial # 59,Group1-stimuli/group1-block2/real-group1-b2/Group1_IMG_9774.jpg,1,Group1_IMG_9774.jpg,,,,,,,,,0.0,58.0,58.0,58.0,,,,,,,,,,,,,,,731.4129381328821,None,,,0,0.0196729600429534,733.897144384915,None,733.897144384915,None,,,732.7286993348971,None,,,,,1,2022_Apr_07_1540,Real-fake-judgement-flashing-group1,2021.1.2
212,Trial # 60,Group1-stimuli/group1-block2/fake-group2-b2/encoded_Group2_IMG_2751.jpg,0,encoded_Group2_IMG_2751.jpg,,,,,,,,,0.0,59.0,59.0,59.0,,,,,,,,,,,,,,,733.9463615540881,None,,,0,0.0386143929790705,736.4302021588665,None,736.4302021588665,None,,,735.2475809708703,None,,,,,1,2022_Apr_07_1540,Real-fake-judgement-flashing-group1,2021.1.2
213,Trial # 61,Group1-stimuli/group1-block2/fake-group2-b2/encoded_Group2_IMG_0409.jpg,0,encoded_Group2_IMG_0409.jpg,,,,,,,,,0.0,60.0,60.0,60.0,,,,,,,,,,,,,,,736.4970378240105,None,,,0,0.015259888023138,738.9655962560792,None,738.9655962560792,None,,,737.7970430159476,None,,,,,1,2022_Apr_07_1540,Real-fake-judgement-flashing-group1,2021.1.2
214,Trial # 62,Group1-stimuli/group1-block2/real-group1-b2/Group1_IMG_1346.jpg,1,Group1_IMG_1346.jpg,,,,,,,,,0.0,61.0,61.0,61.0,,,,,,,,,,,,,,,738.9987977819983,None,,,1,0.6029740788508207,741.4818333908916,None,741.4818333908916,None,,,740.3157720470335,None,,,,,1,2022_Apr_07_1540,Real-fake-judgement-flashing-group1,2021.1.2
215,Trial # 63,Group1-stimuli/group1-block2/real-group1-b2/Group1_IMG_0481.jpg,1,Group1_IMG_0481.jpg,,,,,,,,,0.0,62.0,62.0,62.0,,,,,,,,,,,,,,,742.1155632960144,None,,,0,0.1809940729290247,744.5838239600416,None,744.5838239600416,None,,,743.4155182118993,None,,,,,1,2022_Apr_07_1540,Real-fake-judgement-flashing-group1,2021.1.2
216,Trial # 64,Group1-stimuli/group1-block2/fake-group2-b2/encoded_Group2_IMG_4718.jpg,0,encoded_Group2_IMG_4718.jpg,,,,,,,,,0.0,63.0,63.0,63.0,,,,,,,,,,,,,,,744.784189746948,None,,,0,0.2338976049795746,747.2668491760269,None,747.2668491760269,None,,,746.0997634329833,None,,,,,1,2022_Apr_07_1540,Real-fake-judgement-flashing-group1,2021.1.2
217,Trial # 65,Group1-stimuli/group1-block2/real-group1-b2/Group1_IMG_0540.jpg,1,Group1_IMG_0540.jpg,,,,,,,,,0.0,64.0,64.0,64.0,,,,,,,,,,,,,,,747.5339286578819,None,,,0,0.1705266968347132,750.0022884758655,None,750.0022884758655,None,,,748.8515602180269,None,,,,,1,2022_Apr_07_1540,Real-fake-judgement-flashing-group1,2021.1.2
218,Trial # 66,Group1-stimuli/group1-block2/fake-group2-b2/encoded_Group2_IMG_0166.jpg,0,encoded_Group2_IMG_0166.jpg,,,,,,,,,0.0,65.0,65.0,65.0,,,,,,,,,,,,,,,750.2013636529446,None,,,1,0.1523925401270389,752.6684879220556,None,752.6684879220556,None,,,751.5017162589356,None,,,,,1,2022_Apr_07_1540,Real-fake-judgement-flashing-group1,2021.1.2
219,Trial # 67,Group1-stimuli/group1-block2/fake-group2-b2/encoded_Group2_IMG_0412.jpg,0,encoded_Group2_IMG_0412.jpg,,,,,,,,,0.0,66.0,66.0,66.0,,,,,,,,,,,,,,,752.8519624550827,None,,,0,0.2129658868070691,755.3038400760852,None,755.3038400760852,None,,,754.1367323470768,None,,,,,1,2022_Apr_07_1540,Real-fake-judgement-flashing-group1,2021.1.2
220,Trial # 68,Group1-stimuli/group1-block2/real-group1-b2/Group1_IMG_0485.jpg,1,Group1_IMG_0485.jpg,,,,,,,,,0.0,67.0,67.0,67.0,,,,,,,,,,,,,,,755.5363267860375,None,,,0,0.2485906300134956,758.0201089598704,None,758.0201089598704,None,,,756.8530372378882,None,,,,,1,2022_Apr_07_1540,Real-fake-judgement-flashing-group1,2021.1.2
221,Trial # 69,Group1-stimuli/group1-block2/fake-group2-b2/encoded_Group2_IMG_1495.jpg,0,encoded_Group2_IMG_1495.jpg,,,,,,,,,0.0,68.0,68.0,68.0,,,,,,,,,,,,,,,758.2861216140445,None,,,1,0.1779639420565217,760.7708918650169,None,760.7708918650169,None,,,759.588419609936,None,,,,,1,2022_Apr_07_1540,Real-fake-judgement-flashing-group1,2021.1.2
222,Trial # 70,Group1-stimuli/group1-block2/real-group1-b2/Group1_IMG_0426.jpg,1,Group1_IMG_0426.jpg,,,,,,,,,0.0,69.0,69.0,69.0,,,,,,,,,,,,,,,760.9718938108999,None,,,1,0.2379009039141237,763.4389065799769,None,763.4389065799769,None,,,762.2714605790097,None,,,,,1,2022_Apr_07_1540,Real-fake-judgement-flashing-group1,2021.1.2
223,Trial # 71,Group1-stimuli/group1-block2/real-group1-b2/Group1_IMG_0349.jpg,1,Group1_IMG_0349.jpg,,,,,,,,,0.0,70.0,70.0,70.0,,,,,,,,,,,,,,,763.7053482839838,None,,,0,0.2075235510710626,766.1892843078822,None,766.1892843078822,None,,,765.0233726459555,None,,,,,1,2022_Apr_07_1540,Real-fake-judgement-flashing-group1,2021.1.2
224,Trial # 72,Group1-stimuli/group1-block2/real-group1-b2/Group1_IMG_0414.jpg,1,Group1_IMG_0414.jpg,,,,,,,,,0.0,71.0,71.0,71.0,,,,,,,,,,,,,,,766.4227747169789,None,,,0,0.2093491139821708,768.8914587518666,None,768.8914587518666,None,,,767.7229488128796,None,,,,,1,2022_Apr_07_1540,Real-fake-judgement-flashing-group1,2021.1.2
225,Trial # 73,Group1-stimuli/group1-block2/fake-group2-b2/encoded_Group2_IMG_9856.jpg,0,encoded_Group2_IMG_9856.jpg,,,,,,,,,0.0,72.0,72.0,72.0,,,,,,,,,,,,,,,769.1249561479781,None,,,0,0.0617835759185254,771.5910323208664,None,771.5910323208664,None,,,770.4239527119789,None,,,,,1,2022_Apr_07_1540,Real-fake-judgement-flashing-group1,2021.1.2
226,Trial # 74,Group1-stimuli/group1-block2/fake-group2-b2/encoded_Group2_IMG_5313.jpg,0,encoded_Group2_IMG_5313.jpg,,,,,,,,,0.0,73.0,73.0,73.0,,,,,,,,,,,,,,,771.6741964449175,None,,,0,0.3091025569010526,774.1597025129013,None,774.1597025129013,None,,,772.9746676948853,None,,,,,1,2022_Apr_07_1540,Real-fake-judgement-flashing-group1,2021.1.2
227,Trial # 75,Group1-stimuli/group1-block2/fake-group2-b2/encoded_Group2_IMG_0421.jpg,0,encoded_Group2_IMG_0421.jpg,,,,,,,,,0.0,74.0,74.0,74.0,,,,,,,,,,,,,,,774.4930771489162,None,,,0,0.1653881089296192,776.9594525438733,None,776.9594525438733,None,,,775.7921675508842,None,,,,,1,2022_Apr_07_1540,Real-fake-judgement-flashing-group1,2021.1.2
228,Trial # 76,Group1-stimuli/group1-block2/fake-group2-b2/encoded_Group2_IMG_0446.jpg,0,encoded_Group2_IMG_0446.jpg,,,,,,,,,0.0,75.0,75.0,75.0,,,,,,,,,,,,,,,777.1428512788843,None,,,0,0.0574095731135457,779.6114058250096,None,779.6114058250096,None,,,778.4261439230759,None,,,,,1,2022_Apr_07_1540,Real-fake-judgement-flashing-group1,2021.1.2
229,Trial # 77,Group1-stimuli/group1-block2/real-group1-b2/Group1_IMG_5999.jpg,1,Group1_IMG_5999.jpg,,,,,,,,,0.0,76.0,76.0,76.0,,,,,,,,,,,,,,,779.6939959828742,None,,,0,0.2748381968121975,782.17796834209,None,782.17796834209,None,,,781.0116285879631,None,,,,,1,2022_Apr_07_1540,Real-fake-judgement-flashing-group1,2021.1.2
230,Trial # 78,Group1-stimuli/group1-block2/real-group1-b2/Group1_IMG_0107.jpg,1,Group1_IMG_0107.jpg,,,,,,,,,0.0,77.0,77.0,77.0,,,,,,,,,,,,,,,782.4776203669608,None,,,0,0.0586406700313091,784.9461686538998,None,784.9461686538998,None,,,783.7792395178694,None,,,,,1,2022_Apr_07_1540,Real-fake-judgement-flashing-group1,2021.1.2
231,Trial # 79,Group1-stimuli/group1-block2/fake-group2-b2/encoded_Group2_IMG_0322.jpg,0,encoded_Group2_IMG_0322.jpg,,,,,,,,,0.0,78.0,78.0,78.0,,,,,,,,,,,,,,,785.0284583359025,None,,,0,0.0695126710925251,787.4792950588744,None,787.4792950588744,None,,,786.31178035005,None,,,,,1,2022_Apr_07_1540,Real-fake-judgement-flashing-group1,2021.1.2
232,Trial # 80,Group1-stimuli/group1-block2/fake-group2-b2/encoded_Group2_IMG_4255.jpg,0,encoded_Group2_IMG_4255.jpg,,,,,,,,,0.0,79.0,79.0,79.0,,,,,,,,,,,,,,,787.5788752438966,None,,,0,0.3576526108663529,790.0311780469492,None,790.0311780469492,None,,,788.8635363569483,None,,,,,1,2022_Apr_07_1540,Real-fake-judgement-flashing-group1,2021.1.2
233,Trial # 81,Group1-stimuli/group1-block2/fake-group2-b2/encoded_Group2_IMG_0219.jpg,0,encoded_Group2_IMG_0219.jpg,,,,,,,,,0.0,80.0,80.0,80.0,,,,,,,,,,,,,,,790.4137507879641,None,,,0,0.188008229015395,792.8807982988656,None,792.8807982988656,None,,,791.7137819558848,None,,,,,1,2022_Apr_07_1540,Real-fake-judgement-flashing-group1,2021.1.2
234,Trial # 82,Group1-stimuli/group1-block2/real-group1-b2/Group1_IMG_0548.jpg,1,Group1_IMG_0548.jpg,,,,,,,,,0.0,81.0,81.0,81.0,,,,,,,,,,,,,,,793.097894118866,None,,,0,0.1349036798346787,795.5818383388687,None,795.5818383388687,None,,,794.4159627759364,None,,,,,1,2022_Apr_07_1540,Real-fake-judgement-flashing-group1,2021.1.2
235,Trial # 83,Group1-stimuli/group1-block2/real-group1-b2/Group1_IMG_0229.jpg,1,Group1_IMG_0229.jpg,,,,,,,,,0.0,82.0,82.0,82.0,,,,,,,,,,,,,,,795.7487943419255,None,,,0,0.2364328480325639,798.2164178749081,None,798.2164178749081,None,,,797.0654308069497,None,,,,,1,2022_Apr_07_1540,Real-fake-judgement-flashing-group1,2021.1.2
236,Trial # 84,Group1-stimuli/group1-block2/fake-group2-b2/encoded_Group2_IMG_0365.jpg,0,encoded_Group2_IMG_0365.jpg,,,,,,,,,0.0,83.0,83.0,83.0,,,,,,,,,,,,,,,798.4820443340577,None,,,0,0.0939943690318614,800.9668044210412,None,800.9668044210412,None,,,799.7839625880588,None,,,,,1,2022_Apr_07_1540,Real-fake-judgement-flashing-group1,2021.1.2
237,Trial # 85,Group1-stimuli/group1-block2/real-group1-b2/Group1_IMG_9822.jpg,1,Group1_IMG_9822.jpg,,,,,,,,,0.0,84.0,84.0,84.0,,,,,,,,,,,,,,,801.0833348559681,None,,,0,0.2210482337977737,803.5677591168787,None,803.5677591168787,None,,,802.4003149860073,None,,,,,1,2022_Apr_07_1540,Real-fake-judgement-flashing-group1,2021.1.2
238,Trial # 86,Group1-stimuli/group1-block2/fake-group2-b2/encoded_Group2_IMG_0195.jpg,0,encoded_Group2_IMG_0195.jpg,,,,,,,,,0.0,85.0,85.0,85.0,,,,,,,,,,,,,,,803.8186049768701,None,,,1,0.0871256869286298,806.3016814258881,None,806.3016814258881,None,,,805.1192069319077,None,,,,,1,2022_Apr_07_1540,Real-fake-judgement-flashing-group1,2021.1.2
239,Trial # 87,Group1-stimuli/group1-block2/fake-group2-b2/encoded_Group2_IMG_0494.jpg,0,encoded_Group2_IMG_0494.jpg,,,,,,,,,0.0,86.0,86.0,86.0,,,,,,,,,,,,,,,806.4193020199891,None,,,0,0.2139132050797343,808.8868932239711,None,808.8868932239711,None,,,807.7183228819631,None,,,,,1,2022_Apr_07_1540,Real-fake-judgement-flashing-group1,2021.1.2
240,Trial # 88,Group1-stimuli/group1-block2/real-group1-b2/Group1_IMG_0509.jpg,1,Group1_IMG_0509.jpg,,,,,,,,,0.0,87.0,87.0,87.0,,,,,,,,,,,,,,,809.1194665809162,None,,,1,0.129392049042508,811.6034655729309,None,811.6034655729309,None,,,810.4207559169736,None,,,,,1,2022_Apr_07_1540,Real-fake-judgement-flashing-group1,2021.1.2
241,Trial # 89,Group1-stimuli/group1-block2/fake-group2-b2/encoded_Group2_IMG_8924.jpg,0,encoded_Group2_IMG_8924.jpg,,,,,,,,,0.0,88.0,88.0,88.0,,,,,,,,,,,,,,,811.7545723798685,None,,,0,0.1187359942123293,814.2220709880348,None,814.2220709880348,None,,,813.0536203940865,None,,,,,1,2022_Apr_07_1540,Real-fake-judgement-flashing-group1,2021.1.2
242,Trial # 90,Group1-stimuli/group1-block2/real-group1-b2/Group1_IMG_0360.jpg,1,Group1_IMG_0360.jpg,,,,,,,,,0.0,89.0,89.0,89.0,,,,,,,,,,,,,,,814.3718854088802,None,,,0,0.1657097649294883,816.8551065719221,None,816.8551065719221,None,,,815.6879098450299,None,,,,,1,2022_Apr_07_1540,Real-fake-judgement-flashing-group1,2021.1.2
243,Trial # 91,Group1-stimuli/group1-block2/fake-group2-b2/encoded_Group2_IMG_0523.jpg,0,encoded_Group2_IMG_0523.jpg,,,,,,,,,0.0,90.0,90.0,90.0,,,,,,,,,,,,,,,817.0384677259717,None,,,1,0.1616694240365177,819.5071232118644,None,819.5071232118644,None,,,818.3387118810788,None,,,,,1,2022_Apr_07_1540,Real-fake-judgement-flashing-group1,2021.1.2
244,Trial # 92,Group1-stimuli/group1-block2/real-group1-b2/Group1_IMG_0518.jpg,1,Group1_IMG_0518.jpg,,,,,,,,,0.0,91.0,91.0,91.0,,,,,,,,,,,,,,,819.6904570199549,None,,,1,0.144387599080801,822.1564204590395,None,822.1564204590395,None,,,820.9895899919793,None,,,,,1,2022_Apr_07_1540,Real-fake-judgement-flashing-group1,2021.1.2
245,Trial # 93,Group1-stimuli/group1-block2/fake-group2-b2/encoded_Group2_IMG_0372.jpg,0,encoded_Group2_IMG_0372.jpg,,,,,,,,,0.0,92.0,92.0,92.0,,,,,,,,,,,,,,,822.3238868280314,None,,,0,0.2128454728517681,824.7919617190491,None,824.7919617190491,None,,,823.6404359920416,None,,,,,1,2022_Apr_07_1540,Real-fake-judgement-flashing-group1,2021.1.2
246,Trial # 94,Group1-stimuli/group1-block2/fake-group2-b2/encoded_Group2_IMG_9761.jpg,0,encoded_Group2_IMG_9761.jpg,,,,,,,,,0.0,93.0,93.0,93.0,,,,,,,,,,,,,,,825.0253310368862,None,,,1,0.0016794039402157,827.4911426638719,None,827.4911426638719,None,,,826.3246151290368,None,,,,,1,2022_Apr_07_1540,Real-fake-judgement-flashing-group1,2021.1.2
247,Trial # 95,Group1-stimuli/group1-block2/real-group1-b2/Group1_IMG_2690.jpg,1,Group1_IMG_2690.jpg,,,,,,,,,0.0,94.0,94.0,94.0,,,,,,,,,,,,,,,827.525016337866,None,,,0,0.3152141280006617,829.9936016409192,None,829.9936016409192,None,,,828.8432159030344,None,,,,,1,2022_Apr_07_1540,Real-fake-judgement-flashing-group1,2021.1.2
248,Trial # 96,Group1-stimuli/group1-block2/real-group1-b2/Group1_IMG_9855.jpg,1,Group1_IMG_9855.jpg,,,,,,,,,0.0,95.0,95.0,95.0,,,,,,,,,,,,,,,830.3259475370869,None,,,0,0.1146643990650773,832.8100743088871,None,832.8100743088871,None,,,831.6427872290369,None,,,,,1,2022_Apr_07_1540,Real-fake-judgement-flashing-group1,2021.1.2
249,Trial # 97,Group1-stimuli/group1-block2/fake-group2-b2/encoded_Group2_IMG_0470.jpg,0,encoded_Group2_IMG_0470.jpg,,,,,,,,,0.0,96.0,96.0,96.0,,,,,,,,,,,,,,,832.94323772192,None,,,0,0.2255102479830384,835.3953081949148,None,835.3953081949148,None,,,834.228108674055,None,,,,,1,2022_Apr_07_1540,Real-fake-judgement-flashing-group1,2021.1.2
250,Trial # 98,Group1-stimuli/group1-block2/fake-group2-b2/encoded_Group2_IMG_1191.jpg,0,encoded_Group2_IMG_1191.jpg,,,,,,,,,0.0,97.0,97.0,97.0,,,,,,,,,,,,,,,835.6491922999267,None,,,1,0.0936095188371837,838.1111952369101,None,838.1111952369101,None,,,836.9445189090911,None,,,,,1,2022_Apr_07_1540,Real-fake-judgement-flashing-group1,2021.1.2
251,Trial # 99,Group1-stimuli/group1-block2/real-group1-b2/Group1_IMG_9937.jpg,1,Group1_IMG_9937.jpg,,,,,,,,,0.0,98.0,98.0,98.0,,,,,,,,,,,,,,,838.2286910288967,None,,,0,0.2438469161279499,840.6970086020883,None,840.6970086020883,None,,,839.5289490618743,None,,,,,1,2022_Apr_07_1540,Real-fake-judgement-flashing-group1,2021.1.2
252,Trial # 100,Group1-stimuli/group1-block2/fake-group2-b2/encoded_Group2_IMG_0106.jpg,0,encoded_Group2_IMG_0106.jpg,,,,,,,,,0.0,99.0,99.0,99.0,,,,,,,,,,,,,,,840.9623803109862,None,,,0,0.2630947281140834,843.4297110370826,None,843.4297110370826,None,,,842.2626663129777,None,,,,,1,2022_Apr_07_1540,Real-fake-judgement-flashing-group1,2021.1.2
253,Trial # 101,Group1-stimuli/group1-block2/real-group1-b2/Group1_IMG_2790.jpg,1,Group1_IMG_2790.jpg,,,,,,,,,0.0,100.0,100.0,100.0,,,,,,,,,,,,,,,843.7131649078801,None,,,0,0.0393302969168871,846.1974797109142,None,846.1974797109142,None,,,845.0150273740292,None,,,,,1,2022_Apr_07_1540,Real-fake-judgement-flashing-group1,2021.1.2
254,Trial # 102,Group1-stimuli/group1-block2/real-group1-b2/Group1_IMG_9792.jpg,1,Group1_IMG_9792.jpg,,,,,,,,,0.0,101.0,101.0,101.0,,,,,,,,,,,,,,,846.264045641059,None,,,0,0.0972017680760473,848.7476049549878,None,848.7476049549878,None,,,847.581092818873,None,,,,,1,2022_Apr_07_1540,Real-fake-judgement-flashing-group1,2021.1.2
255,Trial # 103,Group1-stimuli/group1-block2/real-group1-b2/Group1_IMG_1640.jpg,1,Group1_IMG_1640.jpg,,,,,,,,,0.0,102.0,102.0,102.0,,,,,,,,,,,,,,,848.8660318350885,None,,,1,0.0069932478945702,851.3498127760831,None,851.3498127760831,None,,,850.1664405260235,None,,,,,1,2022_Apr_07_1540,Real-fake-judgement-flashing-group1,2021.1.2
256,Trial # 104,Group1-stimuli/group1-block2/real-group1-b2/Group1_IMG_0033.jpg,1,Group1_IMG_0033.jpg,,,,,,,,,0.0,103.0,103.0,103.0,,,,,,,,,,,,,,,851.3832244330551,None,,,1,0.2249475258868187,853.8678594869561,None,853.8678594869561,None,,,852.6993098689709,None,,,,,1,2022_Apr_07_1540,Real-fake-judgement-flashing-group1,2021.1.2
257,Trial # 105,Group1-stimuli/group1-block2/real-group1-b2/Group1_IMG_0079.jpg,1,Group1_IMG_0079.jpg,,,,,,,,,0.0,104.0,104.0,104.0,,,,,,,,,,,,,,,854.1168590800371,None,,,0,1.2841533080209049,856.6005760589615,None,856.6005760589615,None,,,855.4348166259006,None,,,,,1,2022_Apr_07_1540,Real-fake-judgement-flashing-group1,2021.1.2
258,Trial # 106,Group1-stimuli/group1-block2/fake-group2-b2/encoded_Group2_IMG_9909.jpg,0,encoded_Group2_IMG_9909.jpg,,,,,,,,,0.0,105.0,105.0,105.0,,,,,,,,,,,,,,,857.917596454965,None,,,0,0.0984145810361951,860.3864129129797,None,860.3864129129797,None,,,859.2192256420385,None,,,,,1,2022_Apr_07_1540,Real-fake-judgement-flashing-group1,2021.1.2
259,Trial # 107,Group1-stimuli/group1-block2/fake-group2-b2/encoded_Group2_IMG_0398.jpg,0,encoded_Group2_IMG_0398.jpg,,,,,,,,,0.0,106.0,106.0,106.0,,,,,,,,,,,,,,,860.5030279920902,None,,,0,3.204115802887827,862.9526914379094,None,862.9526914379094,None,,,861.7862045359798,None,,,,,1,2022_Apr_07_1540,Real-fake-judgement-flashing-group1,2021.1.2
260,Trial # 108,Group1-stimuli/group1-block2/real-group1-b2/Group1_IMG_4268.jpg,1,Group1_IMG_4268.jpg,,,,,,,,,0.0,107.0,107.0,107.0,,,,,,,,,,,,,,,866.187561775092,None,,,1,0.262830656953156,868.6539989630692,None,868.6539989630692,None,,,867.4873523169663,None,,,,,1,2022_Apr_07_1540,Real-fake-judgement-flashing-group1,2021.1.2
261,Trial # 109,Group1-stimuli/group1-block2/fake-group2-b2/encoded_Group2_IMG_9321.jpg,0,encoded_Group2_IMG_9321.jpg,,,,,,,,,0.0,108.0,108.0,108.0,,,,,,,,,,,,,,,868.9389879000373,None,,,0,0.2402019090950489,871.3886045189574,None,871.3886045189574,None,,,870.2226167779882,None,,,,,1,2022_Apr_07_1540,Real-fake-judgement-flashing-group1,2021.1.2
262,Trial # 110,Group1-stimuli/group1-block2/fake-group2-b2/encoded_Group2_IMG_9964.jpg,0,encoded_Group2_IMG_9964.jpg,,,,,,,,,0.0,109.0,109.0,109.0,,,,,,,,,,,,,,,871.6563624548726,None,,,0,0.2808890771120786,874.1239337800071,None,874.1239337800071,None,,,872.9555824820418,None,,,,,1,2022_Apr_07_1540,Real-fake-judgement-flashing-group1,2021.1.2
263,Trial # 111,Group1-stimuli/group1-block2/real-group1-b2/Group1_IMG_0329.jpg,1,Group1_IMG_0329.jpg,,,,,,,,,0.0,110.0,110.0,110.0,,,,,,,,,,,,,,,874.4240636429749,None,,,0,0.3699390748515725,876.9068697120529,None,876.9068697120529,None,,,875.7397566509899,None,,,,,1,2022_Apr_07_1540,Real-fake-judgement-flashing-group1,2021.1.2
264,Trial # 112,Group1-stimuli/group1-block2/fake-group2-b2/encoded_Group2_IMG_0534.jpg,0,encoded_Group2_IMG_0534.jpg,,,,,,,,,0.0,111.0,111.0,111.0,,,,,,,,,,,,,,,877.3068034360185,None,,,0,0.3169508760329336,879.7757471180521,None,879.7757471180521,None,,,878.6070257648826,None,,,,,1,2022_Apr_07_1540,Real-fake-judgement-flashing-group1,2021.1.2
265,Trial # 113,Group1-stimuli/group1-block2/fake-group2-b2/encoded_Group2_IMG_0054.jpg,0,encoded_Group2_IMG_0054.jpg,,,,,,,,,0.0,112.0,112.0,112.0,,,,,,,,,,,,,,,880.1258780669887,None,,,0,0.2607896190602332,882.5920158000663,None,882.5920158000663,None,,,881.4249281459488,None,,,,,1,2022_Apr_07_1540,Real-fake-judgement-flashing-group1,2021.1.2
266,Trial # 114,Group1-stimuli/group1-block2/real-group1-b2/Group1_IMG_9979.jpg,1,Group1_IMG_9979.jpg,,,,,,,,,0.0,113.0,113.0,113.0,,,,,,,,,,,,,,,882.8753231349401,None,,,0,0.0289112378377467,885.3439443928655,None,885.3439443928655,None,,,884.1770171860699,None,,,,,1,2022_Apr_07_1540,Real-fake-judgement-flashing-group1,2021.1.2
267,Trial # 115,Group1-stimuli/group1-block2/real-group1-b2/Group1_IMG_0170.jpg,1,Group1_IMG_0170.jpg,,,,,,,,,0.0,114.0,114.0,114.0,,,,,,,,,,,,,,,885.3938953769393,None,,,1,1.935653151012957,887.877087072935,None,887.877087072935,None,,,886.709832760971,None,,,,,1,2022_Apr_07_1540,Real-fake-judgement-flashing-group1,2021.1.2
268,Trial # 116,Group1-stimuli/group1-block2/fake-group2-b2/encoded_Group2_IMG_0007.jpg,0,encoded_Group2_IMG_0007.jpg,,,,,,,,,0.0,115.0,115.0,115.0,,,,,,,,,,,,,,,889.845471417997,None,,,1,0.4288499800022691,892.2959575769491,None,892.2959575769491,None,,,891.1275974849705,None,,,,,1,2022_Apr_07_1540,Real-fake-judgement-flashing-group1,2021.1.2
269,Trial # 117,Group1-stimuli/group1-block2/real-group1-b2/Group1_IMG_0192.jpg,1,Group1_IMG_0192.jpg,,,,,,,,,0.0,116.0,116.0,116.0,,,,,,,,,,,,,,,892.7449950389564,None,,,1,0.0069944350980222,895.2138093500398,None,895.2138093500398,None,,,894.0632610279135,None,,,,,1,2022_Apr_07_1540,Real-fake-judgement-flashing-group1,2021.1.2
270,Trial # 118,Group1-stimuli/group1-block2/real-group1-b2/Group1_IMG_9786.jpg,1,Group1_IMG_9786.jpg,,,,,,,,,0.0,117.0,117.0,117.0,,,,,,,,,,,,,,,895.2463238970377,None,,,1,0.0107412110082805,897.730065862881,None,897.730065862881,None,,,896.5627117638942,None,,,,,1,2022_Apr_07_1540,Real-fake-judgement-flashing-group1,2021.1.2
271,Trial # 119,Group1-stimuli/group1-block2/real-group1-b2/Group1_IMG_0187.jpg,1,Group1_IMG_0187.jpg,,,,,,,,,0.0,118.0,118.0,118.0,,,,,,,,,,,,,,,897.7632521709893,None,,,1,0.5009101079776883,900.2318253309932,None,900.2318253309932,None,,,899.0814988280181,None,,,,,1,2022_Apr_07_1540,Real-fake-judgement-flashing-group1,2021.1.2
272,Trial # 120,Group1-stimuli/group1-block2/fake-group2-b2/encoded_Group2_IMG_0249.jpg,0,encoded_Group2_IMG_0249.jpg,,,,,,,,,0.0,119.0,119.0,119.0,,,,,,,,,,,,,,,900.7655680740718,None,,,0,0.012395640136674,903.2484186880756,None,903.2484186880756,None,,,902.0813786550424,None,,,,,1,2022_Apr_07_1540,Real-fake-judgement-flashing-group1,2021.1.2
273,Trial # 121,Group1-stimuli/group1-block2/fake-group2-b2/encoded_Group2_IMG_0074.jpg,0,encoded_Group2_IMG_0074.jpg,,,,,,,,,0.0,120.0,120.0,120.0,,,,,,,,,,,,,,,903.2821368069854,None,,,1,0.0636309080291539,905.7491762479768,None,905.7491762479768,None,,,904.5999868880026,None,,,,,1,2022_Apr_07_1540,Real-fake-judgement-flashing-group1,2021.1.2
274,Trial # 122,Group1-stimuli/group1-block2/real-group1-b2/Group1_IMG_0243.jpg,1,Group1_IMG_0243.jpg,,,,,,,,,0.0,121.0,121.0,121.0,,,,,,,,,,,,,,,905.8323454940692,None,,,0,0.5923526920378208,908.316469729878,None,908.316469729878,None,,,907.1494758899788,None,,,,,1,2022_Apr_07_1540,Real-fake-judgement-flashing-group1,2021.1.2
275,Trial # 123,Group1-stimuli/group1-block2/real-group1-b2/Group1_IMG_0130.jpg,1,Group1_IMG_0130.jpg,,,,,,,,,0.0,122.0,122.0,122.0,,,,,,,,,,,,,,,908.9339492360596,None,,,0,0.043265518033877,911.4175502990838,None,911.4175502990838,None,,,910.2516342878808,None,,,,,1,2022_Apr_07_1540,Real-fake-judgement-flashing-group1,2021.1.2
276,Trial # 124,Group1-stimuli/group1-block2/real-group1-b2/Group1_IMG_0298.jpg,1,Group1_IMG_0298.jpg,,,,,,,,,0.0,123.0,123.0,123.0,,,,,,,,,,,,,,,911.4843281859066,None,,,1,0.1071381249930709,913.9696691099088,None,913.9696691099088,None,,,912.8013630800416,None,,,,,1,2022_Apr_07_1540,Real-fake-judgement-flashing-group1,2021.1.2
277,Trial # 125,Group1-stimuli/group1-block2/real-group1-b2/Group1_IMG_5871.jpg,1,Group1_IMG_5871.jpg,,,,,,,,,0.0,124.0,124.0,124.0,,,,,,,,,,,,,,,914.1028457630892,None,,,0,0.2996967381332069,916.5691170310602,None,916.5691170310602,None,,,915.4032693649642,None,,,,,1,2022_Apr_07_1540,Real-fake-judgement-flashing-group1,2021.1.2
278,Trial # 126,Group1-stimuli/group1-block2/fake-group2-b2/encoded_Group2_IMG_0479.jpg,0,encoded_Group2_IMG_0479.jpg,,,,,,,,,0.0,125.0,125.0,125.0,,,,,,,,,,,,,,,916.8856486359144,None,,,0,0.2990232650190592,919.3536986850668,None,919.3536986850668,None,,,918.3191086458974,None,,,,,1,2022_Apr_07_1540,Real-fake-judgement-flashing-group1,2021.1.2
279,Trial # 127,Group1-stimuli/group1-block2/fake-group2-b2/encoded_Group2_IMG_4971.jpg,0,encoded_Group2_IMG_4971.jpg,,,,,,,,,0.0,126.0,126.0,126.0,,,,,,,,,,,,,,,919.6713227909058,None,,,1,0.051198141882196,922.1375975350384,None,922.1375975350384,None,,,920.9704653569496,None,,,,,1,2022_Apr_07_1540,Real-fake-judgement-flashing-group1,2021.1.2
280,Trial # 128,Group1-stimuli/group1-block2/real-group1-b2/Group1_IMG_0173.jpg,1,Group1_IMG_0173.jpg,,,,,,,,,0.0,127.0,127.0,127.0,,,,,,,,,,,,,,,922.220697783865,None,,,0,0.0510758459568023,924.689670705935,None,924.689670705935,None,,,923.5212340049912,None,,,,,1,2022_Apr_07_1540,Real-fake-judgement-flashing-group1,2021.1.2
281,Trial # 129,Group1-stimuli/group1-block2/real-group1-b2/Group1_IMG_0213.jpg,1,Group1_IMG_0213.jpg,,,,,,,,,0.0,128.0,128.0,128.0,,,,,,,,,,,,,,,924.772504112916,None,,,0,0.1483768180478364,927.2724591770676,None,927.2724591770676,None,,,926.0896599949338,None,,,,,1,2022_Apr_07_1540,Real-fake-judgement-flashing-group1,2021.1.2
282,Trial # 130,Group1-stimuli/group1-block2/fake-group2-b2/encoded_Group2_IMG_0260.jpg,0,encoded_Group2_IMG_0260.jpg,,,,,,,,,0.0,129.0,129.0,129.0,,,,,,,,,,,,,,,927.4386375329924,None,,,1,0.0976131740026176,929.9070969610476,None,929.9070969610476,None,,,928.7557120660786,None,,,,,1,2022_Apr_07_1540,Real-fake-judgement-flashing-group1,2021.1.2
283,Trial # 131,Group1-stimuli/group1-block2/fake-group2-b2/encoded_Group2_IMG_7291.jpg,0,encoded_Group2_IMG_7291.jpg,,,,,,,,,0.0,130.0,130.0,130.0,,,,,,,,,,,,,,,930.0238145119512,None,,,0,0.4095157890114933,932.5072922499384,None,932.5072922499384,None,,,931.3405657669064,None,,,,,1,2022_Apr_07_1540,Real-fake-judgement-flashing-group1,2021.1.2
284,Trial # 132,Group1-stimuli/group1-block2/fake-group2-b2/encoded_Group2_IMG_0176.jpg,0,encoded_Group2_IMG_0176.jpg,,,,,,,,,0.0,131.0,131.0,131.0,,,,,,,,,,,,,,,932.9407545998693,None,,,0,0.1151320410426706,935.4096029680222,None,935.4096029680222,None,,,934.2591785080732,None,,,,,1,2022_Apr_07_1540,Real-fake-judgement-flashing-group1,2021.1.2
285,Trial # 133,Group1-stimuli/group1-block2/real-group1-b2/Group1_IMG_9699.jpg,1,Group1_IMG_9699.jpg,,,,,,,,,0.0,132.0,132.0,132.0,,,,,,,,,,,,,,,935.5428470729383,None,,,0,0.1308262210804969,938.0259237228892,None,938.0259237228892,None,,,936.8588378250132,None,,,,,1,2022_Apr_07_1540,Real-fake-judgement-flashing-group1,2021.1.2
286,Trial # 134,Group1-stimuli/group1-block2/real-group1-b2/Group1_IMG_0381.jpg,1,Group1_IMG_0381.jpg,,,,,,,,,0.0,133.0,133.0,133.0,,,,,,,,,,,,,,,938.1762817110866,None,,,0,0.2496476899832487,940.6430752540472,None,940.6430752540472,None,,,939.4940238508862,None,,,,,1,2022_Apr_07_1540,Real-fake-judgement-flashing-group1,2021.1.2
287,Trial # 135,Group1-stimuli/group1-block2/real-group1-b2/Group1_IMG_0309.jpg,1,Group1_IMG_0309.jpg,,,,,,,,,0.0,134.0,134.0,134.0,,,,,,,,,,,,,,,940.9114206449594,None,,,1,0.2113170891534537,943.3774904669262,None,943.3774904669262,None,,,942.226788304979,None,,,,,1,2022_Apr_07_1540,Real-fake-judgement-flashing-group1,2021.1.2
288,Trial # 136,Group1-stimuli/group1-block2/fake-group2-b2/encoded_Group2_IMG_0041.jpg,0,encoded_Group2_IMG_0041.jpg,,,,,,,,,0.0,135.0,135.0,135.0,,,,,,,,,,,,,,,943.6107944380492,None,,,1,0.2537519189063459,946.0950560220516,None,946.0950560220516,None,,,944.8957169349304,None,,,,,1,2022_Apr_07_1540,Real-fake-judgement-flashing-group1,2021.1.2
289,Trial # 137,Group1-stimuli/group1-block2/real-group1-b2/Group1_IMG_0303.jpg,1,Group1_IMG_0303.jpg,,,,,,,,,0.0,136.0,136.0,136.0,,,,,,,,,,,,,,,946.3783048759216,None,,,1,0.0219872200395911,948.862821174087,None,948.862821174087,None,,,947.6949012330732,None,,,,,1,2022_Apr_07_1540,Real-fake-judgement-flashing-group1,2021.1.2
290,Trial # 138,Group1-stimuli/group1-block2/fake-group2-b2/encoded_Group2_IMG_0419.jpg,0,encoded_Group2_IMG_0419.jpg,,,,,,,,,0.0,137.0,137.0,137.0,,,,,,,,,,,,,,,948.9127152240836,None,,,0,0.1201275680214166,951.39668049803,None,951.39668049803,None,,,950.2308862640056,None,,,,,1,2022_Apr_07_1540,Real-fake-judgement-flashing-group1,2021.1.2
291,Trial # 139,Group1-stimuli/group1-block2/real-group1-b2/Group1_IMG_0384.jpg,1,Group1_IMG_0384.jpg,,,,,,,,,0.0,138.0,138.0,138.0,,,,,,,,,,,,,,,951.5462320989463,None,,,1,0.2055078390985727,954.0152996690013,None,954.0152996690013,None,,,952.8636026249732,None,,,,,1,2022_Apr_07_1540,Real-fake-judgement-flashing-group1,2021.1.2
292,Trial # 140,Group1-stimuli/group1-block2/real-group1-b2/Group1_IMG_0147.jpg,1,Group1_IMG_0147.jpg,,,,,,,,,0.0,139.0,139.0,139.0,,,,,,,,,,,,,,,954.2480336790904,None,,,1,0.249251649947837,956.7315652270336,None,956.7315652270336,None,,,955.5656719228718,None,,,,,1,2022_Apr_07_1540,Real-fake-judgement-flashing-group1,2021.1.2
293,Trial # 141,Group1-stimuli/group1-block2/real-group1-b2/Group1_IMG_9725.jpg,1,Group1_IMG_9725.jpg,,,,,,,,,0.0,140.0,140.0,140.0,,,,,,,,,,,,,,,956.9982407330536,None,,,1,0.266687637893483,959.4661318890284,None,959.4661318890284,None,,,958.3154581130948,None,,,,,1,2022_Apr_07_1540,Real-fake-judgement-flashing-group1,2021.1.2
294,Trial # 142,Group1-stimuli/group1-block2/real-group1-b2/Group1_IMG_0341.jpg,1,Group1_IMG_0341.jpg,,,,,,,,,0.0,141.0,141.0,141.0,,,,,,,,,,,,,,,959.7495320029556,None,,,1,0.1315057931933552,962.2332120600622,None,962.2332120600622,None,,,961.0663903139066,None,,,,,1,2022_Apr_07_1540,Real-fake-judgement-flashing-group1,2021.1.2
