,Trial_num,image_path,ground_truth,image_name,demos.thisRepN,demos.thisTrialN,demos.thisN,demos.thisIndex,block_1.thisRepN,block_1.thisTrialN,block_1.thisN,block_1.thisIndex,block_2.thisRepN,block_2.thisTrialN,block_2.thisN,block_2.thisIndex,text_3.started,text_3.stopped,Task.started,Task.stopped,text_10.started,text_10.stopped,key_resp.keys,key_resp.rt,key_resp.started,key_resp.stopped,image_2.started,image_2.stopped,text_5.started,text_5.stopped,image_3.started,image_3.stopped,text_6.started,text_6.stopped,translucency.started,translucency.stopped,see_throughness.started,see_throughness.stopped,glow.started,glow.stopped,key_resp_10.keys,key_resp_10.rt,key_resp_10.started,key_resp_10.stopped,instruction.started,instruction.stopped,text_12.started,text_12.stopped,Trial_number.started,Trial_number.stopped,image.started,image.stopped,Instruction.started,Instruction.stopped,translucency_score.response,translucency_score.rt,translucency_score.started,translucency_score.stopped,Translucency.started,Translucency.stopped,seethroughness_score.response,seethroughness_score.rt,seethroughness_score.started,seethroughness_score.stopped,SeeThroughness.started,SeeThroughness.stopped,glow_score.response,glow_score.rt,glow_score.started,glow_score.stopped,Glow.started,Glow.stopped,to_next.keys,to_next.rt,to_next.started,to_next.stopped,grading_label_left.started,grading_label_left.stopped,grading_label_right.started,grading_label_right.stopped,instruct1.started,instruct1.stopped,instruct2.started,instruct2.stopped,text_4.started,text_4.stopped,text_2.started,text_2.stopped,session,date,expName,psychopyVersion,frameRate,Unnamed: 94
0,,,,,,,,,,,,,,,,,11.67700168202282,None,24.39655610200134,None,30.93264336301945,None,space,191.46458203700604,35.90144241199596,None,,,,,,,,,,,,,,,,,,,,,,,,,,,,,,,,,,,,,,,,,,,,,,,,,,,,,,,,,,,,,,,1,2022_Mar_25_1047,SAR-soap,2021.1.2,60.04389544147644,
1,,,,,,,,,,,,,,,,,,,,,,,,,,,227.8598745909985,None,227.8598745909985,None,234.5279012300016,None,234.5279012300016,None,243.31399888099983,None,243.31399888099983,None,243.31399888099983,None,space,8.27601832000073,243.31399888099983,None,,,,,,,,,,,,,,,,,,,,,,,,,,,,,,,,,,,,,,,,,,,,,1,2022_Mar_25_1047,SAR-soap,2021.1.2,60.04389544147644,
2,Demo 1,demo/Demo_IMG_0974.jpg,demo,Demo_IMG_0974.jpg,0.0,0.0,0.0,0.0,,,,,,,,,,,,,,,,,,,,,,,,,,,,,,,,,,,,,243.31399888099983,None,251.61703462002333,None,253.967600908014,None,253.967600908014,None,253.967600908014,None,5.0,15.160848825995345,253.967600908014,None,253.967600908014,None,3.0,21.20267337100813,262.9041197860206,None,253.967600908014,None,6.0,23.942279087001225,274.7087683510035,None,253.967600908014,None,space,2.709741263010073,23.96277498014388,None,253.967600908014,None,253.967600908014,None,,,,,,,,,1,2022_Mar_25_1047,SAR-soap,2021.1.2,60.04389544147644,
3,Demo 2,demo/Demo_IMG_1024.jpg,demo,Demo_IMG_1024.jpg,0.0,1.0,1.0,1.0,,,,,,,,,,,,,,,,,,,,,,,,,,,,,,,,,,,,,,,,,280.72692636199645,None,280.72692636199645,None,280.72692636199645,None,1.0,3.349619877000805,280.72692636199645,None,280.72692636199645,None,1.0,4.705992875009542,283.6276018730132,None,280.72692636199645,None,1.0,5.546781320008449,284.99513576499885,None,280.72692636199645,None,space,0.4346017729840241,5.574968076398363,None,280.72692636199645,None,280.72692636199645,None,,,,,,,,,1,2022_Mar_25_1047,SAR-soap,2021.1.2,60.04389544147644,
4,Demo 3,demo/Demo_seed_80003.png,demo,Demo_seed_80003.png,0.0,2.0,2.0,2.0,,,,,,,,,,,,,,,,,,,,,,,,,,,,,,,,,,,,,,,,,286.84497120801825,None,286.84497120801825,None,286.84497120801825,None,3.0,3.7397579249809496,286.84497120801825,None,286.84497120801825,None,2.0,7.362626274989452,290.12961040702066,None,286.84497120801825,None,5.0,11.436790968000423,293.76352558500366,None,286.84497120801825,None,space,0.9273611179960426,11.458466376498109,None,286.84497120801825,None,286.84497120801825,None,,,,,,,,,1,2022_Mar_25_1047,SAR-soap,2021.1.2,60.04389544147644,
5,Trial # 1,Group1-stimuli/group1-block1/real-group1-b1/Group1_IMG_0022.jpg,1,Group1_IMG_0022.jpg,,,,,0.0,0.0,0.0,0.0,,,,,,,,,,,,,,,,,,,,,,,,,,,,,,,,,,,,,308.734461013024,None,308.734461013024,None,308.734461013024,None,1.0,3.316320682992228,308.734461013024,None,308.734461013024,None,1.0,4.271922032989096,311.6035869590123,None,308.734461013024,None,1.0,8.045787899987772,312.5693264210131,None,308.734461013024,None,space,0.8295169060002081,8.077155237435363,None,308.734461013024,None,308.734461013024,None,299.23185505199945,None,299.23185505199945,None,299.23185505199945,None,,,1,2022_Mar_25_1047,SAR-soap,2021.1.2,60.04389544147644,
6,Trial # 2,Group1-stimuli/group1-block1/fake-group2-b1/encoded_Group2_IMG_0386.jpg,0,encoded_Group2_IMG_0386.jpg,,,,,0.0,1.0,1.0,1.0,,,,,,,,,,,,,,,,,,,,,,,,,,,,,,,,,,,,,317.6882683960139,None,317.6882683960139,None,317.6882683960139,None,2.0,4.859574612986762,317.6882683960139,None,317.6882683960139,None,2.0,8.584027328004595,322.0892082680075,None,317.6882683960139,None,3.0,10.356887471018126,325.82362110100803,None,317.6882683960139,None,space,0.2644458590075373,10.379926710680593,None,317.6882683960139,None,317.6882683960139,None,,,,,,,,,1,2022_Mar_25_1047,SAR-soap,2021.1.2,60.04389544147644,
7,Trial # 3,Group1-stimuli/group1-block1/real-group1-b1/Group1_IMG_9704.jpg,1,Group1_IMG_9704.jpg,,,,,0.0,2.0,2.0,2.0,,,,,,,,,,,,,,,,,,,,,,,,,,,,,,,,,,,,,328.3572219310154,None,328.3572219310154,None,328.3572219310154,None,1.0,2.210314833006123,328.3572219310154,None,328.3572219310154,None,1.0,2.9656769639987037,330.1089472680178,None,328.3572219310154,None,1.0,3.7377197339956174,330.87632069402025,None,328.3572219310154,None,space,0.1812978489906527,3.761442102782894,None,328.3572219310154,None,328.3572219310154,None,,,,,,,,,1,2022_Mar_25_1047,SAR-soap,2021.1.2,60.04389544147644,
8,Trial # 4,Group1-stimuli/group1-block1/real-group1-b1/Group1_IMG_0406.jpg,1,Group1_IMG_0406.jpg,,,,,0.0,3.0,3.0,3.0,,,,,,,,,,,,,,,,,,,,,,,,,,,,,,,,,,,,,332.35966420700424,None,332.35966420700424,None,332.35966420700424,None,2.0,3.991917457984528,332.35966420700424,None,332.35966420700424,None,2.0,6.080875326995738,335.89468581799883,None,332.35966420700424,None,2.0,7.920623290992808,337.9947365180124,None,332.35966420700424,None,space,0.138249428011477,7.943205175717594,None,332.35966420700424,None,332.35966420700424,None,,,,,,,,,1,2022_Mar_25_1047,SAR-soap,2021.1.2,60.04389544147644,
9,Trial # 5,Group1-stimuli/group1-block1/fake-group2-b1/encoded_Group2_IMG_0364.jpg,0,encoded_Group2_IMG_0364.jpg,,,,,0.0,4.0,4.0,4.0,,,,,,,,,,,,,,,,,,,,,,,,,,,,,,,,,,,,,340.49555756000336,None,340.49555756000336,None,340.49555756000336,None,1.0,1.8422717089997604,340.49555756000336,None,340.49555756000336,None,1.0,2.664796683995519,341.8789102380106,None,340.49555756000336,None,1.0,3.670568167988677,342.7119655900169,None,340.49555756000336,None,space,0.2069573159969877,3.69327850380796,None,340.49555756000336,None,340.49555756000336,None,,,,,,,,,1,2022_Mar_25_1047,SAR-soap,2021.1.2,60.04389544147644,
10,Trial # 6,Group1-stimuli/group1-block1/fake-group2-b1/encoded_Group2_IMG_0407.jpg,0,encoded_Group2_IMG_0407.jpg,,,,,0.0,5.0,5.0,5.0,,,,,,,,,,,,,,,,,,,,,,,,,,,,,,,,,,,,,344.44618895600433,None,344.44618895600433,None,344.44618895600433,None,1.0,1.779848264006432,344.44618895600433,None,344.44618895600433,None,1.0,2.3025783880148083,345.7804922380019,None,344.44618895600433,None,1.0,3.0080932500131894,346.31434816500405,None,344.44618895600433,None,space,0.5139485120016616,3.033054463681765,None,344.44618895600433,None,344.44618895600433,None,,,,,,,,,1,2022_Mar_25_1047,SAR-soap,2021.1.2,60.04389544147644,
11,Trial # 7,Group1-stimuli/group1-block1/real-group1-b1/Group1_IMG_0428.jpg,1,Group1_IMG_0428.jpg,,,,,0.0,6.0,6.0,6.0,,,,,,,,,,,,,,,,,,,,,,,,,,,,,,,,,,,,,348.064006591012,None,348.064006591012,None,348.064006591012,None,4.0,2.511081106000347,348.064006591012,None,348.064006591012,None,5.0,4.101282851013821,350.1157242160116,None,348.064006591012,None,4.0,8.239657803002046,351.7159458180249,None,348.064006591012,None,space,0.3572870790085289,8.265612620685715,None,348.064006591012,None,348.064006591012,None,,,,,,,,,1,2022_Mar_25_1047,SAR-soap,2021.1.2,60.04389544147644,
12,Trial # 8,Group1-stimuli/group1-block1/fake-group2-b1/encoded_Group2_IMG_0474.jpg,0,encoded_Group2_IMG_0474.jpg,,,,,0.0,7.0,7.0,7.0,,,,,,,,,,,,,,,,,,,,,,,,,,,,,,,,,,,,,356.7159967540065,None,356.7159967540065,None,356.7159967540065,None,1.0,1.9283333609928377,356.7159967540065,None,356.7159967540065,None,1.0,2.9498884709901176,358.1836013070133,None,356.7159967540065,None,1.0,3.8240778420004062,359.21656785401865,None,356.7159967540065,None,space,0.1785201430029701,3.849744724808261,None,356.7159967540065,None,356.7159967540065,None,,,,,,,,,1,2022_Mar_25_1047,SAR-soap,2021.1.2,60.04389544147644,
13,Trial # 9,Group1-stimuli/group1-block1/fake-group2-b1/encoded_Group2_IMG_1506.jpg,0,encoded_Group2_IMG_1506.jpg,,,,,0.0,8.0,8.0,8.0,,,,,,,,,,,,,,,,,,,,,,,,,,,,,,,,,,,,,360.78456956901937,None,360.78456956901937,None,360.78456956901937,None,6.0,3.3631795780092943,360.78456956901937,None,360.78456956901937,None,6.0,5.82129497799906,363.7022116950248,None,360.78456956901937,None,2.0,7.925483637984144,366.1696889309969,None,360.78456956901937,None,space,1.9453022709931247,7.9546757276693825,None,360.78456956901937,None,360.78456956901937,None,,,,,,,,,1,2022_Mar_25_1047,SAR-soap,2021.1.2,60.04389544147644,
14,Trial # 10,Group1-stimuli/group1-block1/real-group1-b1/Group1_IMG_9789.jpg,1,Group1_IMG_9789.jpg,,,,,0.0,9.0,9.0,9.0,,,,,,,,,,,,,,,,,,,,,,,,,,,,,,,,,,,,,370.7381050100085,None,370.7381050100085,None,370.7381050100085,None,1.0,2.008463024016237,370.7381050100085,None,370.7381050100085,None,1.0,2.63171633600723,372.2885945629969,None,370.7381050100085,None,1.0,3.202843007980846,372.9220274260151,None,370.7381050100085,None,space,0.1033346159965731,3.224150200810982,None,370.7381050100085,None,370.7381050100085,None,,,,,,,,,1,2022_Mar_25_1047,SAR-soap,2021.1.2,60.04389544147644,
15,Trial # 11,Group1-stimuli/group1-block1/real-group1-b1/Group1_IMG_9778.jpg,1,Group1_IMG_9778.jpg,,,,,0.0,10.0,10.0,10.0,,,,,,,,,,,,,,,,,,,,,,,,,,,,,,,,,,,,,374.1218816050096,None,374.1218816050096,None,374.1218816050096,None,5.0,2.8696683890011627,374.1218816050096,None,374.1218816050096,None,5.0,4.326413918024628,376.5399134670152,None,374.1218816050096,None,3.0,5.897900911979377,378.0060592240188,None,374.1218816050096,None,space,0.162444104993483,5.931622134696227,None,374.1218816050096,None,374.1218816050096,None,,,,,,,,,1,2022_Mar_25_1047,SAR-soap,2021.1.2,60.04389544147644,
16,Trial # 12,Group1-stimuli/group1-block1/real-group1-b1/Group1_IMG_9813.jpg,1,Group1_IMG_9813.jpg,,,,,0.0,11.0,11.0,11.0,,,,,,,,,,,,,,,,,,,,,,,,,,,,,,,,,,,,,380.2579380270036,None,380.2579380270036,None,380.2579380270036,None,1.0,1.6939769170130603,380.2579380270036,None,380.2579380270036,None,1.0,2.25099578499794,381.49146051800926,None,380.2579380270036,None,1.0,2.823601037001936,382.058215705998,None,380.2579380270036,None,space,0.277929404983297,2.849364105728455,None,380.2579380270036,None,380.2579380270036,None,,,,,,,,,1,2022_Mar_25_1047,SAR-soap,2021.1.2,60.04389544147644,
17,Trial # 13,Group1-stimuli/group1-block1/real-group1-b1/Group1_IMG_0516.jpg,1,Group1_IMG_0516.jpg,,,,,0.0,12.0,12.0,12.0,,,,,,,,,,,,,,,,,,,,,,,,,,,,,,,,,,,,,383.4242805640097,None,383.4242805640097,None,383.4242805640097,None,4.0,9.949297751009,383.4242805640097,None,383.4242805640097,None,2.0,11.021391090995166,389.1433921240096,None,383.4242805640097,None,4.0,15.362442835001277,394.011253477016,None,383.4242805640097,None,space,0.4937233419914264,15.389746125700183,None,383.4242805640097,None,383.4242805640097,None,,,,,,,,,1,2022_Mar_25_1047,SAR-soap,2021.1.2,60.04389544147644,
18,Trial # 14,Group1-stimuli/group1-block1/fake-group2-b1/encoded_Group2_IMG_0038.jpg,0,encoded_Group2_IMG_0038.jpg,,,,,0.0,13.0,13.0,13.0,,,,,,,,,,,,,,,,,,,,,,,,,,,,,,,,,,,,,399.34577718999935,None,399.34577718999935,None,399.34577718999935,None,3.0,5.948856470989995,399.34577718999935,None,399.34577718999935,None,1.0,6.7883730760077015,403.89838466700166,None,399.34577718999935,None,1.0,7.393692009994993,405.6982277610223,None,399.34577718999935,None,space,0.3397182819899171,7.421890983678168,None,399.34577718999935,None,399.34577718999935,None,,,,,,,,,1,2022_Mar_25_1047,SAR-soap,2021.1.2,60.04389544147644,
19,Trial # 15,Group1-stimuli/group1-block1/real-group1-b1/Group1_IMG_5984.jpg,1,Group1_IMG_5984.jpg,,,,,0.0,14.0,14.0,14.0,,,,,,,,,,,,,,,,,,,,,,,,,,,,,,,,,,,,,407.1661216150096,None,407.1661216150096,None,407.1661216150096,None,1.0,1.5447389600158203,407.1661216150096,None,407.1661216150096,None,1.0,2.0328911950055044,408.2487456870149,None,407.1661216150096,None,1.0,2.6386826939997263,408.7496535200044,None,407.1661216150096,None,space,0.2267107310181018,2.663542274822248,None,407.1661216150096,None,407.1661216150096,None,,,,,,,,,1,2022_Mar_25_1047,SAR-soap,2021.1.2,60.04389544147644,
20,Trial # 16,Group1-stimuli/group1-block1/real-group1-b1/Group1_IMG_0383.jpg,1,Group1_IMG_0383.jpg,,,,,0.0,15.0,15.0,15.0,,,,,,,,,,,,,,,,,,,,,,,,,,,,,,,,,,,,,410.0834204480052,None,410.0834204480052,None,410.0834204480052,None,5.0,4.657168800011277,410.0834204480052,None,410.0834204480052,None,2.0,7.915537852008128,414.2845535369997,None,410.0834204480052,None,4.0,9.753086504992098,417.5518439169973,None,410.0834204480052,None,space,0.8133970820053946,9.773365719796857,None,410.0834204480052,None,410.0834204480052,None,,,,,,,,,1,2022_Mar_25_1047,SAR-soap,2021.1.2,60.04389544147644,
21,Trial # 17,Group1-stimuli/group1-block1/fake-group2-b1/encoded_Group2_IMG_0456.jpg,0,encoded_Group2_IMG_0456.jpg,,,,,0.0,16.0,16.0,16.0,,,,,,,,,,,,,,,,,,,,,,,,,,,,,,,,,,,,,420.72062552699936,None,420.72062552699936,None,420.72062552699936,None,3.0,3.425807383988285,420.72062552699936,None,420.72062552699936,None,1.0,6.08243211399531,423.6868107150076,None,420.72062552699936,None,1.0,7.6540633449913,426.35570732102497,None,420.72062552699936,None,space,0.1979296469944529,7.677161834784783,None,420.72062552699936,None,420.72062552699936,None,,,,,,,,,1,2022_Mar_25_1047,SAR-soap,2021.1.2,60.04389544147644,
22,Trial # 18,Group1-stimuli/group1-block1/fake-group2-b1/encoded_Group2_IMG_8390.jpg,0,encoded_Group2_IMG_8390.jpg,,,,,0.0,17.0,17.0,17.0,,,,,,,,,,,,,,,,,,,,,,,,,,,,,,,,,,,,,428.62168127001496,None,428.62168127001496,None,428.62168127001496,None,5.0,5.316968470986467,428.62168127001496,None,428.62168127001496,None,3.0,6.7743675320234615,433.4904729280097,None,428.62168127001496,None,4.0,9.947046530985972,434.9582338280161,None,428.62168127001496,None,space,2.82342728797812,8.242758512700675,None,428.62168127001496,None,428.62168127001496,None,,,,,,,,,1,2022_Mar_25_1047,SAR-soap,2021.1.2,60.04389544147644,
23,Trial # 19,Group1-stimuli/group1-block1/real-group1-b1/Group1_IMG_0011.jpg,1,Group1_IMG_0011.jpg,,,,,0.0,18.0,18.0,18.0,,,,,,,,,,,,,,,,,,,,,,,,,,,,,,,,,,,,,439.7263094549999,None,439.7263094549999,None,439.7263094549999,None,5.0,21.867939532996388,439.7263094549999,None,439.7263094549999,None,3.0,23.491310623998288,461.1491563490126,None,439.7263094549999,None,3.0,25.43065457700868,462.7829291780072,None,439.7263094549999,None,space,0.5058515889977571,25.456607545667797,None,439.7263094549999,None,439.7263094549999,None,,,,,,,,,1,2022_Mar_25_1047,SAR-soap,2021.1.2,60.04389544147644,
24,Trial # 20,Group1-stimuli/group1-block1/fake-group2-b1/encoded_Group2_IMG_0328.jpg,0,encoded_Group2_IMG_0328.jpg,,,,,0.0,19.0,19.0,19.0,,,,,,,,,,,,,,,,,,,,,,,,,,,,,,,,,,,,,465.75081245202455,None,465.75081245202455,None,465.75081245202455,None,1.0,2.056538880016888,465.75081245202455,None,465.75081245202455,None,1.0,2.7133096950128675,467.35043556502205,None,465.75081245202455,None,1.0,3.4516916850116104,468.0182853600127,None,465.75081245202455,None,space,0.1924199179920833,3.470943955820985,None,465.75081245202455,None,465.75081245202455,None,,,,,,,,,1,2022_Mar_25_1047,SAR-soap,2021.1.2,60.04389544147644,
25,Trial # 21,Group1-stimuli/group1-block1/fake-group2-b1/encoded_Group2_IMG_0163.jpg,0,encoded_Group2_IMG_0163.jpg,,,,,0.0,20.0,20.0,20.0,,,,,,,,,,,,,,,,,,,,,,,,,,,,,,,,,,,,,469.43373681101366,None,469.43373681101366,None,469.43373681101366,None,6.0,3.413853008009028,469.43373681101366,None,469.43373681101366,None,6.0,4.469517834979342,472.4021903670218,None,469.43373681101366,None,6.0,5.208000651007751,473.4686975860095,None,469.43373681101366,None,space,0.2128231370006688,5.234579390817089,None,469.43373681101366,None,469.43373681101366,None,,,,,,,,,1,2022_Mar_25_1047,SAR-soap,2021.1.2,60.04389544147644,
26,Trial # 22,Group1-stimuli/group1-block1/real-group1-b1/Group1_IMG_9862.jpg,1,Group1_IMG_9862.jpg,,,,,0.0,21.0,21.0,21.0,,,,,,,,,,,,,,,,,,,,,,,,,,,,,,,,,,,,,474.93721722601913,None,474.93721722601913,None,474.93721722601913,None,1.0,1.5287341920193285,474.93721722601913,None,474.93721722601913,None,1.0,2.0516749210073613,476.0201272210106,None,474.93721722601913,None,1.0,3.222468502004631,476.55414718500106,None,474.93721722601913,None,space,0.7957080200139899,2.716576606675517,None,474.93721722601913,None,474.93721722601913,None,,,,,,,,,1,2022_Mar_25_1047,SAR-soap,2021.1.2,60.04389544147644,
27,Trial # 23,Group1-stimuli/group1-block1/fake-group2-b1/encoded_Group2_IMG_0296.jpg,0,encoded_Group2_IMG_0296.jpg,,,,,0.0,22.0,22.0,22.0,,,,,,,,,,,,,,,,,,,,,,,,,,,,,,,,,,,,,478.4705417890218,None,478.4705417890218,None,478.4705417890218,None,6.0,3.1802910760161467,478.4705417890218,None,478.4705417890218,None,5.0,4.870997649995843,481.2054258279968,None,478.4705417890218,None,6.0,5.875117960007628,482.9062610780238,None,478.4705417890218,None,space,0.2218582569912541,5.902655304817017,None,478.4705417890218,None,478.4705417890218,None,,,,,,,,,1,2022_Mar_25_1047,SAR-soap,2021.1.2,60.04389544147644,
28,Trial # 24,Group1-stimuli/group1-block1/fake-group2-b1/encoded_Group2_IMG_0503.jpg,0,encoded_Group2_IMG_0503.jpg,,,,,0.0,23.0,23.0,23.0,,,,,,,,,,,,,,,,,,,,,,,,,,,,,,,,,,,,,484.6563950180134,None,484.6563950180134,None,484.6563950180134,None,6.0,2.3289612680091523,484.6563950180134,None,484.6563950180134,None,6.0,3.0520401489920914,486.52467543201055,None,484.6563950180134,None,6.0,3.589395500021056,487.2565960380016,None,484.6563950180134,None,space,0.3374308790080249,3.6149666096898727,None,484.6563950180134,None,484.6563950180134,None,,,,,,,,,1,2022_Mar_25_1047,SAR-soap,2021.1.2,60.04389544147644,
29,Trial # 25,Group1-stimuli/group1-block1/fake-group2-b1/encoded_Group2_IMG_9804.jpg,0,encoded_Group2_IMG_9804.jpg,,,,,0.0,24.0,24.0,24.0,,,,,,,,,,,,,,,,,,,,,,,,,,,,,,,,,,,,,488.6573112379992,None,488.6573112379992,None,488.6573112379992,None,1.0,1.927831156994216,488.6573112379992,None,488.6573112379992,None,1.0,2.4172401999821886,490.1255385070108,None,488.6573112379992,None,1.0,3.18920625699684,490.624612368003,None,488.6573112379992,None,space,0.1590564289945177,3.2129894548270386,None,488.6573112379992,None,488.6573112379992,None,,,,,,,,,1,2022_Mar_25_1047,SAR-soap,2021.1.2,60.04389544147644,
30,Trial # 26,Group1-stimuli/group1-block1/real-group1-b1/Group1_IMG_0391.jpg,1,Group1_IMG_0391.jpg,,,,,0.0,25.0,25.0,25.0,,,,,,,,,,,,,,,,,,,,,,,,,,,,,,,,,,,,,492.0759061630233,None,492.0759061630233,None,492.0759061630233,None,5.0,11.777115361997858,492.0759061630233,None,492.0759061630233,None,2.0,13.13466497400077,503.3954558240075,None,492.0759061630233,None,2.0,14.539090345992008,504.7631065370224,None,492.0759061630233,None,space,0.7634461149864364,14.56381852371851,None,492.0759061630233,None,492.0759061630233,None,,,,,,,,,1,2022_Mar_25_1047,SAR-soap,2021.1.2,60.04389544147644,
31,Trial # 27,Group1-stimuli/group1-block1/fake-group2-b1/encoded_Group2_IMG_3584.jpg,0,encoded_Group2_IMG_3584.jpg,,,,,0.0,26.0,26.0,26.0,,,,,,,,,,,,,,,,,,,,,,,,,,,,,,,,,,,,,507.43003217701335,None,507.43003217701335,None,507.43003217701335,None,5.0,12.413249467004787,507.43003217701335,None,507.43003217701335,None,4.0,14.636123781005152,519.3837257770065,None,507.43003217701335,None,3.0,17.074400768993655,521.618511127017,None,507.43003217701335,None,space,0.268050320999464,17.098499078827444,None,507.43003217701335,None,507.43003217701335,None,,,,,,,,,1,2022_Mar_25_1047,SAR-soap,2021.1.2,60.04389544147644,
32,Trial # 28,Group1-stimuli/group1-block1/fake-group2-b1/encoded_Group2_IMG_0434.jpg,0,encoded_Group2_IMG_0434.jpg,,,,,0.0,27.0,27.0,27.0,,,,,,,,,,,,,,,,,,,,,,,,,,,,,,,,,,,,,524.8525756630115,None,524.8525756630115,None,524.8525756630115,None,7.0,5.316217612999026,524.8525756630115,None,524.8525756630115,None,6.0,8.071344479016261,529.7212724520068,None,524.8525756630115,None,5.0,9.278720189991873,532.4870828130224,None,524.8525756630115,None,space,0.2948651999759022,9.306865373713665,None,524.8525756630115,None,524.8525756630115,None,,,,,,,,,1,2022_Mar_25_1047,SAR-soap,2021.1.2,60.04389544147644,
33,Trial # 29,Group1-stimuli/group1-block1/fake-group2-b1/encoded_Group2_IMG_9575.jpg,0,encoded_Group2_IMG_9575.jpg,,,,,0.0,28.0,28.0,28.0,,,,,,,,,,,,,,,,,,,,,,,,,,,,,,,,,,,,,534.4873349819973,None,534.4873349819973,None,534.4873349819973,None,3.0,3.814903393998975,534.4873349819973,None,534.4873349819973,None,1.0,4.737031736003701,537.8555113750044,None,534.4873349819973,None,1.0,5.744791662989883,538.7894137510157,None,534.4873349819973,None,space,0.1444066920084878,5.771155846683541,None,534.4873349819973,None,534.4873349819973,None,,,,,,,,,1,2022_Mar_25_1047,SAR-soap,2021.1.2,60.04389544147644,
34,Trial # 30,Group1-stimuli/group1-block1/fake-group2-b1/encoded_Group2_IMG_1025.jpg,0,encoded_Group2_IMG_1025.jpg,,,,,0.0,29.0,29.0,29.0,,,,,,,,,,,,,,,,,,,,,,,,,,,,,,,,,,,,,540.4404909390141,None,540.4404909390141,None,540.4404909390141,None,1.0,1.577489996998338,540.4404909390141,None,540.4404909390141,None,1.0,2.700831655994989,541.5736930290004,None,540.4404909390141,None,1.0,3.2712449120008387,542.707325135998,None,540.4404909390141,None,space,0.1174124120152555,3.298477356787771,None,540.4404909390141,None,540.4404909390141,None,,,,,,,,,1,2022_Mar_25_1047,SAR-soap,2021.1.2,60.04389544147644,
35,Trial # 31,Group1-stimuli/group1-block1/real-group1-b1/Group1_IMG_0502.jpg,1,Group1_IMG_0502.jpg,,,,,0.0,30.0,30.0,30.0,,,,,,,,,,,,,,,,,,,,,,,,,,,,,,,,,,,,,543.9578839720052,None,543.9578839720052,None,543.9578839720052,None,7.0,7.482093757018447,543.9578839720052,None,543.9578839720052,None,5.0,5.619518271007109,545.6761174999992,None,543.9578839720052,None,6.0,9.092617537011392,549.1421408700116,None,543.9578839720052,None,space,0.3891278590017464,9.11911470736959,None,543.9578839720052,None,543.9578839720052,None,,,,,,,,,1,2022_Mar_25_1047,SAR-soap,2021.1.2,60.04389544147644,
36,Trial # 32,Group1-stimuli/group1-block1/real-group1-b1/Group1_IMG_0182.jpg,1,Group1_IMG_0182.jpg,,,,,0.0,31.0,31.0,31.0,,,,,,,,,,,,,,,,,,,,,,,,,,,,,,,,,,,,,553.510504380014,None,553.510504380014,None,553.510504380014,None,7.0,2.401010855013737,553.510504380014,None,553.510504380014,None,7.0,4.658178731013322,555.4621200030087,None,553.510504380014,None,6.0,6.161934676987585,557.7283580530202,None,553.510504380014,None,space,0.2183516529912594,6.193353616719833,None,553.510504380014,None,553.510504380014,None,,,,,,,,,1,2022_Mar_25_1047,SAR-soap,2021.1.2,60.04389544147644,
37,Trial # 33,Group1-stimuli/group1-block1/fake-group2-b1/encoded_Group2_IMG_2728.jpg,0,encoded_Group2_IMG_2728.jpg,,,,,0.0,32.0,32.0,32.0,,,,,,,,,,,,,,,,,,,,,,,,,,,,,,,,,,,,,559.9468778629962,None,559.9468778629962,None,559.9468778629962,None,1.0,2.498940030985977,559.9468778629962,None,559.9468778629962,None,1.0,2.854185405012686,561.9975822850247,None,559.9468778629962,None,1.0,4.161055837990716,562.3630963950127,None,559.9468778629962,None,space,0.3436603970185388,4.187157472828403,None,559.9468778629962,None,559.9468778629962,None,,,,,,,,,1,2022_Mar_25_1047,SAR-soap,2021.1.2,60.04389544147644,
38,Trial # 34,Group1-stimuli/group1-block1/fake-group2-b1/encoded_Group2_IMG_4867.jpg,0,encoded_Group2_IMG_4867.jpg,,,,,0.0,33.0,33.0,33.0,,,,,,,,,,,,,,,,,,,,,,,,,,,,,,,,,,,,,564.5132583850063,None,564.5132583850063,None,564.5132583850063,None,6.0,5.515001334977569,564.5132583850063,None,564.5132583850063,None,5.0,6.288386494008591,566.3990753990074,None,564.5132583850063,None,6.0,8.594183053995948,570.3666855080228,None,564.5132583850063,None,space,0.205077816004632,8.620368222822435,None,564.5132583850063,None,564.5132583850063,None,,,,,,,,,1,2022_Mar_25_1047,SAR-soap,2021.1.2,60.04389544147644,
39,Trial # 35,Group1-stimuli/group1-block1/real-group1-b1/Group1_IMG_9894.jpg,1,Group1_IMG_9894.jpg,,,,,0.0,34.0,34.0,34.0,,,,,,,,,,,,,,,,,,,,,,,,,,,,,,,,,,,,,573.4003746750241,None,573.4003746750241,None,573.4003746750241,None,1.0,1.960032848000992,573.4003746750241,None,573.4003746750241,None,1.0,2.317671030992642,574.9017262230045,None,573.4003746750241,None,1.0,3.0218469780229498,575.2683342630044,None,573.4003746750241,None,space,0.1587196300097275,3.0469174147874583,None,573.4003746750241,None,573.4003746750241,None,,,,,,,,,1,2022_Mar_25_1047,SAR-soap,2021.1.2,60.04389544147644,
40,Trial # 36,Group1-stimuli/group1-block1/fake-group2-b1/encoded_Group2_IMG_0444.jpg,0,encoded_Group2_IMG_0444.jpg,,,,,0.0,35.0,35.0,35.0,,,,,,,,,,,,,,,,,,,,,,,,,,,,,,,,,,,,,576.6184257380082,None,576.6184257380082,None,576.6184257380082,None,2.0,3.946285657002591,576.6184257380082,None,576.6184257380082,None,1.0,5.7034298200160265,580.11919339202,None,576.6184257380082,None,1.0,6.573799814010272,581.8867504540249,None,576.6184257380082,None,space,0.678150272986386,6.600742241804255,None,576.6184257380082,None,576.6184257380082,None,,,,,,,,,1,2022_Mar_25_1047,SAR-soap,2021.1.2,60.04389544147644,
41,Trial # 37,Group1-stimuli/group1-block1/real-group1-b1/Group1_IMG_2656.jpg,1,Group1_IMG_2656.jpg,,,,,0.0,36.0,36.0,36.0,,,,,,,,,,,,,,,,,,,,,,,,,,,,,,,,,,,,,583.9536224410112,None,583.9536224410112,None,583.9536224410112,None,1.0,2.7105438509897795,583.9536224410112,None,583.9536224410112,None,1.0,3.067308444005903,586.2045026620035,None,583.9536224410112,None,1.0,3.4381126619991846,586.5715738850122,None,583.9536224410112,None,space,0.1732955759798642,3.4639860358147416,None,583.9536224410112,None,583.9536224410112,None,,,,,,,,,1,2022_Mar_25_1047,SAR-soap,2021.1.2,60.04389544147644,
42,Trial # 38,Group1-stimuli/group1-block1/real-group1-b1/Group1_IMG_0207.jpg,1,Group1_IMG_0207.jpg,,,,,0.0,37.0,37.0,37.0,,,,,,,,,,,,,,,,,,,,,,,,,,,,,,,,,,,,,587.6378908570041,None,587.6378908570041,None,587.6378908570041,None,1.0,1.4725554729811847,587.6378908570041,None,587.6378908570041,None,1.0,1.828861174028134,588.6547140690091,None,587.6378908570041,None,1.0,2.533908760000486,589.0216788730177,None,587.6378908570041,None,space,0.2211240309989079,2.554744003806263,None,587.6378908570041,None,587.6378908570041,None,,,,,,,,,1,2022_Mar_25_1047,SAR-soap,2021.1.2,60.04389544147644,
43,Trial # 39,Group1-stimuli/group1-block1/real-group1-b1/Group1_IMG_9638.jpg,1,Group1_IMG_9638.jpg,,,,,0.0,38.0,38.0,38.0,,,,,,,,,,,,,,,,,,,,,,,,,,,,,,,,,,,,,590.4393527700158,None,590.4393527700158,None,590.4393527700158,None,5.0,2.353227546991548,590.4393527700158,None,590.4393527700158,None,3.0,3.276505711983191,592.3566414310189,None,590.4393527700158,None,5.0,4.247684732021298,593.2901001490245,None,590.4393527700158,None,space,0.0707861309929285,4.282405973703135,None,590.4393527700158,None,590.4393527700158,None,,,,,,,,,1,2022_Mar_25_1047,SAR-soap,2021.1.2,60.04389544147644,
44,Trial # 40,Group1-stimuli/group1-block1/real-group1-b1/Group1_IMG_0148.jpg,1,Group1_IMG_0148.jpg,,,,,0.0,39.0,39.0,39.0,,,,,,,,,,,,,,,,,,,,,,,,,,,,,,,,,,,,,594.8567251640197,None,594.8567251640197,None,594.8567251640197,None,6.0,2.014474422991043,594.8567251640197,None,594.8567251640197,None,5.0,4.8709833530010656,596.4240828060138,None,594.8567251640197,None,6.0,6.743198051000945,599.2915843719966,None,594.8567251640197,None,space,0.1282982300035655,6.771302527689841,None,594.8567251640197,None,594.8567251640197,None,,,,,,,,,1,2022_Mar_25_1047,SAR-soap,2021.1.2,60.04389544147644,
45,Trial # 41,Group1-stimuli/group1-block1/real-group1-b1/Group1_IMG_2891.jpg,1,Group1_IMG_2891.jpg,,,,,0.0,40.0,40.0,40.0,,,,,,,,,,,,,,,,,,,,,,,,,,,,,,,,,,,,,601.791968606005,None,601.791968606005,None,601.791968606005,None,1.0,1.992987086996436,601.791968606005,None,601.791968606005,None,1.0,2.449172302003717,603.3263325910084,None,601.791968606005,None,1.0,3.0534630670154,603.792222493008,None,601.791968606005,None,space,0.1657558919978328,3.078416607837425,None,601.791968606005,None,601.791968606005,None,,,,,,,,,1,2022_Mar_25_1047,SAR-soap,2021.1.2,60.04389544147644,
46,Trial # 42,Group1-stimuli/group1-block1/real-group1-b1/Group1_IMG_0157.jpg,1,Group1_IMG_0157.jpg,,,,,0.0,41.0,41.0,41.0,,,,,,,,,,,,,,,,,,,,,,,,,,,,,,,,,,,,,605.0941312560171,None,605.0941312560171,None,605.0941312560171,None,6.0,5.213758586993208,605.0941312560171,None,605.0941312560171,None,4.0,25.6104600620165,609.8627123949991,None,605.0941312560171,None,6.0,24.213406355003823,625.7335180290102,None,605.0941312560171,None,space,1.7321773759904318,24.240601815690752,None,605.0941312560171,None,605.0941312560171,None,,,,,,,,,1,2022_Mar_25_1047,SAR-soap,2021.1.2,60.04389544147644,
47,Trial # 43,Group1-stimuli/group1-block1/real-group1-b1/Group1_IMG_9833.jpg,1,Group1_IMG_9833.jpg,,,,,0.0,42.0,42.0,42.0,,,,,,,,,,,,,,,,,,,,,,,,,,,,,,,,,,,,,631.1187847930123,None,631.1187847930123,None,631.1187847930123,None,1.0,1.8799377139948772,631.1187847930123,None,631.1187847930123,None,1.0,2.302587449987186,632.551737953996,None,631.1187847930123,None,1.0,2.6752367790031717,632.9845715060073,None,631.1187847930123,None,space,0.2475358190131373,2.7009007825690787,None,631.1187847930123,None,631.1187847930123,None,,,,,,,,,1,2022_Mar_25_1047,SAR-soap,2021.1.2,60.04389544147644,
48,Trial # 44,Group1-stimuli/group1-block1/fake-group2-b1/encoded_Group2_IMG_2230.jpg,0,encoded_Group2_IMG_2230.jpg,,,,,0.0,43.0,43.0,43.0,,,,,,,,,,,,,,,,,,,,,,,,,,,,,,,,,,,,,634.1188768480206,None,634.1188768480206,None,634.1188768480206,None,6.0,2.450677338987589,634.1188768480206,None,634.1188768480206,None,4.0,3.538687381020281,636.1196901270014,None,634.1188768480206,None,6.0,5.880530447990168,637.2196537630225,None,634.1188768480206,None,space,0.1096077660040464,5.909427542705089,None,634.1188768480206,None,634.1188768480206,None,,,,,,,,,1,2022_Mar_25_1047,SAR-soap,2021.1.2,60.04389544147644,
49,Trial # 45,Group1-stimuli/group1-block1/real-group1-b1/Group1_IMG_9966.jpg,1,Group1_IMG_9966.jpg,,,,,0.0,44.0,44.0,44.0,,,,,,,,,,,,,,,,,,,,,,,,,,,,,,,,,,,,,640.1880010890018,None,640.1880010890018,None,640.1880010890018,None,5.0,26.175677243998507,640.1880010890018,None,640.1880010890018,None,5.0,27.965170162991853,665.9123271820135,None,640.1880010890018,None,6.0,28.903511758020613,667.7124223170104,None,640.1880010890018,None,space,1.7612345289962832,28.933315753703937,None,640.1880010890018,None,640.1880010890018,None,,,,,,,,,1,2022_Mar_25_1047,SAR-soap,2021.1.2,60.04389544147644,
50,Trial # 46,Group1-stimuli/group1-block1/real-group1-b1/Group1_IMG_0239.jpg,1,Group1_IMG_0239.jpg,,,,,0.0,45.0,45.0,45.0,,,,,,,,,,,,,,,,,,,,,,,,,,,,,,,,,,,,,670.9477324270119,None,670.9477324270119,None,670.9477324270119,None,1.0,4.077590576984221,670.9477324270119,None,670.9477324270119,None,1.0,5.502317906997632,674.5643998740125,None,670.9477324270119,None,1.0,5.873238998989109,675.9995937600033,None,670.9477324270119,None,space,0.8409524690068793,5.898879068612587,None,670.9477324270119,None,670.9477324270119,None,,,,,,,,,1,2022_Mar_25_1047,SAR-soap,2021.1.2,60.04389544147644,
51,Trial # 47,Group1-stimuli/group1-block1/fake-group2-b1/encoded_Group2_IMG_0536.jpg,0,encoded_Group2_IMG_0536.jpg,,,,,0.0,46.0,46.0,46.0,,,,,,,,,,,,,,,,,,,,,,,,,,,,,,,,,,,,,677.715294676018,None,677.715294676018,None,677.715294676018,None,1.0,1.7812056630209554,677.715294676018,None,677.715294676018,None,1.0,2.471698404988274,679.048874783999,None,677.715294676018,None,1.0,2.743424882006366,679.7507745940238,None,677.715294676018,None,space,0.14159516300424,2.7725108577869837,None,677.715294676018,None,677.715294676018,None,,,,,,,,,1,2022_Mar_25_1047,SAR-soap,2021.1.2,60.04389544147644,
52,Trial # 48,Group1-stimuli/group1-block1/fake-group2-b1/encoded_Group2_IMG_0521.jpg,0,encoded_Group2_IMG_0521.jpg,,,,,0.0,47.0,47.0,47.0,,,,,,,,,,,,,,,,,,,,,,,,,,,,,,,,,,,,,680.6670822770102,None,680.6670822770102,None,680.6670822770102,None,5.0,5.148989006003831,680.6670822770102,None,680.6670822770102,None,5.0,6.237837293010671,685.368359242013,None,680.6670822770102,None,5.0,9.91142982902238,686.4693987630017,None,680.6670822770102,None,space,0.3189604120270815,9.939067163795698,None,680.6670822770102,None,680.6670822770102,None,,,,,,,,,1,2022_Mar_25_1047,SAR-soap,2021.1.2,60.04389544147644,
53,Trial # 49,Group1-stimuli/group1-block1/fake-group2-b1/encoded_Group2_IMG_9924.jpg,0,encoded_Group2_IMG_9924.jpg,,,,,0.0,48.0,48.0,48.0,,,,,,,,,,,,,,,,,,,,,,,,,,,,,,,,,,,,,690.9868950460223,None,690.9868950460223,None,690.9868950460223,None,1.0,2.0667169819935225,690.9868950460223,None,690.9868950460223,None,1.0,2.68951494601788,692.6045481960173,None,690.9868950460223,None,1.0,3.127174028981244,693.2372680499975,None,690.9868950460223,None,space,0.1925813659909181,3.1593048005888704,None,690.9868950460223,None,690.9868950460223,None,,,,,,,,,1,2022_Mar_25_1047,SAR-soap,2021.1.2,60.04389544147644,
54,Trial # 50,Group1-stimuli/group1-block1/real-group1-b1/Group1_IMG_9730.jpg,1,Group1_IMG_9730.jpg,,,,,0.0,49.0,49.0,49.0,,,,,,,,,,,,,,,,,,,,,,,,,,,,,,,,,,,,,694.3704365990125,None,694.3704365990125,None,694.3704365990125,None,5.0,2.011182107991772,694.3704365990125,None,694.3704365990125,None,6.0,5.099841226998251,695.9222253879998,None,694.3704365990125,None,3.0,6.872661037021317,699.0220816250076,None,694.3704365990125,None,space,0.20570981700439,6.797106369805988,None,694.3704365990125,None,694.3704365990125,None,,,,,,,,,1,2022_Mar_25_1047,SAR-soap,2021.1.2,60.04389544147644,
55,Trial # 51,Group1-stimuli/group1-block1/real-group1-b1/Group1_IMG_0053.jpg,1,Group1_IMG_0053.jpg,,,,,0.0,50.0,50.0,50.0,,,,,,,,,,,,,,,,,,,,,,,,,,,,,,,,,,,,,701.4237860760186,None,701.4237860760186,None,701.4237860760186,None,1.0,1.701524183008587,701.4237860760186,None,701.4237860760186,None,1.0,2.22284577798564,702.6741360820015,None,701.4237860760186,None,1.0,2.795154680992709,703.2067600210139,None,701.4237860760186,None,space,0.1452898779825773,2.825886509672273,None,701.4237860760186,None,701.4237860760186,None,,,,,,,,,1,2022_Mar_25_1047,SAR-soap,2021.1.2,60.04389544147644,
56,Trial # 52,Group1-stimuli/group1-block1/real-group1-b1/Group1_IMG_9698.jpg,1,Group1_IMG_9698.jpg,,,,,0.0,51.0,51.0,51.0,,,,,,,,,,,,,,,,,,,,,,,,,,,,,,,,,,,,,704.440474321018,None,704.440474321018,None,704.440474321018,None,1.0,1.53213069200865,704.440474321018,None,704.440474321018,None,1.0,1.9210133199812844,705.5244307719986,None,704.440474321018,None,1.0,2.5272959180001635,705.9253502250067,None,704.440474321018,None,space,0.0905718060093931,2.555461369716795,None,704.440474321018,None,704.440474321018,None,,,,,,,,,1,2022_Mar_25_1047,SAR-soap,2021.1.2,60.04389544147644,
57,Trial # 53,Group1-stimuli/group1-block1/fake-group2-b1/encoded_Group2_IMG_0553.jpg,0,encoded_Group2_IMG_0553.jpg,,,,,0.0,52.0,52.0,52.0,,,,,,,,,,,,,,,,,,,,,,,,,,,,,,,,,,,,,707.1081804530113,None,707.1081804530113,None,707.1081804530113,None,1.0,1.3865422870148905,707.1081804530113,None,707.1081804530113,None,1.0,1.8086818559968376,708.0582371080236,None,707.1081804530113,None,1.0,2.31586524398881,708.4913968940091,None,707.1081804530113,None,space,0.1349223339930176,2.3499872776737902,None,707.1081804530113,None,707.1081804530113,None,,,,,,,,,1,2022_Mar_25_1047,SAR-soap,2021.1.2,60.04389544147644,
58,Trial # 54,Group1-stimuli/group1-block1/fake-group2-b1/encoded_Group2_IMG_9758.jpg,0,encoded_Group2_IMG_9758.jpg,,,,,0.0,53.0,53.0,53.0,,,,,,,,,,,,,,,,,,,,,,,,,,,,,,,,,,,,,709.6585904190142,None,709.6585904190142,None,709.6585904190142,None,6.0,1.829129357007332,709.6585904190142,None,709.6585904190142,None,6.0,2.9853465990163386,711.0261859220045,None,709.6585904190142,None,5.0,4.422621033998439,712.1928361790197,None,709.6585904190142,None,space,0.1007972310180775,4.449287773808464,None,709.6585904190142,None,709.6585904190142,None,,,,,,,,,1,2022_Mar_25_1047,SAR-soap,2021.1.2,60.04389544147644,
59,Trial # 55,Group1-stimuli/group1-block1/fake-group2-b1/encoded_Group2_IMG_0339.jpg,0,encoded_Group2_IMG_0339.jpg,,,,,0.0,54.0,54.0,54.0,,,,,,,,,,,,,,,,,,,,,,,,,,,,,,,,,,,,,714.2436479880125,None,714.2436479880125,None,714.2436479880125,None,1.0,1.6311085539928172,714.2436479880125,None,714.2436479880125,None,1.0,2.920223316992633,715.4278327610227,None,714.2436479880125,None,1.0,3.692345301999012,716.7277064570226,None,714.2436479880125,None,space,0.1929842289828229,3.7203817528206855,None,714.2436479880125,None,714.2436479880125,None,,,,,,,,,1,2022_Mar_25_1047,SAR-soap,2021.1.2,60.04389544147644,
60,Trial # 56,Group1-stimuli/group1-block1/real-group1-b1/Group1_IMG_0314.jpg,1,Group1_IMG_0314.jpg,,,,,0.0,55.0,55.0,55.0,,,,,,,,,,,,,,,,,,,,,,,,,,,,,,,,,,,,,718.1951069170027,None,718.1951069170027,None,718.1951069170027,None,1.0,1.6421545300108846,718.1951069170027,None,718.1951069170027,None,1.0,2.066402702999767,719.3779714679986,None,718.1951069170027,None,1.0,2.803140206990065,719.8123889820126,None,718.1951069170027,None,space,0.5255814640258905,2.827592815796379,None,718.1951069170027,None,718.1951069170027,None,,,,,,,,,1,2022_Mar_25_1047,SAR-soap,2021.1.2,60.04389544147644,
61,Trial # 57,Group1-stimuli/group1-block1/fake-group2-b1/encoded_Group2_IMG_0532.jpg,0,encoded_Group2_IMG_0532.jpg,,,,,0.0,56.0,56.0,56.0,,,,,,,,,,,,,,,,,,,,,,,,,,,,,,,,,,,,,721.563389390998,None,721.563389390998,None,721.563389390998,None,3.0,4.499292925000191,721.563389390998,None,721.563389390998,None,1.0,3.334886906988686,723.1962805530056,None,721.563389390998,None,3.0,6.142111619003117,724.4639087770192,None,721.563389390998,None,space,0.630382531991927,6.170924760808703,None,721.563389390998,None,721.563389390998,None,,,,,,,,,1,2022_Mar_25_1047,SAR-soap,2021.1.2,60.04389544147644,
62,Trial # 58,Group1-stimuli/group1-block1/fake-group2-b1/encoded_Group2_IMG_0462.jpg,0,encoded_Group2_IMG_0462.jpg,,,,,0.0,57.0,57.0,57.0,,,,,,,,,,,,,,,,,,,,,,,,,,,,,,,,,,,,,728.3818221330002,None,728.3818221330002,None,728.3818221330002,None,5.0,8.632439072011039,728.3818221330002,None,728.3818221330002,None,5.0,9.85513905499829,736.568480484013,None,728.3818221330002,None,5.0,11.8959348880162,737.8005098200229,None,728.3818221330002,None,space,0.1152769550099037,11.92242187281954,None,728.3818221330002,None,728.3818221330002,None,,,,,,,,,1,2022_Mar_25_1047,SAR-soap,2021.1.2,60.04389544147644,
63,Trial # 59,Group1-stimuli/group1-block1/real-group1-b1/Group1_IMG_0172.jpg,1,Group1_IMG_0172.jpg,,,,,0.0,58.0,58.0,58.0,,,,,,,,,,,,,,,,,,,,,,,,,,,,,,,,,,,,,740.469011535024,None,740.469011535024,None,740.469011535024,None,1.0,1.5365933740104083,740.469011535024,None,740.469011535024,None,1.0,2.291685336997034,741.5520922669966,None,740.469011535024,None,1.0,2.931672516016988,742.3187125830154,None,740.469011535024,None,space,0.175172297982499,2.96461339169764,None,740.469011535024,None,740.469011535024,None,,,,,,,,,1,2022_Mar_25_1047,SAR-soap,2021.1.2,60.04389544147644,
64,Trial # 60,Group1-stimuli/group1-block1/real-group1-b1/Group1_IMG_4841.jpg,1,Group1_IMG_4841.jpg,,,,,0.0,59.0,59.0,59.0,,,,,,,,,,,,,,,,,,,,,,,,,,,,,,,,,,,,,743.7855496010161,None,743.7855496010161,None,743.7855496010161,None,7.0,3.211456521996297,743.7855496010161,None,743.7855496010161,None,6.0,4.266683820984326,746.5369331770053,None,743.7855496010161,None,7.0,5.63897392101353,747.6038893430086,None,743.7855496010161,None,space,0.8523756869835779,5.665048862982076,None,743.7855496010161,None,743.7855496010161,None,,,,,,,,,1,2022_Mar_25_1047,SAR-soap,2021.1.2,60.04389544147644,
65,Trial # 61,Group1-stimuli/group1-block1/fake-group2-b1/encoded_Group2_IMG_0352.jpg,0,encoded_Group2_IMG_0352.jpg,,,,,0.0,60.0,60.0,60.0,,,,,,,,,,,,,,,,,,,,,,,,,,,,,,,,,,,,,750.3219743260124,None,750.3219743260124,None,750.3219743260124,None,1.0,1.6464901629951785,750.3219743260124,None,750.3219743260124,None,1.0,5.068981295014964,751.5221698910173,None,750.3219743260124,None,1.0,5.810054815985495,754.9564004540152,None,750.3219743260124,None,space,0.1814090239931829,5.835823299799813,None,750.3219743260124,None,750.3219743260124,None,,,,,,,,,1,2022_Mar_25_1047,SAR-soap,2021.1.2,60.04389544147644,
66,Trial # 62,Group1-stimuli/group1-block1/fake-group2-b1/encoded_Group2_IMG_9726.jpg,0,encoded_Group2_IMG_9726.jpg,,,,,0.0,61.0,61.0,61.0,,,,,,,,,,,,,,,,,,,,,,,,,,,,,,,,,,,,,756.3734927450132,None,756.3734927450132,None,756.3734927450132,None,7.0,2.9469243829953484,756.3734927450132,None,756.3734927450132,None,7.0,3.635990700975526,758.8739141710103,None,756.3734927450132,None,5.0,5.274757948005572,759.574615873018,None,756.3734927450132,None,space,0.1508709580230061,5.302581151772756,None,756.3734927450132,None,756.3734927450132,None,,,,,,,,,1,2022_Mar_25_1047,SAR-soap,2021.1.2,60.04389544147644,
67,Trial # 63,Group1-stimuli/group1-block1/fake-group2-b1/encoded_Group2_IMG_9785.jpg,0,encoded_Group2_IMG_9785.jpg,,,,,0.0,62.0,62.0,62.0,,,,,,,,,,,,,,,,,,,,,,,,,,,,,,,,,,,,,761.8579977180052,None,761.8579977180052,None,761.8579977180052,None,7.0,2.479177519999212,761.8579977180052,None,761.8579977180052,None,5.0,3.469272676971741,763.8921271380095,None,761.8579977180052,None,6.0,4.774710780999158,764.8937622260128,None,761.8579977180052,None,space,0.1100697660003788,4.802869540784741,None,761.8579977180052,None,761.8579977180052,None,,,,,,,,,1,2022_Mar_25_1047,SAR-soap,2021.1.2,60.04389544147644,
68,Trial # 64,Group1-stimuli/group1-block1/fake-group2-b1/encoded_Group2_IMG_0440.jpg,0,encoded_Group2_IMG_0440.jpg,,,,,0.0,63.0,63.0,63.0,,,,,,,,,,,,,,,,,,,,,,,,,,,,,,,,,,,,,766.8274301260244,None,766.8274301260244,None,766.8274301260244,None,7.0,2.036824902985245,766.8274301260244,None,766.8274301260244,None,7.0,4.327119096997194,768.410125171009,None,766.8274301260244,None,3.0,6.5645464419794735,770.7121321270242,None,766.8274301260244,None,space,0.0943628079839982,6.599907405703561,None,766.8274301260244,None,766.8274301260244,None,,,,,,,,,1,2022_Mar_25_1047,SAR-soap,2021.1.2,60.04389544147644,
69,Trial # 65,Group1-stimuli/group1-block1/fake-group2-b1/encoded_Group2_IMG_1695.jpg,0,encoded_Group2_IMG_1695.jpg,,,,,0.0,64.0,64.0,64.0,,,,,,,,,,,,,,,,,,,,,,,,,,,,,,,,,,,,,773.5455725030042,None,773.5455725030042,None,773.5455725030042,None,1.0,1.6011218469939197,773.5455725030042,None,773.5455725030042,None,1.0,1.991814629000146,774.6959571980115,None,773.5455725030042,None,1.0,2.830118743993808,775.0959751810005,None,773.5455725030042,None,space,0.1015600969840306,2.8613556736672763,None,773.5455725030042,None,773.5455725030042,None,,,,,,,,,1,2022_Mar_25_1047,SAR-soap,2021.1.2,60.04389544147644,
70,Trial # 66,Group1-stimuli/group1-block1/real-group1-b1/Group1_IMG_0552.jpg,1,Group1_IMG_0552.jpg,,,,,0.0,65.0,65.0,65.0,,,,,,,,,,,,,,,,,,,,,,,,,,,,,,,,,,,,,776.56361487502,None,776.56361487502,None,776.56361487502,None,1.0,1.467013060988393,776.56361487502,None,776.56361487502,None,1.0,2.2229590750066563,777.5805227980018,None,776.56361487502,None,1.0,2.5609649989928585,778.3473803950183,None,776.56361487502,None,space,0.2386997620051261,2.592898702714592,None,776.56361487502,None,776.56361487502,None,,,,,,,,,1,2022_Mar_25_1047,SAR-soap,2021.1.2,60.04389544147644,
71,Trial # 67,Group1-stimuli/group1-block1/real-group1-b1/Group1_IMG_1029.jpg,1,Group1_IMG_1029.jpg,,,,,0.0,66.0,66.0,66.0,,,,,,,,,,,,,,,,,,,,,,,,,,,,,,,,,,,,,779.4306983670103,None,779.4306983670103,None,779.4306983670103,None,3.0,2.8215424380032346,779.4306983670103,None,779.4306983670103,None,1.0,4.644312958000228,781.8146177240124,None,779.4306983670103,None,2.0,5.882903772988357,783.6484620819974,None,779.4306983670103,None,space,0.1008525039942469,5.917863350681728,None,779.4306983670103,None,779.4306983670103,None,,,,,,,,,1,2022_Mar_25_1047,SAR-soap,2021.1.2,60.04389544147644,
72,Trial # 68,Group1-stimuli/group1-block1/fake-group2-b1/encoded_Group2_IMG_6517.jpg,0,encoded_Group2_IMG_6517.jpg,,,,,0.0,67.0,67.0,67.0,,,,,,,,,,,,,,,,,,,,,,,,,,,,,,,,,,,,,785.4666598550102,None,785.4666598550102,None,785.4666598550102,None,1.0,1.495199942990439,785.4666598550102,None,785.4666598550102,None,1.0,1.8523845070158127,786.5165689990099,None,785.4666598550102,None,1.0,2.489121430000523,786.883417998004,None,785.4666598550102,None,space,0.0352494709950406,2.516248331812676,None,785.4666598550102,None,785.4666598550102,None,,,,,,,,,1,2022_Mar_25_1047,SAR-soap,2021.1.2,60.04389544147644,
73,Trial # 69,Group1-stimuli/group1-block1/fake-group2-b1/encoded_Group2_IMG_0002.jpg,0,encoded_Group2_IMG_0002.jpg,,,,,0.0,68.0,68.0,68.0,,,,,,,,,,,,,,,,,,,,,,,,,,,,,,,,,,,,,788.066073177004,None,788.066073177004,None,788.066073177004,None,3.0,5.382399428985082,788.066073177004,None,788.066073177004,None,1.0,4.254554952989565,790.4180783320044,None,788.066073177004,None,2.0,6.960657527000876,791.8843906180118,None,788.066073177004,None,space,0.0944589270220603,6.987144427810563,None,788.066073177004,None,788.066073177004,None,,,,,,,,,1,2022_Mar_25_1047,SAR-soap,2021.1.2,60.04389544147644,
74,Trial # 70,Group1-stimuli/group1-block1/real-group1-b1/Group1_IMG_0495.jpg,1,Group1_IMG_0495.jpg,,,,,0.0,69.0,69.0,69.0,,,,,,,,,,,,,,,,,,,,,,,,,,,,,,,,,,,,,795.1862956520054,None,795.1862956520054,None,795.1862956520054,None,1.0,1.594700338988332,795.1862956520054,None,795.1862956520054,None,1.0,1.9831645069934891,796.3201301020163,None,795.1862956520054,None,1.0,2.5560038829862606,796.7187511789962,None,795.1862956520054,None,space,0.1446103119815234,2.5798795388254803,None,795.1862956520054,None,795.1862956520054,None,,,,,,,,,1,2022_Mar_25_1047,SAR-soap,2021.1.2,60.04389544147644,
75,Trial # 71,Group1-stimuli/group1-block1/real-group1-b1/Group1_IMG_1391.jpg,1,Group1_IMG_1391.jpg,,,,,0.0,70.0,70.0,70.0,,,,,,,,,,,,,,,,,,,,,,,,,,,,,,,,,,,,,797.9527089500043,None,797.9527089500043,None,797.9527089500043,None,4.0,2.5661818670050707,797.9527089500043,None,797.9527089500043,None,2.0,4.887797042989405,800.0713257669995,None,797.9527089500043,None,3.0,6.693018746009329,802.4049639410223,None,797.9527089500043,None,space,0.1461788390006404,6.723123650706839,None,797.9527089500043,None,797.9527089500043,None,,,,,,,,,1,2022_Mar_25_1047,SAR-soap,2021.1.2,60.04389544147644,
76,Trial # 72,Group1-stimuli/group1-block1/real-group1-b1/Group1_IMG_0343.jpg,1,Group1_IMG_0343.jpg,,,,,0.0,71.0,71.0,71.0,,,,,,,,,,,,,,,,,,,,,,,,,,,,,,,,,,,,,804.8721553579962,None,804.8721553579962,None,804.8721553579962,None,1.0,1.611994868988404,804.8721553579962,None,804.8721553579962,None,1.0,2.019352898001671,806.0398926070193,None,804.8721553579962,None,1.0,2.5556950449827127,806.4398474720074,None,804.8721553579962,None,space,0.0907206240226514,2.580947833805112,None,804.8721553579962,None,804.8721553579962,None,,,,,,,,,1,2022_Mar_25_1047,SAR-soap,2021.1.2,60.04389544147644,
77,Trial # 73,Group1-stimuli/group1-block1/fake-group2-b1/encoded_Group2_IMG_9810.jpg,0,encoded_Group2_IMG_9810.jpg,,,,,0.0,72.0,72.0,72.0,,,,,,,,,,,,,,,,,,,,,,,,,,,,,,,,,,,,,807.5557978410216,None,807.5557978410216,None,807.5557978410216,None,1.0,1.3299014069780242,807.5557978410216,None,807.5557978410216,None,1.0,2.0538093429931905,808.439059383003,None,807.5557978410216,None,1.0,2.424760725989472,809.1723627250176,None,807.5557978410216,None,space,0.3872634150029626,2.4512898637913167,None,807.5557978410216,None,807.5557978410216,None,,,,,,,,,1,2022_Mar_25_1047,SAR-soap,2021.1.2,60.04389544147644,
78,Trial # 74,Group1-stimuli/group1-block1/fake-group2-b1/encoded_Group2_IMG_5900.jpg,0,encoded_Group2_IMG_5900.jpg,,,,,0.0,73.0,73.0,73.0,,,,,,,,,,,,,,,,,,,,,,,,,,,,,,,,,,,,,810.4400437489967,None,810.4400437489967,None,810.4400437489967,None,1.0,1.483829386997968,810.4400437489967,None,810.4400437489967,None,1.0,2.1397603010118478,811.4744649990171,None,810.4400437489967,None,1.0,2.546899339009542,812.1412678339984,None,810.4400437489967,None,space,0.3147515410091728,2.575676265667425,None,810.4400437489967,None,810.4400437489967,None,,,,,,,,,1,2022_Mar_25_1047,SAR-soap,2021.1.2,60.04389544147644,
79,Trial # 75,Group1-stimuli/group1-block1/real-group1-b1/Group1_IMG_9679.jpg,1,Group1_IMG_9679.jpg,,,,,0.0,74.0,74.0,74.0,,,,,,,,,,,,,,,,,,,,,,,,,,,,,,,,,,,,,813.3738939010072,None,813.3738939010072,None,813.3738939010072,None,1.0,1.5444605970114935,813.3738939010072,None,813.3738939010072,None,1.0,1.868666750000557,814.4581384330231,None,813.3738939010072,None,1.0,2.27221811900381,814.7920795450045,None,813.3738939010072,None,space,0.2394445509999059,2.2975395628018305,None,813.3738939010072,None,813.3738939010072,None,,,,,,,,,1,2022_Mar_25_1047,SAR-soap,2021.1.2,60.04389544147644,
80,Trial # 76,Group1-stimuli/group1-block1/fake-group2-b1/encoded_Group2_IMG_4249.jpg,0,encoded_Group2_IMG_4249.jpg,,,,,0.0,75.0,75.0,75.0,,,,,,,,,,,,,,,,,,,,,,,,,,,,,,,,,,,,,815.94258661801,None,815.94258661801,None,815.94258661801,None,6.0,2.079314885981148,815.94258661801,None,815.94258661801,None,6.0,3.0352644539962057,817.5759913240036,None,815.94258661801,None,4.0,3.873189215024468,818.5423232520116,None,815.94258661801,None,space,0.1994931760127656,3.9013453657971695,None,815.94258661801,None,815.94258661801,None,,,,,,,,,1,2022_Mar_25_1047,SAR-soap,2021.1.2,60.04389544147644,
81,Trial # 77,Group1-stimuli/group1-block1/fake-group2-b1/encoded_Group2_IMG_0174.jpg,0,encoded_Group2_IMG_0174.jpg,,,,,0.0,76.0,76.0,76.0,,,,,,,,,,,,,,,,,,,,,,,,,,,,,,,,,,,,,820.0605813809962,None,820.0605813809962,None,820.0605813809962,None,1.0,1.3646943439962342,820.0605813809962,None,820.0605813809962,None,1.0,1.7203699410019908,820.9767029950162,None,820.0605813809962,None,1.0,2.4257177929976024,821.3439441650116,None,820.0605813809962,None,space,0.0673600650043226,2.45410011880449,None,820.0605813809962,None,820.0605813809962,None,,,,,,,,,1,2022_Mar_25_1047,SAR-soap,2021.1.2,60.04389544147644,
82,Trial # 78,Group1-stimuli/group1-block1/fake-group2-b1/encoded_Group2_IMG_0475.jpg,0,encoded_Group2_IMG_0475.jpg,,,,,0.0,77.0,77.0,77.0,,,,,,,,,,,,,,,,,,,,,,,,,,,,,,,,,,,,,822.5938896480075,None,822.5938896480075,None,822.5938896480075,None,1.0,1.630280007986585,822.5938896480075,None,822.5938896480075,None,1.0,2.219231914001284,823.7770254680072,None,822.5938896480075,None,1.0,2.925521994009614,824.3774562540057,None,822.5938896480075,None,space,0.2083429179911036,2.954954660817748,None,822.5938896480075,None,822.5938896480075,None,,,,,,,,,1,2022_Mar_25_1047,SAR-soap,2021.1.2,60.04389544147644,
83,Trial # 79,Group1-stimuli/group1-block1/fake-group2-b1/encoded_Group2_IMG_9751.jpg,0,encoded_Group2_IMG_9751.jpg,,,,,0.0,78.0,78.0,78.0,,,,,,,,,,,,,,,,,,,,,,,,,,,,,,,,,,,,,825.7956718710193,None,825.7956718710193,None,825.7956718710193,None,5.0,2.297438482986763,825.7956718710193,None,825.7956718710193,None,3.0,3.819985458976589,827.6463271890243,None,825.7956718710193,None,3.0,5.859429697011365,829.1795332110196,None,825.7956718710193,None,space,0.6415573920239694,5.887722748826491,None,825.7956718710193,None,825.7956718710193,None,,,,,,,,,1,2022_Mar_25_1047,SAR-soap,2021.1.2,60.04389544147644,
84,Trial # 80,Group1-stimuli/group1-block1/fake-group2-b1/encoded_Group2_IMG_0492.jpg,0,encoded_Group2_IMG_0492.jpg,,,,,0.0,79.0,79.0,79.0,,,,,,,,,,,,,,,,,,,,,,,,,,,,,,,,,,,,,832.3798144940229,None,832.3798144940229,None,832.3798144940229,None,1.0,1.5672804659989197,832.3798144940229,None,832.3798144940229,None,1.0,1.956629694002913,833.496715154004,None,832.3798144940229,None,1.0,2.3950840950128622,833.8965619980008,None,832.3798144940229,None,space,0.1093841480033006,2.4268499987083487,None,832.3798144940229,None,832.3798144940229,None,,,,,,,,,1,2022_Mar_25_1047,SAR-soap,2021.1.2,60.04389544147644,
85,Trial # 81,Group1-stimuli/group1-block1/real-group1-b1/Group1_IMG_0535.jpg,1,Group1_IMG_0535.jpg,,,,,0.0,80.0,80.0,80.0,,,,,,,,,,,,,,,,,,,,,,,,,,,,,,,,,,,,,834.9644245420059,None,834.9644245420059,None,834.9644245420059,None,1.0,1.481234573002439,834.9644245420059,None,834.9644245420059,None,1.0,2.40298742800951,835.9987403020205,None,834.9644245420059,None,1.0,2.842444876994705,836.9318423990044,None,834.9644245420059,None,space,0.1380743100016843,2.8692691157048102,None,834.9644245420059,None,834.9644245420059,None,,,,,,,,,1,2022_Mar_25_1047,SAR-soap,2021.1.2,60.04389544147644,
86,Trial # 82,Group1-stimuli/group1-block1/real-group1-b1/Group1_IMG_0077.jpg,1,Group1_IMG_0077.jpg,,,,,0.0,81.0,81.0,81.0,,,,,,,,,,,,,,,,,,,,,,,,,,,,,,,,,,,,,838.031865736004,None,838.031865736004,None,838.031865736004,None,5.0,13.272627965983702,838.031865736004,None,838.031865736004,None,3.0,14.896634970995365,850.8536550780118,None,838.031865736004,None,4.0,16.001549164007884,852.4863694250234,None,838.031865736004,None,space,0.6050052549981046,16.032668672705768,None,838.031865736004,None,838.031865736004,None,,,,,,,,,1,2022_Mar_25_1047,SAR-soap,2021.1.2,60.04389544147644,
87,Trial # 83,Group1-stimuli/group1-block1/fake-group2-b1/encoded_Group2_IMG_9702.jpg,0,encoded_Group2_IMG_9702.jpg,,,,,0.0,82.0,82.0,82.0,,,,,,,,,,,,,,,,,,,,,,,,,,,,,,,,,,,,,854.7194925520162,None,854.7194925520162,None,854.7194925520162,None,1.0,1.5302176520053763,854.7194925520162,None,854.7194925520162,None,1.0,1.9205778320028912,855.8043646000151,None,854.7194925520162,None,1.0,2.3263277799997013,856.2045073409972,None,854.7194925520162,None,space,0.194691321987193,2.351748472690815,None,854.7194925520162,None,854.7194925520162,None,,,,,,,,,1,2022_Mar_25_1047,SAR-soap,2021.1.2,60.04389544147644,
88,Trial # 84,Group1-stimuli/group1-block1/real-group1-b1/Group1_IMG_0357.jpg,1,Group1_IMG_0357.jpg,,,,,0.0,83.0,83.0,83.0,,,,,,,,,,,,,,,,,,,,,,,,,,,,,,,,,,,,,857.3048932980164,None,857.3048932980164,None,857.3048932980164,None,1.0,1.4417381079983898,857.3048932980164,None,857.3048932980164,None,1.0,1.7983602860185783,858.2888781860238,None,857.3048932980164,None,1.0,2.5025596450141165,858.6557044800138,None,857.3048932980164,None,space,0.0842662389914039,2.5262688647781038,None,857.3048932980164,None,857.3048932980164,None,,,,,,,,,1,2022_Mar_25_1047,SAR-soap,2021.1.2,60.04389544147644,
89,Trial # 85,Group1-stimuli/group1-block1/real-group1-b1/Group1_IMG_9772.jpg,1,Group1_IMG_9772.jpg,,,,,0.0,84.0,84.0,84.0,,,,,,,,,,,,,,,,,,,,,,,,,,,,,,,,,,,,,859.956080709002,None,859.956080709002,None,859.956080709002,None,3.0,2.161643626022851,859.956080709002,None,859.956080709002,None,2.0,4.383704278996447,861.6558263360057,None,859.956080709002,None,3.0,5.189651444001356,863.8901270350034,None,859.956080709002,None,space,0.6614853600040078,5.214241789799416,None,859.956080709002,None,859.956080709002,None,,,,,,,,,1,2022_Mar_25_1047,SAR-soap,2021.1.2,60.04389544147644,
90,Trial # 86,Group1-stimuli/group1-block1/real-group1-b1/Group1_IMG_0482.jpg,1,Group1_IMG_0482.jpg,,,,,0.0,85.0,85.0,85.0,,,,,,,,,,,,,,,,,,,,,,,,,,,,,,,,,,,,,865.8746662370104,None,865.8746662370104,None,865.8746662370104,None,1.0,1.6730299170012586,865.8746662370104,None,865.8746662370104,None,1.0,2.0969934269960504,867.0913555200095,None,865.8746662370104,None,1.0,2.7006070429924875,867.5244635179988,None,865.8746662370104,None,space,0.5385988439957146,2.722992263705237,None,865.8746662370104,None,865.8746662370104,None,,,,,,,,,1,2022_Mar_25_1047,SAR-soap,2021.1.2,60.04389544147644,
91,Trial # 87,Group1-stimuli/group1-block1/real-group1-b1/Group1_IMG_0299.jpg,1,Group1_IMG_0299.jpg,,,,,0.0,86.0,86.0,86.0,,,,,,,,,,,,,,,,,,,,,,,,,,,,,,,,,,,,,869.1908129790099,None,869.1908129790099,None,869.1908129790099,None,6.0,12.770869326981485,869.1908129790099,None,869.1908129790099,None,5.0,13.376579538016813,873.6260335990228,None,869.1908129790099,None,4.0,14.916148919000989,876.2280144109973,None,869.1908129790099,None,space,6.609237560012844,8.97641572568682,None,869.1908129790099,None,869.1908129790099,None,,,,,,,,,1,2022_Mar_25_1047,SAR-soap,2021.1.2,60.04389544147644,
92,Trial # 88,Group1-stimuli/group1-block1/fake-group2-b1/encoded_Group2_IMG_0301.jpg,0,encoded_Group2_IMG_0301.jpg,,,,,0.0,87.0,87.0,87.0,,,,,,,,,,,,,,,,,,,,,,,,,,,,,,,,,,,,,884.8465022620221,None,884.8465022620221,None,884.8465022620221,None,4.0,2.6586474249779712,884.8465022620221,None,884.8465022620221,None,3.0,5.450336212001275,887.0483687510132,None,884.8465022620221,None,4.0,6.721578148019034,889.8481254620128,None,884.8465022620221,None,space,0.0195657919975928,6.74458601968945,None,884.8465022620221,None,884.8465022620221,None,,,,,,,,,1,2022_Mar_25_1047,SAR-soap,2021.1.2,60.04389544147644,
93,Trial # 89,Group1-stimuli/group1-block1/fake-group2-b1/encoded_Group2_IMG_5136.jpg,0,encoded_Group2_IMG_5136.jpg,,,,,0.0,88.0,88.0,88.0,,,,,,,,,,,,,,,,,,,,,,,,,,,,,,,,,,,,,891.6319663300237,None,891.6319663300237,None,891.6319663300237,None,6.0,4.29596868599765,891.6319663300237,None,891.6319663300237,None,4.0,7.687884404003853,895.4839106160216,None,891.6319663300237,None,6.0,8.59216228799778,898.8832559800067,None,891.6319663300237,None,space,-4.122150434006471,8.620322707836749,None,891.6319663300237,None,891.6319663300237,None,,,,,,,,,1,2022_Mar_25_1047,SAR-soap,2021.1.2,60.04389544147644,
94,Trial # 90,Group1-stimuli/group1-block1/real-group1-b1/Group1_IMG_0460.jpg,1,Group1_IMG_0460.jpg,,,,,0.0,89.0,89.0,89.0,,,,,,,,,,,,,,,,,,,,,,,,,,,,,,,,,,,,,900.3184615370119,None,900.3184615370119,None,900.3184615370119,None,6.0,2.935882082005264,900.3184615370119,None,900.3184615370119,None,5.0,4.424282595980912,902.8018782940052,None,900.3184615370119,None,3.0,5.663933456002269,904.3019901730004,None,900.3184615370119,None,space,-5.665977892000228,5.699065147491638,None,900.3184615370119,None,900.3184615370119,None,,,,,,,,,1,2022_Mar_25_1047,SAR-soap,2021.1.2,60.04389544147644,
95,Trial # 91,Group1-stimuli/group1-block1/fake-group2-b1/encoded_Group2_IMG_0068.jpg,0,encoded_Group2_IMG_0068.jpg,,,,,0.0,90.0,90.0,90.0,,,,,,,,,,,,,,,,,,,,,,,,,,,,,,,,,,,,,906.036273856007,None,906.036273856007,None,906.036273856007,None,6.0,3.969548738998128,906.036273856007,None,906.036273856007,None,4.0,5.694385774986586,909.55426937202,None,906.036273856007,None,6.0,8.33170479099499,911.2884861740168,None,906.036273856007,None,space,-8.250891891977517,8.367010397661943,None,906.036273856007,None,906.036273856007,None,,,,,,,,,1,2022_Mar_25_1047,SAR-soap,2021.1.2,60.04389544147644,
96,Trial # 92,Group1-stimuli/group1-block1/real-group1-b1/Group1_IMG_0337.jpg,1,Group1_IMG_0337.jpg,,,,,0.0,91.0,91.0,91.0,,,,,,,,,,,,,,,,,,,,,,,,,,,,,,,,,,,,,914.4221697900211,None,914.4221697900211,None,914.4221697900211,None,1.0,1.6175213560054544,914.4221697900211,None,914.4221697900211,None,1.0,2.407990379986586,915.5901985910024,None,914.4221697900211,None,1.0,2.9451763420074712,916.390321348008,None,914.4221697900211,None,space,-2.8521680969861336,2.977339134697104,None,914.4221697900211,None,914.4221697900211,None,,,,,,,,,1,2022_Mar_25_1047,SAR-soap,2021.1.2,60.04389544147644,
97,Trial # 93,Group1-stimuli/group1-block1/fake-group2-b1/encoded_Group2_IMG_0346.jpg,0,encoded_Group2_IMG_0346.jpg,,,,,0.0,92.0,92.0,92.0,,,,,,,,,,,,,,,,,,,,,,,,,,,,,,,,,,,,,917.4233510890044,None,917.4233510890044,None,917.4233510890044,None,1.0,1.4782182180206291,917.4233510890044,None,917.4233510890044,None,1.0,1.8676346350112,918.4401079930248,None,917.4233510890044,None,1.0,2.440340720000677,918.8396946710128,None,917.4233510890044,None,space,-2.3357090019853786,2.466374576819362,None,917.4233510890044,None,917.4233510890044,None,,,,,,,,,1,2022_Mar_25_1047,SAR-soap,2021.1.2,60.04389544147644,
98,Trial # 94,Group1-stimuli/group1-block1/real-group1-b1/Group1_IMG_4253.jpg,1,Group1_IMG_4253.jpg,,,,,0.0,93.0,93.0,93.0,,,,,,,,,,,,,,,,,,,,,,,,,,,,,,,,,,,,,919.9243338890084,None,919.9243338890084,None,919.9243338890084,None,5.0,2.393551408982603,919.9243338890084,None,919.9243338890084,None,4.0,4.715170687006321,921.8583236590202,None,919.9243338890084,None,3.0,7.223039873992093,924.1913883240196,None,919.9243338890084,None,space,-7.133352055010619,7.24538515767199,None,919.9243338890084,None,919.9243338890084,None,,,,,,,,,1,2022_Mar_25_1047,SAR-soap,2021.1.2,60.04389544147644,
99,Trial # 95,Group1-stimuli/group1-block1/fake-group2-b1/encoded_Group2_IMG_9280.jpg,0,encoded_Group2_IMG_9280.jpg,,,,,0.0,94.0,94.0,94.0,,,,,,,,,,,,,,,,,,,,,,,,,,,,,,,,,,,,,927.1768481670006,None,927.1768481670006,None,927.1768481670006,None,3.0,3.197868474991992,927.1768481670006,None,927.1768481670006,None,3.0,5.720886722003343,929.9276651249966,None,927.1768481670006,None,5.0,7.291920180985471,932.460877000005,None,927.1768481670006,None,space,-7.124702098983107,7.320439696806716,None,927.1768481670006,None,927.1768481670006,None,,,,,,,,,1,2022_Mar_25_1047,SAR-soap,2021.1.2,60.04389544147644,
100,Trial # 96,Group1-stimuli/group1-block1/real-group1-b1/Group1_IMG_0417.jpg,1,Group1_IMG_0417.jpg,,,,,0.0,95.0,95.0,95.0,,,,,,,,,,,,,,,,,,,,,,,,,,,,,,,,,,,,,934.5276022780164,None,934.5276022780164,None,934.5276022780164,None,5.0,1.9786604309920224,934.5276022780164,None,934.5276022780164,None,2.0,3.80273048998788,936.046785516024,None,934.5276022780164,None,2.0,5.407722812000429,937.8787301359988,None,934.5276022780164,None,space,-5.400296492996858,5.433760103827808,None,934.5276022780164,None,934.5276022780164,None,,,,,,,,,1,2022_Mar_25_1047,SAR-soap,2021.1.2,60.04389544147644,
101,Trial # 97,Group1-stimuli/group1-block1/fake-group2-b1/encoded_Group2_IMG_9695.jpg,0,encoded_Group2_IMG_9695.jpg,,,,,0.0,96.0,96.0,96.0,,,,,,,,,,,,,,,,,,,,,,,,,,,,,,,,,,,,,939.9639172560128,None,939.9639172560128,None,939.9639172560128,None,1.0,2.297617164003896,939.9639172560128,None,939.9639172560128,None,1.0,2.686371881980449,941.814932977024,None,939.9639172560128,None,1.0,3.292360865976661,942.2147146150236,None,939.9639172560128,None,space,-3.127375915995799,3.319098825828405,None,939.9639172560128,None,939.9639172560128,None,,,,,,,,,1,2022_Mar_25_1047,SAR-soap,2021.1.2,60.04389544147644,
102,Trial # 98,Group1-stimuli/group1-block1/real-group1-b1/Group1_IMG_1160.jpg,1,Group1_IMG_1160.jpg,,,,,0.0,97.0,97.0,97.0,,,,,,,,,,,,,,,,,,,,,,,,,,,,,,,,,,,,,943.3315920490132,None,943.3315920490132,None,943.3315920490132,None,6.0,9.453975010983411,943.3315920490132,None,943.3315920490132,None,3.0,11.278925136983162,952.3350925070116,None,943.3315920490132,None,5.0,12.48411488698912,954.1675145510236,None,943.3315920490132,None,space,-12.377937136974651,12.517733401589794,None,943.3315920490132,None,943.3315920490132,None,,,,,,,,,1,2022_Mar_25_1047,SAR-soap,2021.1.2,60.04389544147644,
103,Trial # 99,Group1-stimuli/group1-block1/real-group1-b1/Group1_IMG_0448.jpg,1,Group1_IMG_0448.jpg,,,,,0.0,98.0,98.0,98.0,,,,,,,,,,,,,,,,,,,,,,,,,,,,,,,,,,,,,955.8857801450068,None,955.8857801450068,None,955.8857801450068,None,6.0,6.479013694013702,955.8857801450068,None,955.8857801450068,None,3.0,14.469829098990886,961.9040289290132,None,955.8857801450068,None,3.0,15.409799404005753,967.271721385012,None,955.8857801450068,None,space,0.0959173449955415,15.433684909687145,None,955.8857801450068,None,955.8857801450068,None,,,,,,,,,1,2022_Mar_25_1047,SAR-soap,2021.1.2,60.04389544147644,
104,Trial # 100,Group1-stimuli/group1-block1/fake-group2-b1/encoded_Group2_IMG_0393.jpg,0,encoded_Group2_IMG_0393.jpg,,,,,0.0,99.0,99.0,99.0,,,,,,,,,,,,,,,,,,,,,,,,,,,,,,,,,,,,,971.4238251290226,None,971.4238251290226,None,971.4238251290226,None,5.0,2.412749207986053,971.4238251290226,None,971.4238251290226,None,3.0,5.968616138998186,973.3903134810098,None,971.4238251290226,None,4.0,7.308352056017611,976.958789147,None,971.4238251290226,None,space,0.8910674120124895,7.335782543814275,None,971.4238251290226,None,971.4238251290226,None,,,,,,,,,1,2022_Mar_25_1047,SAR-soap,2021.1.2,60.04389544147644,
105,Trial # 101,Group1-stimuli/group1-block1/real-group1-b1/Group1_IMG_0090.jpg,1,Group1_IMG_0090.jpg,,,,,0.0,100.0,100.0,100.0,,,,,,,,,,,,,,,,,,,,,,,,,,,,,,,,,,,,,979.7578569650068,None,979.7578569650068,None,979.7578569650068,None,1.0,1.610689599008765,979.7578569650068,None,979.7578569650068,None,1.0,1.9682352550153157,980.9095494630164,None,979.7578569650068,None,1.0,2.571986171999015,981.2765036600176,None,979.7578569650068,None,space,0.162662379007088,2.598136263375636,None,979.7578569650068,None,979.7578569650068,None,,,,,,,,,1,2022_Mar_25_1047,SAR-soap,2021.1.2,60.04389544147644,
106,Trial # 102,Group1-stimuli/group1-block1/real-group1-b1/Group1_IMG_0310.jpg,1,Group1_IMG_0310.jpg,,,,,0.0,101.0,101.0,101.0,,,,,,,,,,,,,,,,,,,,,,,,,,,,,,,,,,,,,982.5436851370032,None,982.5436851370032,None,982.5436851370032,None,1.0,1.4747302329924423,982.5436851370032,None,982.5436851370032,None,1.0,2.0643119740125258,983.5599748340028,None,982.5436851370032,None,1.0,2.5354915549978614,984.160451221018,None,982.5436851370032,None,space,0.0761949720035772,2.5588909778161906,None,982.5436851370032,None,982.5436851370032,None,,,,,,,,,1,2022_Mar_25_1047,SAR-soap,2021.1.2,60.04389544147644,
107,Trial # 103,Group1-stimuli/group1-block1/fake-group2-b1/encoded_Group2_IMG_0528.jpg,0,encoded_Group2_IMG_0528.jpg,,,,,0.0,102.0,102.0,102.0,,,,,,,,,,,,,,,,,,,,,,,,,,,,,,,,,,,,,985.228017314017,None,985.228017314017,None,985.228017314017,None,4.0,2.432980340992799,985.228017314017,None,985.228017314017,None,2.0,3.689055402006488,987.211283757002,None,985.228017314017,None,2.0,6.696805938001489,988.478180235019,None,985.228017314017,None,space,0.1514265760197304,6.726284342701547,None,985.228017314017,None,985.228017314017,None,,,,,,,,,1,2022_Mar_25_1047,SAR-soap,2021.1.2,60.04389544147644,
108,Trial # 104,Group1-stimuli/group1-block1/fake-group2-b1/encoded_Group2_IMG_1975.jpg,0,encoded_Group2_IMG_1975.jpg,,,,,0.0,103.0,103.0,103.0,,,,,,,,,,,,,,,,,,,,,,,,,,,,,,,,,,,,,992.1289704780212,None,992.1289704780212,None,992.1289704780212,None,1.0,1.6283514309907332,992.1289704780212,None,992.1289704780212,None,1.0,1.9861183070170227,993.3128148740216,None,992.1289704780212,None,1.0,2.389711730997078,993.679965975025,None,992.1289704780212,None,space,0.111448151001241,2.4176607968111057,None,992.1289704780212,None,992.1289704780212,None,,,,,,,,,1,2022_Mar_25_1047,SAR-soap,2021.1.2,60.04389544147644,
109,Trial # 105,Group1-stimuli/group1-block1/fake-group2-b1/encoded_Group2_IMG_0052.jpg,0,encoded_Group2_IMG_0052.jpg,,,,,0.0,104.0,104.0,104.0,,,,,,,,,,,,,,,,,,,,,,,,,,,,,,,,,,,,,994.7138078420248,None,994.7138078420248,None,994.7138078420248,None,1.0,1.425689769996097,994.7138078420248,None,994.7138078420248,None,1.0,2.148608710995177,995.6807051320212,None,994.7138078420248,None,1.0,2.586405154987005,996.414072833024,None,994.7138078420248,None,space,0.1106233249884098,2.610519569832832,None,994.7138078420248,None,994.7138078420248,None,,,,,,,,,1,2022_Mar_25_1047,SAR-soap,2021.1.2,60.04389544147644,
110,Trial # 106,Group1-stimuli/group1-block1/fake-group2-b1/encoded_Group2_IMG_0225.jpg,0,encoded_Group2_IMG_0225.jpg,,,,,0.0,105.0,105.0,105.0,,,,,,,,,,,,,,,,,,,,,,,,,,,,,,,,,,,,,997.464942517021,None,997.464942517021,None,997.464942517021,None,4.0,2.9468274890095927,997.464942517021,None,997.464942517021,None,2.0,4.136492775025545,999.9665488820174,None,997.464942517021,None,3.0,5.274910776002798,1001.1656504700076,None,997.464942517021,None,space,0.1481440430216025,5.302333216794068,None,997.464942517021,None,997.464942517021,None,,,,,,,,,1,2022_Mar_25_1047,SAR-soap,2021.1.2,60.04389544147644,
111,Trial # 107,Group1-stimuli/group1-block1/real-group1-b1/Group1_IMG_2231.jpg,1,Group1_IMG_2231.jpg,,,,,0.0,106.0,106.0,106.0,,,,,,,,,,,,,,,,,,,,,,,,,,,,,,,,,,,,,1002.966797889996,None,1002.966797889996,None,1002.966797889996,None,5.0,3.5666293909889646,1002.966797889996,None,1002.966797889996,None,3.0,6.922505489987088,1006.0853507770224,None,1002.966797889996,None,4.0,8.163838216976728,1009.4510049899982,None,1002.966797889996,None,space,0.0500235230138059,8.19253808868234,None,1002.966797889996,None,1002.966797889996,None,,,,,,,,,1,2022_Mar_25_1047,SAR-soap,2021.1.2,60.04389544147644,
112,Trial # 108,Group1-stimuli/group1-block1/real-group1-b1/Group1_IMG_0217.jpg,1,Group1_IMG_0217.jpg,,,,,0.0,107.0,107.0,107.0,,,,,,,,,,,,,,,,,,,,,,,,,,,,,,,,,,,,,1011.2519441000186,None,1011.2519441000186,None,1011.2519441000186,None,5.0,2.858836995001184,1011.2519441000186,None,1011.2519441000186,None,3.0,5.049365465994924,1013.6521786200174,None,1011.2519441000186,None,3.0,6.120329868979752,1015.8537129129982,None,1011.2519441000186,None,space,0.1505116010084748,6.146818504814291,None,1011.2519441000186,None,1011.2519441000186,None,,,,,,,,,1,2022_Mar_25_1047,SAR-soap,2021.1.2,60.04389544147644,
113,Trial # 109,Group1-stimuli/group1-block1/real-group1-b1/Group1_IMG_0264.jpg,1,Group1_IMG_0264.jpg,,,,,0.0,108.0,108.0,108.0,,,,,,,,,,,,,,,,,,,,,,,,,,,,,,,,,,,,,1017.5868142929976,None,1017.5868142929976,None,1017.5868142929976,None,6.0,2.678298953018384,1017.5868142929976,None,1017.5868142929976,None,5.0,4.903686342993751,1019.8228879260132,None,1017.5868142929976,None,4.0,6.841940665006405,1022.055269516015,None,1017.5868142929976,None,space,0.1141178919933736,6.868819431721931,None,1017.5868142929976,None,1017.5868142929976,None,,,,,,,,,1,2022_Mar_25_1047,SAR-soap,2021.1.2,60.04389544147644,
114,Trial # 110,Group1-stimuli/group1-block1/fake-group2-b1/encoded_Group2_IMG_0254.jpg,0,encoded_Group2_IMG_0254.jpg,,,,,0.0,109.0,109.0,109.0,,,,,,,,,,,,,,,,,,,,,,,,,,,,,,,,,,,,,1024.60574786301,None,1024.60574786301,None,1024.60574786301,None,1.0,1.781402042019181,1024.60574786301,None,1024.60574786301,None,1.0,2.204677456000354,1025.9402371350152,None,1024.60574786301,None,1.0,2.742216996004572,1026.3733609000046,None,1024.60574786301,None,space,0.0998091360088437,2.771177506831009,None,1024.60574786301,None,1024.60574786301,None,,,,,,,,,1,2022_Mar_25_1047,SAR-soap,2021.1.2,60.04389544147644,
115,Trial # 111,Group1-stimuli/group1-block1/fake-group2-b1/encoded_Group2_IMG_5433.jpg,0,encoded_Group2_IMG_5433.jpg,,,,,0.0,110.0,110.0,110.0,,,,,,,,,,,,,,,,,,,,,,,,,,,,,,,,,,,,,1027.489885854011,None,1027.489885854011,None,1027.489885854011,None,1.0,1.3610194380162284,1027.489885854011,None,1027.489885854011,None,1.0,1.8845868190110195,1028.4080063680012,None,1027.489885854011,None,1.0,2.8904847819940187,1028.9404778370226,None,1027.489885854011,None,space,0.1060085839999374,2.9167647038120776,None,1027.489885854011,None,1027.489885854011,None,,,,,,,,,1,2022_Mar_25_1047,SAR-soap,2021.1.2,60.04389544147644,
116,Trial # 112,Group1-stimuli/group1-block1/real-group1-b1/Group1_IMG_0252.jpg,1,Group1_IMG_0252.jpg,,,,,0.0,111.0,111.0,111.0,,,,,,,,,,,,,,,,,,,,,,,,,,,,,,,,,,,,,1030.575248216017,None,1030.575248216017,None,1030.575248216017,None,1.0,1.5493909179931509,1030.575248216017,None,1030.575248216017,None,1.0,2.138555434998125,1031.6754140900157,None,1030.575248216017,None,1.0,2.6767823319823947,1032.275370593008,None,1030.575248216017,None,space,0.1190772600239142,2.7067677696759347,None,1030.575248216017,None,1030.575248216017,None,,,,,,,,,1,2022_Mar_25_1047,SAR-soap,2021.1.2,60.04389544147644,
117,Trial # 113,Group1-stimuli/group1-block1/real-group1-b1/Group1_IMG_9720.jpg,1,Group1_IMG_9720.jpg,,,,,0.0,112.0,112.0,112.0,,,,,,,,,,,,,,,,,,,,,,,,,,,,,,,,,,,,,1033.441829538002,None,1033.441829538002,None,1033.441829538002,None,7.0,2.727237665996654,1033.441829538002,None,1033.441829538002,None,6.0,5.516966238996247,1035.7103832070134,None,1033.441829538002,None,4.0,6.890105175989447,1038.509761580004,None,1033.441829538002,None,space,0.1215726530062966,6.9119791128032375,None,1033.441829538002,None,1033.441829538002,None,,,,,,,,,1,2022_Mar_25_1047,SAR-soap,2021.1.2,60.04389544147644,
118,Trial # 114,Group1-stimuli/group1-block1/fake-group2-b1/encoded_Group2_IMG_0550.jpg,0,encoded_Group2_IMG_0550.jpg,,,,,0.0,113.0,113.0,113.0,,,,,,,,,,,,,,,,,,,,,,,,,,,,,,,,,,,,,1040.494153243024,None,1040.494153243024,None,1040.494153243024,None,1.0,1.6978030950122047,1040.494153243024,None,1040.494153243024,None,1.0,2.1201606879767496,1041.7444142450113,None,1040.494153243024,None,1.0,3.091602074011462,1042.179106755997,None,1040.494153243024,None,space,0.1814495099824853,3.1204325637954757,None,1040.494153243024,None,1040.494153243024,None,,,,,,,,,1,2022_Mar_25_1047,SAR-soap,2021.1.2,60.04389544147644,
119,Trial # 115,Group1-stimuli/group1-block1/real-group1-b1/Group1_IMG_9915.jpg,1,Group1_IMG_9915.jpg,,,,,0.0,114.0,114.0,114.0,,,,,,,,,,,,,,,,,,,,,,,,,,,,,,,,,,,,,1043.8448620570125,None,1043.8448620570125,None,1043.8448620570125,None,1.0,1.479341730999295,1043.8448620570125,None,1043.8448620570125,None,1.0,1.869780698994873,1044.8791491300217,None,1043.8448620570125,None,1.0,2.275090001989156,1045.2801668930042,None,1043.8448620570125,None,space,0.2155913290043827,2.302348494704347,None,1043.8448620570125,None,1043.8448620570125,None,,,,,,,,,1,2022_Mar_25_1047,SAR-soap,2021.1.2,60.04389544147644,
120,Trial # 116,Group1-stimuli/group1-block1/real-group1-b1/Group1_IMG_9850.jpg,1,Group1_IMG_9850.jpg,,,,,0.0,115.0,115.0,115.0,,,,,,,,,,,,,,,,,,,,,,,,,,,,,,,,,,,,,1046.4135692850105,None,1046.4135692850105,None,1046.4135692850105,None,1.0,1.3794739570003005,1046.4135692850105,None,1046.4135692850105,None,1.0,1.8027774000074717,1047.3474853630178,None,1046.4135692850105,None,1.0,2.5075837500044145,1047.7802136120154,None,1046.4135692850105,None,space,0.143573750014184,2.535123529698467,None,1046.4135692850105,None,1046.4135692850105,None,,,,,,,,,1,2022_Mar_25_1047,SAR-soap,2021.1.2,60.04389544147644,
121,Trial # 117,Group1-stimuli/group1-block1/real-group1-b1/Group1_IMG_3579.jpg,1,Group1_IMG_3579.jpg,,,,,0.0,116.0,116.0,116.0,,,,,,,,,,,,,,,,,,,,,,,,,,,,,,,,,,,,,1049.1471918980242,None,1049.1471918980242,None,1049.1471918980242,None,5.0,2.0030418960086536,1049.1471918980242,None,1049.1471918980242,None,3.0,3.258816340996418,1050.6991673209995,None,1049.1471918980242,None,4.0,4.197407622996252,1051.9644570189994,None,1049.1471918980242,None,space,0.109388092008885,4.232061972725205,None,1049.1471918980242,None,1049.1471918980242,None,,,,,,,,,1,2022_Mar_25_1047,SAR-soap,2021.1.2,60.04389544147644,
122,Trial # 118,Group1-stimuli/group1-block1/fake-group2-b1/encoded_Group2_IMG_0377.jpg,0,encoded_Group2_IMG_0377.jpg,,,,,0.0,117.0,117.0,117.0,,,,,,,,,,,,,,,,,,,,,,,,,,,,,,,,,,,,,1053.515220715024,None,1053.515220715024,None,1053.515220715024,None,1.0,1.5638090319989717,1053.515220715024,None,1053.515220715024,None,1.0,1.8872041080030613,1054.6322108030145,None,1053.515220715024,None,1.0,2.458896208991064,1054.9661867600223,None,1053.515220715024,None,space,0.1308584139915183,2.4857596538204234,None,1053.515220715024,None,1053.515220715024,None,,,,,,,,,1,2022_Mar_25_1047,SAR-soap,2021.1.2,60.04389544147644,
123,Trial # 119,Group1-stimuli/group1-block1/real-group1-b1/Group1_IMG_0469.jpg,1,Group1_IMG_0469.jpg,,,,,0.0,118.0,118.0,118.0,,,,,,,,,,,,,,,,,,,,,,,,,,,,,,,,,,,,,1056.1660487820045,None,1056.1660487820045,None,1056.1660487820045,None,1.0,1.993860290007433,1056.1660487820045,None,1056.1660487820045,None,1.0,2.6178288309893105,1057.700013071997,None,1056.1660487820045,None,1.0,3.423318544984795,1058.332990089024,None,1056.1660487820045,None,space,0.1307027179864235,3.4457085747853853,None,1056.1660487820045,None,1056.1660487820045,None,,,,,,,,,1,2022_Mar_25_1047,SAR-soap,2021.1.2,60.04389544147644,
124,Trial # 120,Group1-stimuli/group1-block1/fake-group2-b1/encoded_Group2_IMG_0100.jpg,0,encoded_Group2_IMG_0100.jpg,,,,,0.0,119.0,119.0,119.0,,,,,,,,,,,,,,,,,,,,,,,,,,,,,,,,,,,,,1059.7664010440058,None,1059.7664010440058,None,1059.7664010440058,None,1.0,1.5014996319951024,1059.7664010440058,None,1059.7664010440058,None,1.0,1.924001729988959,1060.8178418960017,None,1059.7664010440058,None,1.0,2.4967244019790087,1061.2514127450122,None,1059.7664010440058,None,space,0.1327471199911087,2.5286845747032203,None,1059.7664010440058,None,1059.7664010440058,None,,,,,,,,,1,2022_Mar_25_1047,SAR-soap,2021.1.2,60.04389544147644,
125,Trial # 121,Group1-stimuli/group1-block1/real-group1-b1/Group1_IMG_5359.jpg,1,Group1_IMG_5359.jpg,,,,,0.0,120.0,120.0,120.0,,,,,,,,,,,,,,,,,,,,,,,,,,,,,,,,,,,,,1062.4840976039995,None,1062.4840976039995,None,1062.4840976039995,None,2.0,4.736369260004722,1062.4840976039995,None,1062.4840976039995,None,2.0,5.724852730985731,1066.770086414006,None,1062.4840976039995,None,3.0,7.065042500005802,1067.769975659001,None,1062.4840976039995,None,space,0.1523206009878777,7.09592900169082,None,1062.4840976039995,None,1062.4840976039995,None,,,,,,,,,1,2022_Mar_25_1047,SAR-soap,2021.1.2,60.04389544147644,
126,Trial # 122,Group1-stimuli/group1-block1/fake-group2-b1/encoded_Group2_IMG_0304.jpg,0,encoded_Group2_IMG_0304.jpg,,,,,0.0,121.0,121.0,121.0,,,,,,,,,,,,,,,,,,,,,,,,,,,,,,,,,,,,,1069.7529052770117,None,1069.7529052770117,None,1069.7529052770117,None,5.0,2.1821962560061365,1069.7529052770117,None,1069.7529052770117,None,3.0,5.572990723012481,1071.4882460910012,None,1069.7529052770117,None,3.0,7.543929661012953,1074.888452854997,None,1069.7529052770117,None,space,0.1109342660056427,7.572875813784776,None,1069.7529052770117,None,1069.7529052770117,None,,,,,,,,,1,2022_Mar_25_1047,SAR-soap,2021.1.2,60.04389544147644,
127,Trial # 123,Group1-stimuli/group1-block1/real-group1-b1/Group1_IMG_0306.jpg,1,Group1_IMG_0306.jpg,,,,,0.0,122.0,122.0,122.0,,,,,,,,,,,,,,,,,,,,,,,,,,,,,,,,,,,,,1077.489179369004,None,1077.489179369004,None,1077.489179369004,None,6.0,1.964514653023798,1077.489179369004,None,1077.489179369004,None,5.0,4.1549228509829845,1079.0061956240097,None,1077.489179369004,None,4.0,6.1265152690175455,1081.2080182000063,None,1077.489179369004,None,space,0.297169785015285,6.15562660669093,None,1077.489179369004,None,1077.489179369004,None,,,,,,,,,1,2022_Mar_25_1047,SAR-soap,2021.1.2,60.04389544147644,
128,Trial # 124,Group1-stimuli/group1-block1/real-group1-b1/Group1_IMG_0224.jpg,1,Group1_IMG_0224.jpg,,,,,0.0,123.0,123.0,123.0,,,,,,,,,,,,,,,,,,,,,,,,,,,,,,,,,,,,,1083.9736535139964,None,1083.9736535139964,None,1083.9736535139964,None,3.0,20.070252458011964,1083.9736535139964,None,1083.9736535139964,None,4.0,21.226293464016635,1103.5976720850158,None,1083.9736535139964,None,3.0,22.265455982007552,1104.764483995008,None,1083.9736535139964,None,space,0.1924914050032384,22.294344558700686,None,1083.9736535139964,None,1083.9736535139964,None,,,,,,,,,1,2022_Mar_25_1047,SAR-soap,2021.1.2,60.04389544147644,
129,Trial # 125,Group1-stimuli/group1-block1/real-group1-b1/Group1_IMG_9889.jpg,1,Group1_IMG_9889.jpg,,,,,0.0,124.0,124.0,124.0,,,,,,,,,,,,,,,,,,,,,,,,,,,,,,,,,,,,,1106.498071064998,None,1106.498071064998,None,1106.498071064998,None,1.0,1.542873647005763,1106.498071064998,None,1106.498071064998,None,1.0,1.9331408689904488,1107.5824113140116,None,1106.498071064998,None,1.0,2.7061977799749,1107.9814969400177,None,1106.498071064998,None,space,0.1066756079962942,2.73046358578722,None,1106.498071064998,None,1106.498071064998,None,,,,,,,,,1,2022_Mar_25_1047,SAR-soap,2021.1.2,60.04389544147644,
130,Trial # 126,Group1-stimuli/group1-block1/real-group1-b1/Group1_IMG_0293.jpg,1,Group1_IMG_0293.jpg,,,,,0.0,125.0,125.0,125.0,,,,,,,,,,,,,,,,,,,,,,,,,,,,,,,,,,,,,1109.3823436649982,None,1109.3823436649982,None,1109.3823436649982,None,1.0,1.2509151990234386,1109.3823436649982,None,1109.3823436649982,None,1.0,1.7080617540050298,1110.183782461012,None,1109.3823436649982,None,1.0,2.1122423259948846,1110.650372099015,None,1109.3823436649982,None,space,0.2213643939758185,2.143448075687047,None,1109.3823436649982,None,1109.3823436649982,None,,,,,,,,,1,2022_Mar_25_1047,SAR-soap,2021.1.2,60.04389544147644,
131,Trial # 127,Group1-stimuli/group1-block1/fake-group2-b1/encoded_Group2_IMG_0321.jpg,0,encoded_Group2_IMG_0321.jpg,,,,,0.0,126.0,126.0,126.0,,,,,,,,,,,,,,,,,,,,,,,,,,,,,,,,,,,,,1111.782627386012,None,1111.782627386012,None,1111.782627386012,None,1.0,1.4559282769914716,1111.782627386012,None,1111.782627386012,None,1.0,1.911377832002472,1112.784042090003,None,1111.782627386012,None,1.0,2.34947036000085,1113.2499751930009,None,1111.782627386012,None,space,0.3638308570079971,2.369924730825005,None,1111.782627386012,None,1111.782627386012,None,,,,,,,,,1,2022_Mar_25_1047,SAR-soap,2021.1.2,60.04389544147644,
132,Trial # 128,Group1-stimuli/group1-block1/fake-group2-b1/encoded_Group2_IMG_0400.jpg,0,encoded_Group2_IMG_0400.jpg,,,,,0.0,127.0,127.0,127.0,,,,,,,,,,,,,,,,,,,,,,,,,,,,,,,,,,,,,1114.5341204400174,None,1114.5341204400174,None,1114.5341204400174,None,2.0,2.699014475016156,1114.5341204400174,None,1114.5341204400174,None,2.0,4.003235184005462,1116.202301731013,None,1114.5341204400174,None,3.0,6.010249340994051,1118.1014846120088,None,1114.5341204400174,None,space,0.7492443799856119,5.5374580068164505,None,1114.5341204400174,None,1114.5341204400174,None,,,,,,,,,1,2022_Mar_25_1047,SAR-soap,2021.1.2,60.04389544147644,
133,Trial # 129,Group1-stimuli/group1-block1/fake-group2-b1/encoded_Group2_IMG_0443.jpg,0,encoded_Group2_IMG_0443.jpg,,,,,0.0,128.0,128.0,128.0,,,,,,,,,,,,,,,,,,,,,,,,,,,,,,,,,,,,,1120.8700011580077,None,1120.8700011580077,None,1120.8700011580077,None,6.0,2.13221185002476,1120.8700011580077,None,1120.8700011580077,None,5.0,3.5220597540028398,1122.5525472820154,None,1120.8700011580077,None,4.0,5.030163009010721,1123.95332675401,None,1120.8700011580077,None,space,0.1044922050205059,5.059490460698726,None,1120.8700011580077,None,1120.8700011580077,None,,,,,,,,,1,2022_Mar_25_1047,SAR-soap,2021.1.2,60.04389544147644,
134,Trial # 130,Group1-stimuli/group1-block1/fake-group2-b1/encoded_Group2_IMG_0542.jpg,0,encoded_Group2_IMG_0542.jpg,,,,,0.0,129.0,129.0,129.0,,,,,,,,,,,,,,,,,,,,,,,,,,,,,,,,,,,,,1126.071570606,None,1126.071570606,None,1126.071570606,None,1.0,1.6467792080075014,1126.071570606,None,1126.071570606,None,1.0,2.7033508590247948,1127.2719431400185,None,1126.071570606,None,1.0,3.4410298529837746,1128.3381504700228,None,1126.071570606,None,space,0.1114404590043705,3.4698278888245118,None,1126.071570606,None,1126.071570606,None,,,,,,,,,1,2022_Mar_25_1047,SAR-soap,2021.1.2,60.04389544147644,
135,Trial # 131,Group1-stimuli/group1-block1/real-group1-b1/Group1_IMG_0885.jpg,1,Group1_IMG_0885.jpg,,,,,0.0,130.0,130.0,130.0,,,,,,,,,,,,,,,,,,,,,,,,,,,,,,,,,,,,,1129.704483360023,None,1129.704483360023,None,1129.704483360023,None,5.0,4.080878080014372,1129.704483360023,None,1129.704483360023,None,5.0,5.838648884993745,1133.340531468013,None,1129.704483360023,None,5.0,39.65405603501131,1135.107622032025,None,1129.704483360023,None,space,20.23444475000724,39.68075106668402,None,1129.704483360023,None,1129.704483360023,None,,,,,,,,,1,2022_Mar_25_1047,SAR-soap,2021.1.2,60.04389544147644,
136,Trial # 132,Group1-stimuli/group1-block1/real-group1-b1/Group1_IMG_0375.jpg,1,Group1_IMG_0375.jpg,,,,,0.0,131.0,131.0,131.0,,,,,,,,,,,,,,,,,,,,,,,,,,,,,,,,,,,,,1189.6568448750186,None,1189.6568448750186,None,1189.6568448750186,None,1.0,2.1278672670014203,1189.6568448750186,None,1189.6568448750186,None,1.0,2.618199892982375,1191.325250704016,None,1189.6568448750186,None,1.0,3.1565500540018547,1191.8243892860191,None,1189.6568448750186,None,space,0.7055577219871338,3.181178617815021,None,1189.6568448750186,None,1189.6568448750186,None,,,,,,,,,1,2022_Mar_25_1047,SAR-soap,2021.1.2,60.04389544147644,
137,Trial # 133,Group1-stimuli/group1-block1/fake-group2-b1/encoded_Group2_IMG_7351.jpg,0,encoded_Group2_IMG_7351.jpg,,,,,0.0,132.0,132.0,132.0,,,,,,,,,,,,,,,,,,,,,,,,,,,,,,,,,,,,,1193.5754517640162,None,1193.5754517640162,None,1193.5754517640162,None,3.0,10.000013976998162,1193.5754517640162,None,1193.5754517640162,None,1.0,2.538138153002365,1195.309334977006,None,1193.5754517640162,None,3.0,6.90970293598366,1195.6763047190034,None,1193.5754517640162,None,space,4.880228679976426,5.637593556806678,None,1193.5754517640162,None,1193.5754517640162,None,,,,,,,,,1,2022_Mar_25_1047,SAR-soap,2021.1.2,60.04389544147644,
138,Trial # 134,Group1-stimuli/group1-block1/fake-group2-b1/encoded_Group2_IMG_0416.jpg,0,encoded_Group2_IMG_0416.jpg,,,,,0.0,133.0,133.0,133.0,,,,,,,,,,,,,,,,,,,,,,,,,,,,,,,,,,,,,1204.177411591023,None,1204.177411591023,None,1204.177411591023,None,4.0,2.492878005024977,1204.177411591023,None,1204.177411591023,None,3.0,4.515237073006574,1206.2125115600063,None,1204.177411591023,None,2.0,7.488682322989916,1208.2457654720056,None,1204.177411591023,None,space,0.1046807399834506,7.511969529587077,None,1204.177411591023,None,1204.177411591023,None,,,,,,,,,1,2022_Mar_25_1047,SAR-soap,2021.1.2,60.04389544147644,
139,Trial # 135,Group1-stimuli/group1-block1/fake-group2-b1/encoded_Group2_IMG_0139.jpg,0,encoded_Group2_IMG_0139.jpg,,,,,0.0,134.0,134.0,134.0,,,,,,,,,,,,,,,,,,,,,,,,,,,,,,,,,,,,,1211.8313447890105,None,1211.8313447890105,None,1211.8313447890105,None,1.0,1.512548730999697,1211.8313447890105,None,1211.8313447890105,None,1.0,2.1362437320058234,1212.8980570610147,None,1211.8313447890105,None,1.0,2.80745898099849,1213.5311244589975,None,1211.8313447890105,None,space,0.3374809119850397,2.836185400839895,None,1211.8313447890105,None,1211.8313447890105,None,,,,,,,,,1,2022_Mar_25_1047,SAR-soap,2021.1.2,60.04389544147644,
140,Trial # 136,Group1-stimuli/group1-block1/real-group1-b1/Group1_IMG_9677.jpg,1,Group1_IMG_9677.jpg,,,,,0.0,135.0,135.0,135.0,,,,,,,,,,,,,,,,,,,,,,,,,,,,,,,,,,,,,1215.0653904830106,None,1215.0653904830106,None,1215.0653904830106,None,1.0,1.6023234430176672,1215.0653904830106,None,1215.0653904830106,None,1.0,2.0916119079920463,1216.2160316689988,None,1215.0653904830106,None,1.0,2.6288982190017123,1216.7153216120205,None,1215.0653904830106,None,space,0.0944404299953021,2.6616143157007173,None,1215.0653904830106,None,1215.0653904830106,None,,,,,,,,,1,2022_Mar_25_1047,SAR-soap,2021.1.2,60.04389544147644,
141,Trial # 137,Group1-stimuli/group1-block1/fake-group2-b1/encoded_Group2_IMG_5982.jpg,0,encoded_Group2_IMG_5982.jpg,,,,,0.0,136.0,136.0,136.0,,,,,,,,,,,,,,,,,,,,,,,,,,,,,,,,,,,,,1217.8326426790154,None,1217.8326426790154,None,1217.8326426790154,None,1.0,1.8143181840132456,1217.8326426790154,None,1217.8326426790154,None,1.0,2.203157109004678,1219.1998265690054,None,1217.8326426790154,None,1.0,2.575733345001936,1219.59986716602,None,1217.8326426790154,None,space,0.1279569479811471,2.6052964947884902,None,1217.8326426790154,None,1217.8326426790154,None,,,,,,,,,1,2022_Mar_25_1047,SAR-soap,2021.1.2,60.04389544147644,
142,Trial # 138,Group1-stimuli/group1-block1/fake-group2-b1/encoded_Group2_IMG_1144.jpg,0,encoded_Group2_IMG_1144.jpg,,,,,0.0,137.0,137.0,137.0,,,,,,,,,,,,,,,,,,,,,,,,,,,,,,,,,,,,,1220.5842244250234,None,1220.5842244250234,None,1220.5842244250234,None,3.0,2.364250245009316,1220.5842244250234,None,1220.5842244250234,None,3.0,3.95168425902375,1222.5004362330071,None,1220.5842244250234,None,3.0,5.325115018000361,1224.100928779022,None,1220.5842244250234,None,space,0.1382389859936665,5.353457099816296,None,1220.5842244250234,None,1220.5842244250234,None,,,,,,,,,1,2022_Mar_25_1047,SAR-soap,2021.1.2,60.04389544147644,
143,Trial # 139,Group1-stimuli/group1-block1/fake-group2-b1/encoded_Group2_IMG_0315.jpg,0,encoded_Group2_IMG_0315.jpg,,,,,0.0,138.0,138.0,138.0,,,,,,,,,,,,,,,,,,,,,,,,,,,,,,,,,,,,,1226.119345559011,None,1226.119345559011,None,1226.119345559011,None,1.0,2.294504613004392,1226.119345559011,None,1226.119345559011,None,1.0,2.6855254959955346,1227.9685988510028,None,1226.119345559011,None,1.0,3.2559020089975093,1228.3686116099998,None,1226.119345559011,None,space,0.1276025190018117,3.2828317157982383,None,1226.119345559011,None,1226.119345559011,None,,,,,,,,,1,2022_Mar_25_1047,SAR-soap,2021.1.2,60.04389544147644,
144,Trial # 140,Group1-stimuli/group1-block1/real-group1-b1/Group1_IMG_130.jpg,1,Group1_IMG_130.jpg,,,,,0.0,139.0,139.0,139.0,,,,,,,,,,,,,,,,,,,,,,,,,,,,,,,,,,,,,1229.5691835430043,None,1229.5691835430043,None,1229.5691835430043,None,6.0,3.515490096004214,1229.5691835430043,None,1229.5691835430043,None,5.0,4.454482557019219,1231.653821454005,None,1229.5691835430043,None,4.0,7.327107635006541,1233.5877398160228,None,1229.5691835430043,None,space,0.0554788990120869,7.3577211316733155,None,1229.5691835430043,None,1229.5691835430043,None,,,,,,,,,1,2022_Mar_25_1047,SAR-soap,2021.1.2,60.04389544147644,
145,Trial # 141,Group1-stimuli/group1-block1/real-group1-b1/Group1_IMG_0024.jpg,1,Group1_IMG_0024.jpg,,,,,0.0,140.0,140.0,140.0,,,,,,,,,,,,,,,,,,,,,,,,,,,,,,,,,,,,,1237.02191554202,None,1237.02191554202,None,1237.02191554202,None,5.0,5.844839113997296,1237.02191554202,None,1237.02191554202,None,3.0,6.7496472249913495,1241.3562303820215,None,1237.02191554202,None,4.0,7.890488940989599,1243.323247221997,None,1237.02191554202,None,space,-0.0580506600090302,7.913422226789407,None,1237.02191554202,None,1237.02191554202,None,,,,,,,,,1,2022_Mar_25_1047,SAR-soap,2021.1.2,60.04389544147644,
146,Trial # 142,Group1-stimuli/group1-block1/fake-group2-b1/encoded_Group2_IMG_5012.jpg,0,encoded_Group2_IMG_5012.jpg,,,,,0.0,141.0,141.0,141.0,,,,,,,,,,,,,,,,,,,,,,,,,,,,,,,,,,,,,1244.9584999160145,None,1244.9584999160145,None,1244.9584999160145,None,2.0,2.3635322509799157,1244.9584999160145,None,1244.9584999160145,None,1.0,7.65454107199912,1246.875818415021,None,1244.9584999160145,None,1.0,8.195174670981942,1251.6431090290134,None,1244.9584999160145,None,space,0.0897630050021689,8.221132061677054,None,1244.9584999160145,None,1244.9584999160145,None,,,,,,,,,1,2022_Mar_25_1047,SAR-soap,2021.1.2,60.04389544147644,
147,Trial # 143,Group1-stimuli/group1-block1/fake-group2-b1/encoded_Group2_IMG_0209.jpg,0,encoded_Group2_IMG_0209.jpg,,,,,0.0,142.0,142.0,142.0,,,,,,,,,,,,,,,,,,,,,,,,,,,,,,,,,,,,,1253.2938962360204,None,1253.2938962360204,None,1253.2938962360204,None,1.0,1.6315474689763505,1253.2938962360204,None,1253.2938962360204,None,1.0,2.1202578930242453,1254.4774352300155,None,1253.2938962360204,None,1.0,3.192734012001893,1254.9783242810229,None,1253.2938962360204,None,space,-0.4141554209927562,3.2214981138240546,None,1253.2938962360204,None,1253.2938962360204,None,,,,,,,,,1,2022_Mar_25_1047,SAR-soap,2021.1.2,60.04389544147644,
148,Trial # 144,Group1-stimuli/group1-block1/real-group1-b1/Group1_IMG_0373.jpg,1,Group1_IMG_0373.jpg,,,,,0.0,143.0,143.0,143.0,,,,,,,,,,,,,,,,,,,,,,,,,,,,,,,,,,,,,1256.544640371023,None,1256.544640371023,None,1256.544640371023,None,1.0,1.6510198769974522,1256.544640371023,None,1256.544640371023,None,1.0,2.0743706499924883,1257.744410362007,None,1256.544640371023,None,1.0,2.6448282439960167,1258.1782468710153,None,1256.544640371023,None,space,-2.577987725991989,2.68016439670464,None,1256.544640371023,None,1256.544640371023,None,,,,,,,,,1,2022_Mar_25_1047,SAR-soap,2021.1.2,60.04389544147644,
149,Trial # 145,Group1-stimuli/group1-block1/real-group1-b1/Group1_IMG_5899.jpg,1,Group1_IMG_5899.jpg,,,,,0.0,144.0,144.0,144.0,,,,,,,,,,,,,,,,,,,,,,,,,,,,,,,,,,,,,1259.244639651006,None,1259.244639651006,None,1259.244639651006,None,1.0,1.5151442019850947,1259.244639651006,None,1259.244639651006,None,1.0,1.938924734975444,1260.3125582119974,None,1259.244639651006,None,1.0,2.4119189500052016,1260.74611079201,None,1259.244639651006,None,space,-2.349123147985665,2.439916349714622,None,1259.244639651006,None,1259.244639651006,None,,,,,,,,,1,2022_Mar_25_1047,SAR-soap,2021.1.2,60.04389544147644,
150,Trial # 146,Group1-stimuli/group1-block1/real-group1-b1/Group1_IMG_0162.jpg,1,Group1_IMG_0162.jpg,,,,,0.0,145.0,145.0,145.0,,,,,,,,,,,,,,,,,,,,,,,,,,,,,,,,,,,,,1261.7127812590045,None,1261.7127812590045,None,1261.7127812590045,None,5.0,2.029387113987468,1261.7127812590045,None,1261.7127812590045,None,4.0,3.953639462008141,1263.296022252005,None,1261.7127812590045,None,5.0,4.923814760986716,1265.2303146210031,None,1261.7127812590045,None,space,0.6170157459855545,4.952409437712049,None,1261.7127812590045,None,1261.7127812590045,None,,,,,,,,,1,2022_Mar_25_1047,SAR-soap,2021.1.2,60.04389544147644,
151,Trial # 147,Group1-stimuli/group1-block1/real-group1-b1/Group1_IMG_0543.jpg,1,Group1_IMG_0543.jpg,,,,,0.0,146.0,146.0,146.0,,,,,,,,,,,,,,,,,,,,,,,,,,,,,,,,,,,,,1267.331689840008,None,1267.331689840008,None,1267.331689840008,None,1.0,1.7827569720102474,1267.331689840008,None,1267.331689840008,None,1.0,2.372496299009072,1268.6644795520117,None,1267.331689840008,None,1.0,2.976988665002864,1269.264539396012,None,1267.331689840008,None,space,0.190363145986339,3.00708486570511,None,1267.331689840008,None,1267.331689840008,None,,,,,,,,,1,2022_Mar_25_1047,SAR-soap,2021.1.2,60.04389544147644,
152,Trial # 148,Group1-stimuli/group1-block1/fake-group2-b1/encoded_Group2_IMG_0355.jpg,0,encoded_Group2_IMG_0355.jpg,,,,,0.0,147.0,147.0,147.0,,,,,,,,,,,,,,,,,,,,,,,,,,,,,,,,,,,,,1270.549446596007,None,1270.549446596007,None,1270.549446596007,None,1.0,1.4466667090018746,1270.549446596007,None,1270.549446596007,None,1.0,1.868391928001074,1271.5495355320163,None,1270.549446596007,None,1.0,2.3076996369927656,1271.9821935150248,None,1270.549446596007,None,space,0.127446432976285,2.335297033801908,None,1270.549446596007,None,1270.549446596007,None,,,,,,,,,1,2022_Mar_25_1047,SAR-soap,2021.1.2,60.04389544147644,
153,Trial # 149,Group1-stimuli/group1-block1/real-group1-b1/Group1_IMG_9765.jpg,1,Group1_IMG_9765.jpg,,,,,0.0,148.0,148.0,148.0,,,,,,,,,,,,,,,,,,,,,,,,,,,,,,,,,,,,,1273.0491977110214,None,1273.0491977110214,None,1273.0491977110214,None,5.0,7.520366043987451,1273.0491977110214,None,1273.0491977110214,None,3.0,6.524673950014403,1275.7349965530157,None,1273.0491977110214,None,3.0,8.831680826988304,1279.1344206570066,None,1273.0491977110214,None,space,1.0914603089913726,8.862676345714135,None,1273.0491977110214,None,1273.0491977110214,None,,,,,,,,,1,2022_Mar_25_1047,SAR-soap,2021.1.2,60.04389544147644,
154,Trial # 150,Group1-stimuli/group1-block1/fake-group2-b1/encoded_Group2_IMG_1378.jpg,0,encoded_Group2_IMG_1378.jpg,,,,,0.0,149.0,149.0,149.0,,,,,,,,,,,,,,,,,,,,,,,,,,,,,,,,,,,,,1283.0187645650003,None,1283.0187645650003,None,1283.0187645650003,None,5.0,2.5982343800133094,1283.0187645650003,None,1283.0187645650003,None,3.0,3.669577822001884,1284.78615094602,None,1283.0187645650003,None,5.0,5.142211673985003,1286.2537059879978,None,1283.0187645650003,None,space,0.1269574399921111,5.169959286780795,None,1283.0187645650003,None,1283.0187645650003,None,,,,,,,,,1,2022_Mar_25_1047,SAR-soap,2021.1.2,60.04389544147644,
155,Trial # 1,Group1-stimuli/group1-block2/fake-group2-b2/encoded_Group2_IMG_0155.jpg,0,encoded_Group2_IMG_0155.jpg,,,,,,,,,0.0,0.0,0.0,0.0,,,,,,,,,,,,,,,,,,,,,,,,,,,,,,,,,1844.1092274080147,None,1844.1092274080147,None,1844.1092274080147,None,6.0,3.217342858988559,1844.1092274080147,None,1844.1092274080147,None,5.0,4.340028017002624,1846.8611014220223,None,1844.1092274080147,None,4.0,5.613205601985101,1847.994520503009,None,1844.1092274080147,None,space,0.1468002680048812,5.6300773066759575,None,1844.1092274080147,None,1844.1092274080147,None,1841.6594802339969,None,1841.6594802339969,None,1841.6594802339969,None,1287.8369420920208,None,1,2022_Mar_25_1047,SAR-soap,2021.1.2,60.04389544147644,
156,Trial # 2,Group1-stimuli/group1-block2/real-group1-b2/Group1_IMG_0519.jpg,1,Group1_IMG_0519.jpg,,,,,,,,,0.0,1.0,1.0,1.0,,,,,,,,,,,,,,,,,,,,,,,,,,,,,,,,,1849.9437702920115,None,1849.9437702920115,None,1849.9437702920115,None,3.0,2.6808710740006063,1849.9437702920115,None,1849.9437702920115,None,2.0,5.6377826470125,1852.179386411008,None,1849.9437702920115,None,3.0,6.710351695015561,1853.8125143920188,None,1849.9437702920115,None,space,0.0732075260020792,6.739424044586485,None,1849.9437702920115,None,1849.9437702920115,None,,,,,,,,,1,2022_Mar_25_1047,SAR-soap,2021.1.2,60.04389544147644,
157,Trial # 3,Group1-stimuli/group1-block2/fake-group2-b2/encoded_Group2_IMG_0135.jpg,0,encoded_Group2_IMG_0135.jpg,,,,,,,,,0.0,2.0,2.0,2.0,,,,,,,,,,,,,,,,,,,,,,,,,,,,,,,,,1856.81382078302,None,1856.81382078302,None,1856.81382078302,None,1.0,1.612409317982383,1856.81382078302,None,1856.81382078302,None,1.0,2.0343976830190518,1857.9806978639967,None,1856.81382078302,None,1.0,2.60697535899817,1858.4133855840191,None,1856.81382078302,None,space,0.059032452001702,2.6343013496953063,None,1856.81382078302,None,1856.81382078302,None,,,,,,,,,1,2022_Mar_25_1047,SAR-soap,2021.1.2,60.04389544147644,
158,Trial # 4,Group1-stimuli/group1-block2/real-group1-b2/Group1_IMG_5310.jpg,1,Group1_IMG_5310.jpg,,,,,,,,,0.0,3.0,3.0,3.0,,,,,,,,,,,,,,,,,,,,,,,,,,,,,,,,,1859.563198902004,None,1859.563198902004,None,1859.563198902004,None,5.0,4.246159873000579,1859.563198902004,None,1859.563198902004,None,3.0,5.601004162977915,1863.3485409910209,None,1859.563198902004,None,3.0,7.275240920018405,1864.715634182008,None,1859.563198902004,None,space,0.0242144980002194,7.300005946715828,None,1859.563198902004,None,1859.563198902004,None,,,,,,,,,1,2022_Mar_25_1047,SAR-soap,2021.1.2,60.04389544147644,
159,Trial # 5,Group1-stimuli/group1-block2/real-group1-b2/Group1_IMG_0522.jpg,1,Group1_IMG_0522.jpg,,,,,,,,,0.0,4.0,4.0,4.0,,,,,,,,,,,,,,,,,,,,,,,,,,,,,,,,,1866.9338064129988,None,1866.9338064129988,None,1866.9338064129988,None,5.0,2.242678417009301,1866.9338064129988,None,1866.9338064129988,None,3.0,4.330473681009607,1868.7168095520171,None,1866.9338064129988,None,4.0,5.537705950991949,1870.8185008190048,None,1866.9338064129988,None,space,0.0611134780046995,5.561953781696502,None,1866.9338064129988,None,1866.9338064129988,None,,,,,,,,,1,2022_Mar_25_1047,SAR-soap,2021.1.2,60.04389544147644,
160,Trial # 6,Group1-stimuli/group1-block2/fake-group2-b2/encoded_Group2_IMG_0484.jpg,0,encoded_Group2_IMG_0484.jpg,,,,,,,,,0.0,5.0,5.0,5.0,,,,,,,,,,,,,,,,,,,,,,,,,,,,,,,,,1872.585582890024,None,1872.585582890024,None,1872.585582890024,None,1.0,1.50198581800214,1872.585582890024,None,1872.585582890024,None,1.0,1.891746790992329,1873.6354118790184,None,1872.585582890024,None,1.0,2.4978955879923888,1874.0354312639972,None,1872.585582890024,None,space,0.1558302679914049,2.529490490676835,None,1872.585582890024,None,1872.585582890024,None,,,,,,,,,1,2022_Mar_25_1047,SAR-soap,2021.1.2,60.04389544147644,
161,Trial # 7,Group1-stimuli/group1-block2/fake-group2-b2/encoded_Group2_IMG_5948.jpg,0,encoded_Group2_IMG_5948.jpg,,,,,,,,,0.0,6.0,6.0,6.0,,,,,,,,,,,,,,,,,,,,,,,,,,,,,,,,,1875.285320380004,None,1875.285320380004,None,1875.285320380004,None,1.0,1.4125077110074926,1875.285320380004,None,1875.285320380004,None,1.0,2.1685352839995176,1876.253657209017,None,1875.285320380004,None,1.0,2.673612116021104,1877.019408474007,None,1875.285320380004,None,space,0.2146286160277668,2.701518106798176,None,1875.285320380004,None,1875.285320380004,None,,,,,,,,,1,2022_Mar_25_1047,SAR-soap,2021.1.2,60.04389544147644,
162,Trial # 8,Group1-stimuli/group1-block2/fake-group2-b2/encoded_Group2_IMG_3591.jpg,0,encoded_Group2_IMG_3591.jpg,,,,,,,,,0.0,7.0,7.0,7.0,,,,,,,,,,,,,,,,,,,,,,,,,,,,,,,,,1878.2527951140075,None,1878.2527951140075,None,1878.2527951140075,None,1.0,1.4854456199973356,1878.2527951140075,None,1878.2527951140075,None,1.0,1.8757388840022031,1879.2866109820025,None,1878.2527951140075,None,1.0,2.813262693991419,1879.6867007160035,None,1878.2527951140075,None,space,0.1068512969941366,2.848756259685615,None,1878.2527951140075,None,1878.2527951140075,None,,,,,,,,,1,2022_Mar_25_1047,SAR-soap,2021.1.2,60.04389544147644,
163,Trial # 9,Group1-stimuli/group1-block2/real-group1-b2/Group1_IMG_9835.jpg,1,Group1_IMG_9835.jpg,,,,,,,,,0.0,8.0,8.0,8.0,,,,,,,,,,,,,,,,,,,,,,,,,,,,,,,,,1881.254884422,None,1881.254884422,None,1881.254884422,None,1.0,1.7385721199971158,1881.254884422,None,1881.254884422,None,1.0,2.294356789003359,1882.538124929008,None,1881.254884422,None,1.0,2.898060067993356,1883.1043081649989,None,1881.254884422,None,space,0.0307380849844776,2.917753637826536,None,1881.254884422,None,1881.254884422,None,,,,,,,,,1,2022_Mar_25_1047,SAR-soap,2021.1.2,60.04389544147644,
