,Trial_num,image_path,ground_truth,image_name,demos.thisRepN,demos.thisTrialN,demos.thisN,demos.thisIndex,block_1.thisRepN,block_1.thisTrialN,block_1.thisN,block_1.thisIndex,block_2.thisRepN,block_2.thisTrialN,block_2.thisN,block_2.thisIndex,text_3.started,text_3.stopped,Task.started,Task.stopped,text_10.started,text_10.stopped,key_resp.keys,key_resp.rt,key_resp.started,key_resp.stopped,image_2.started,image_2.stopped,text_5.started,text_5.stopped,image_3.started,image_3.stopped,text_6.started,text_6.stopped,translucency.started,translucency.stopped,see_throughness.started,see_throughness.stopped,glow.started,glow.stopped,key_resp_10.keys,key_resp_10.rt,key_resp_10.started,key_resp_10.stopped,instruction.started,instruction.stopped,text_12.started,text_12.stopped,Trial_number.started,Trial_number.stopped,image.started,image.stopped,Instruction.started,Instruction.stopped,translucency_score.response,translucency_score.rt,translucency_score.started,translucency_score.stopped,Translucency.started,Translucency.stopped,seethroughness_score.response,seethroughness_score.rt,seethroughness_score.started,seethroughness_score.stopped,SeeThroughness.started,SeeThroughness.stopped,glow_score.response,glow_score.rt,glow_score.started,glow_score.stopped,Glow.started,Glow.stopped,to_next.keys,to_next.rt,to_next.started,to_next.stopped,grading_label_left.started,grading_label_left.stopped,grading_label_right.started,grading_label_right.stopped,instruct1.started,instruct1.stopped,instruct2.started,instruct2.stopped,text_4.started,text_4.stopped,text_2.started,text_2.stopped,session,date,expName,psychopyVersion,frameRate,Unnamed: 94
0,,,,,,,,,,,,,,,,,65.92029157304205,None,68.3196785809705,None,108.04917262599338,None,space,3.1350802730303258,113.0378254710231,None,,,,,,,,,,,,,,,,,,,,,,,,,,,,,,,,,,,,,,,,,,,,,,,,,,,,,,,,,,,,,,,1,2022_Apr_04_1537,SAR-soap,2021.1.2,59.61248879324388,
1,,,,,,,,,,,,,,,,,,,,,,,,,,,116.66777178295888,None,116.66777178295888,None,159.15266117895953,None,159.15266117895953,None,168.73823838005774,None,168.73823838005774,None,168.73823838005774,None,space,3.746631989022717,168.73823838005774,None,,,,,,,,,,,,,,,,,,,,,,,,,,,,,,,,,,,,,,,,,,,,,1,2022_Apr_04_1537,SAR-soap,2021.1.2,59.61248879324388,
2,Demo 1,demo/Demo_IMG_0974.jpg,demo,Demo_IMG_0974.jpg,0.0,0.0,0.0,0.0,,,,,,,,,,,,,,,,,,,,,,,,,,,,,,,,,,,,,168.73823838005774,None,172.50628797605168,None,174.80293251597325,None,174.80293251597325,None,174.80293251597325,None,5.0,24.977675731061023,174.80293251597325,None,174.80293251597325,None,4.0,53.44279312994331,199.310260029044,None,174.80293251597325,None,6.0,56.54998607595917,227.7863252849784,None,174.80293251597325,None,space,2.950663267984055,56.57459409616422,None,174.80293251597325,None,174.80293251597325,None,,,,,,,,,1,2022_Apr_04_1537,SAR-soap,2021.1.2,59.61248879324388,
3,Demo 2,demo/Demo_IMG_1024.jpg,demo,Demo_IMG_1024.jpg,0.0,1.0,1.0,1.0,,,,,,,,,,,,,,,,,,,,,,,,,,,,,,,,,,,,,,,,,234.4379838589812,None,234.4379838589812,None,234.4379838589812,None,1.0,4.069896313012578,234.4379838589812,None,234.4379838589812,None,1.0,6.193680060910992,238.05536323797423,None,234.4379838589812,None,1.0,8.065664927009493,240.1892051199684,None,234.4379838589812,None,space,0.7804955310421064,8.101851118146442,None,234.4379838589812,None,234.4379838589812,None,,,,,,,,,1,2022_Apr_04_1537,SAR-soap,2021.1.2,59.61248879324388,
4,Demo 3,demo/Demo_seed_80003.png,demo,Demo_seed_80003.png,0.0,2.0,2.0,2.0,,,,,,,,,,,,,,,,,,,,,,,,,,,,,,,,,,,,,,,,,243.4069285200676,None,243.4069285200676,None,243.4069285200676,None,4.0,9.825938040041365,243.4069285200676,None,243.4069285200676,None,3.0,10.899743560003117,252.76176113903057,None,243.4069285200676,None,7.0,15.072339408099651,253.86009051802105,None,243.4069285200676,None,space,1.5620632620994002,15.093492746003903,None,243.4069285200676,None,243.4069285200676,None,,,,,,,,,1,2022_Apr_04_1537,SAR-soap,2021.1.2,59.61248879324388,
5,Trial # 1,Group1-stimuli/group1-block1/real-group1-b1/Group1_IMG_0022.jpg,1,Group1_IMG_0022.jpg,,,,,0.0,0.0,0.0,0.0,,,,,,,,,,,,,,,,,,,,,,,,,,,,,,,,,,,,,269.4985401979648,None,269.4985401979648,None,269.4985401979648,None,2.0,9.4766923020361,269.4985401979648,None,269.4985401979648,None,1.0,14.26707014197018,278.51769391901325,None,269.4985401979648,None,3.0,19.14029545406811,280.1176799000241,None,269.4985401979648,None,space,5.30581163498573,19.16636101459153,None,269.4985401979648,None,269.4985401979648,None,260.06171750300564,None,260.06171750300564,None,260.06171750300564,None,,,1,2022_Apr_04_1537,SAR-soap,2021.1.2,59.61248879324388,
6,Trial # 2,Group1-stimuli/group1-block1/fake-group2-b1/encoded_Group2_IMG_0386.jpg,0,encoded_Group2_IMG_0386.jpg,,,,,0.0,1.0,1.0,1.0,,,,,,,,,,,,,,,,,,,,,,,,,,,,,,,,,,,,,294.0562885099789,None,294.0562885099789,None,294.0562885099789,None,3.0,5.034592584008351,294.0562885099789,None,294.0562885099789,None,2.0,10.375967033091,298.6403587630484,None,294.0562885099789,None,2.0,13.44969520100858,303.9922763920622,None,294.0562885099789,None,space,0.6009356449358165,13.482685270020738,None,294.0562885099789,None,294.0562885099789,None,,,,,,,,,1,2022_Apr_04_1537,SAR-soap,2021.1.2,59.61248879324388,
7,Trial # 3,Group1-stimuli/group1-block1/real-group1-b1/Group1_IMG_9704.jpg,1,Group1_IMG_9704.jpg,,,,,0.0,2.0,2.0,2.0,,,,,,,,,,,,,,,,,,,,,,,,,,,,,,,,,,,,,308.1935049990425,None,308.1935049990425,None,308.1935049990425,None,1.0,2.305067364941351,308.1935049990425,None,308.1935049990425,None,1.0,3.4284502710215747,310.04466035496444,None,308.1935049990425,None,1.0,4.501016168040223,311.17784198501613,None,308.1935049990425,None,space,0.865476022940129,4.520065305870958,None,308.1935049990425,None,308.1935049990425,None,,,,,,,,,1,2022_Apr_04_1537,SAR-soap,2021.1.2,59.61248879324388,
8,Trial # 4,Group1-stimuli/group1-block1/real-group1-b1/Group1_IMG_0406.jpg,1,Group1_IMG_0406.jpg,,,,,0.0,3.0,3.0,3.0,,,,,,,,,,,,,,,,,,,,,,,,,,,,,,,,,,,,,313.61573176900856,None,313.61573176900856,None,313.61573176900856,None,2.0,3.316847983049229,313.61573176900856,None,313.61573176900856,None,2.0,5.405496655032039,316.48090482107364,None,313.61573176900856,None,1.0,7.7131346999667585,317.7808398930356,None,313.61573176900856,None,space,0.6118079898878932,7.74348457925953,None,313.61573176900856,None,313.61573176900856,None,,,,,,,,,1,2022_Apr_04_1537,SAR-soap,2021.1.2,59.61248879324388,
9,Trial # 5,Group1-stimuli/group1-block1/fake-group2-b1/encoded_Group2_IMG_0364.jpg,0,encoded_Group2_IMG_0364.jpg,,,,,0.0,4.0,4.0,4.0,,,,,,,,,,,,,,,,,,,,,,,,,,,,,,,,,,,,,322.01533466100227,None,322.01533466100227,None,322.01533466100227,None,1.0,2.024390900041908,322.01533466100227,None,322.01533466100227,None,1.0,2.8804969339398667,323.58148368506227,None,322.01533466100227,None,1.0,3.651024906896055,324.448815213982,None,322.01533466100227,None,space,0.5664105350151658,3.675588527694345,None,322.01533466100227,None,322.01533466100227,None,,,,,,,,,1,2022_Apr_04_1537,SAR-soap,2021.1.2,59.61248879324388,
10,Trial # 6,Group1-stimuli/group1-block1/fake-group2-b1/encoded_Group2_IMG_0407.jpg,0,encoded_Group2_IMG_0407.jpg,,,,,0.0,5.0,5.0,5.0,,,,,,,,,,,,,,,,,,,,,,,,,,,,,,,,,,,,,326.28348877304234,None,326.28348877304234,None,326.28348877304234,None,2.0,3.44668689602986,326.28348877304234,None,326.28348877304234,None,1.0,5.955156339914538,327.7004048259696,None,326.28348877304234,None,1.0,6.759754947037436,331.801860623993,None,326.28348877304234,None,space,1.4685887520899996,6.787482224055566,None,326.28348877304234,None,326.28348877304234,None,,,,,,,,,1,2022_Apr_04_1537,SAR-soap,2021.1.2,59.61248879324388,
11,Trial # 7,Group1-stimuli/group1-block1/real-group1-b1/Group1_IMG_0428.jpg,1,Group1_IMG_0428.jpg,,,,,0.0,6.0,6.0,6.0,,,,,,,,,,,,,,,,,,,,,,,,,,,,,,,,,,,,,334.66823653306346,None,334.66823653306346,None,334.66823653306346,None,3.0,28.177220267010853,334.66823653306346,None,334.66823653306346,None,3.0,32.43496951099951,362.3941655060044,None,334.66823653306346,None,2.0,34.10702915897127,366.66283902002033,None,334.66823653306346,None,space,0.8523717760108411,34.14169717079494,None,334.66823653306346,None,334.66823653306346,None,,,,,,,,,1,2022_Apr_04_1537,SAR-soap,2021.1.2,59.61248879324388,
12,Trial # 8,Group1-stimuli/group1-block1/fake-group2-b1/encoded_Group2_IMG_0474.jpg,0,encoded_Group2_IMG_0474.jpg,,,,,0.0,7.0,7.0,7.0,,,,,,,,,,,,,,,,,,,,,,,,,,,,,,,,,,,,,369.6963992869714,None,369.6963992869714,None,369.6963992869714,None,1.0,2.0589349770452827,369.6963992869714,None,369.6963992869714,None,1.0,2.8821291589410976,371.2966569060227,None,369.6963992869714,None,1.0,3.688066764967516,372.1298644200433,None,369.6963992869714,None,space,0.5312438870314509,3.71172191167716,None,369.6963992869714,None,369.6963992869714,None,,,,,,,,,1,2022_Apr_04_1537,SAR-soap,2021.1.2,59.61248879324388,
13,Trial # 9,Group1-stimuli/group1-block1/fake-group2-b1/encoded_Group2_IMG_1506.jpg,0,encoded_Group2_IMG_1506.jpg,,,,,0.0,8.0,8.0,8.0,,,,,,,,,,,,,,,,,,,,,,,,,,,,,,,,,,,,,373.9641770790331,None,373.9641770790331,None,373.9641770790331,None,4.0,16.422456771018915,373.9641770790331,None,373.9641770790331,None,3.0,20.52937079197727,389.9361412900034,None,373.9641770790331,None,2.0,22.96981585107278,394.05387678497937,None,373.9641770790331,None,space,0.8534945619758219,23.00205734616611,None,373.9641770790331,None,373.9641770790331,None,,,,,,,,,1,2022_Apr_04_1537,SAR-soap,2021.1.2,59.61248879324388,
14,Trial # 10,Group1-stimuli/group1-block1/real-group1-b1/Group1_IMG_9789.jpg,1,Group1_IMG_9789.jpg,,,,,0.0,9.0,9.0,9.0,,,,,,,,,,,,,,,,,,,,,,,,,,,,,,,,,,,,,397.8716855329694,None,397.8716855329694,None,397.8716855329694,None,1.0,2.2528174249455333,397.8716855329694,None,397.8716855329694,None,1.0,2.9762639380060136,399.6713335580425,None,397.8716855329694,None,1.0,3.6471327509498224,400.4051519669592,None,397.8716855329694,None,space,0.6135575040243566,3.682014185586013,None,397.8716855329694,None,397.8716855329694,None,,,,,,,,,1,2022_Apr_04_1537,SAR-soap,2021.1.2,59.61248879324388,
15,Trial # 11,Group1-stimuli/group1-block1/real-group1-b1/Group1_IMG_9778.jpg,1,Group1_IMG_9778.jpg,,,,,0.0,10.0,10.0,10.0,,,,,,,,,,,,,,,,,,,,,,,,,,,,,,,,,,,,,402.25666130997706,None,402.25666130997706,None,402.25666130997706,None,4.0,5.676821241038851,402.25666130997706,None,402.25666130997706,None,4.0,9.016676591942089,407.4742609730456,None,402.25666130997706,None,3.0,12.022619422990829,408.8909797599772,None,402.25666130997706,None,space,3.152035200037062,10.345252449042164,None,402.25666130997706,None,402.25666130997706,None,,,,,,,,,1,2022_Apr_04_1537,SAR-soap,2021.1.2,59.61248879324388,
16,Trial # 12,Group1-stimuli/group1-block1/real-group1-b1/Group1_IMG_9813.jpg,1,Group1_IMG_9813.jpg,,,,,0.0,11.0,11.0,11.0,,,,,,,,,,,,,,,,,,,,,,,,,,,,,,,,,,,,,415.8272685720585,None,415.8272685720585,None,415.8272685720585,None,1.0,1.825884436024353,415.8272685720585,None,415.8272685720585,None,1.0,2.9487480910029262,417.195175476023,None,415.8272685720585,None,1.0,4.420076704933308,418.3284538449952,None,415.8272685720585,None,space,0.7394217840628698,4.442901470465586,None,415.8272685720585,None,415.8272685720585,None,,,,,,,,,1,2022_Apr_04_1537,SAR-soap,2021.1.2,59.61248879324388,
17,Trial # 13,Group1-stimuli/group1-block1/real-group1-b1/Group1_IMG_0516.jpg,1,Group1_IMG_0516.jpg,,,,,0.0,12.0,12.0,12.0,,,,,,,,,,,,,,,,,,,,,,,,,,,,,,,,,,,,,421.0458284670021,None,421.0458284670021,None,421.0458284670021,None,4.0,5.605713492957875,421.0458284670021,None,421.0458284670021,None,4.0,10.346124995034188,426.213609058992,None,421.0458284670021,None,6.0,12.184381086030044,430.9655440640636,None,421.0458284670021,None,space,0.7035488269757479,12.219845858053304,None,421.0458284670021,None,421.0458284670021,None,,,,,,,,,1,2022_Apr_04_1537,SAR-soap,2021.1.2,59.61248879324388,
18,Trial # 14,Group1-stimuli/group1-block1/fake-group2-b1/encoded_Group2_IMG_0038.jpg,0,encoded_Group2_IMG_0038.jpg,,,,,0.0,13.0,13.0,13.0,,,,,,,,,,,,,,,,,,,,,,,,,,,,,,,,,,,,,434.0322056990117,None,434.0322056990117,None,434.0322056990117,None,2.0,11.90487192501314,434.0322056990117,None,434.0322056990117,None,2.0,14.163259626948276,445.4862757140072,None,434.0322056990117,None,2.0,15.767417775001377,447.75430559401866,None,434.0322056990117,None,space,1.619969271006994,15.801601619226858,None,434.0322056990117,None,434.0322056990117,None,,,,,,,,,1,2022_Apr_04_1537,SAR-soap,2021.1.2,59.61248879324388,
19,Trial # 15,Group1-stimuli/group1-block1/real-group1-b1/Group1_IMG_5984.jpg,1,Group1_IMG_5984.jpg,,,,,0.0,14.0,14.0,14.0,,,,,,,,,,,,,,,,,,,,,,,,,,,,,,,,,,,,,451.4886801140383,None,451.4886801140383,None,451.4886801140383,None,1.0,2.627811916987412,451.4886801140383,None,451.4886801140383,None,1.0,3.1497346479445696,453.6555406120606,None,451.4886801140383,None,1.0,3.788473042892292,454.18848819704726,None,451.4886801140383,None,space,0.5992051070788875,3.814807611750439,None,451.4886801140383,None,451.4886801140383,None,,,,,,,,,1,2022_Apr_04_1537,SAR-soap,2021.1.2,59.61248879324388,
20,Trial # 16,Group1-stimuli/group1-block1/real-group1-b1/Group1_IMG_0383.jpg,1,Group1_IMG_0383.jpg,,,,,0.0,15.0,15.0,15.0,,,,,,,,,,,,,,,,,,,,,,,,,,,,,,,,,,,,,455.922743253992,None,455.922743253992,None,455.922743253992,None,3.0,4.88955826102756,455.922743253992,None,455.922743253992,None,2.0,6.081029599998146,460.3578036939725,None,455.922743253992,None,5.0,9.686542975949124,461.5583670740016,None,455.922743253992,None,space,0.5676404249388725,9.707068816758692,None,455.922743253992,None,455.922743253992,None,,,,,,,,,1,2022_Apr_04_1537,SAR-soap,2021.1.2,59.61248879324388,
21,Trial # 17,Group1-stimuli/group1-block1/fake-group2-b1/encoded_Group2_IMG_0456.jpg,0,encoded_Group2_IMG_0456.jpg,,,,,0.0,16.0,16.0,16.0,,,,,,,,,,,,,,,,,,,,,,,,,,,,,,,,,,,,,466.22686291800346,None,466.22686291800346,None,466.22686291800346,None,2.0,3.1760381510248408,466.22686291800346,None,466.22686291800346,None,1.0,5.766435523983091,468.9436465420295,None,466.22686291800346,None,2.0,8.10523468896281,471.5439058670309,None,466.22686291800346,None,space,0.6565148559166119,8.12824501376599,None,466.22686291800346,None,466.22686291800346,None,,,,,,,,,1,2022_Apr_04_1537,SAR-soap,2021.1.2,59.61248879324388,
22,Trial # 18,Group1-stimuli/group1-block1/fake-group2-b1/encoded_Group2_IMG_8390.jpg,0,encoded_Group2_IMG_8390.jpg,,,,,0.0,17.0,17.0,17.0,,,,,,,,,,,,,,,,,,,,,,,,,,,,,,,,,,,,,475.044845395023,None,475.044845395023,None,475.044845395023,None,3.0,4.616203887970187,475.044845395023,None,475.044845395023,None,1.0,8.956087464932352,479.2128907269798,None,475.044845395023,None,7.0,10.76225263706874,482.1975545840105,None,475.044845395023,None,space,0.8818573210155591,10.790989222354256,None,475.044845395023,None,475.044845395023,None,,,,,,,,,1,2022_Apr_04_1537,SAR-soap,2021.1.2,59.61248879324388,
23,Trial # 19,Group1-stimuli/group1-block1/real-group1-b1/Group1_IMG_0011.jpg,1,Group1_IMG_0011.jpg,,,,,0.0,18.0,18.0,18.0,,,,,,,,,,,,,,,,,,,,,,,,,,,,,,,,,,,,,486.7987878010608,None,486.7987878010608,None,486.7987878010608,None,3.0,3.5528355720452964,486.7987878010608,None,486.7987878010608,None,1.0,6.544164933962748,489.8992285670247,None,486.7987878010608,None,6.0,8.716572539997287,492.9012264970224,None,486.7987878010608,None,space,0.6979996559675783,8.75079796789214,None,486.7987878010608,None,486.7987878010608,None,,,,,,,,,1,2022_Apr_04_1537,SAR-soap,2021.1.2,59.61248879324388,
24,Trial # 20,Group1-stimuli/group1-block1/fake-group2-b1/encoded_Group2_IMG_0328.jpg,0,encoded_Group2_IMG_0328.jpg,,,,,0.0,19.0,19.0,19.0,,,,,,,,,,,,,,,,,,,,,,,,,,,,,,,,,,,,,496.2527986849891,None,496.2527986849891,None,496.2527986849891,None,1.0,1.969525886932388,496.2527986849891,None,496.2527986849891,None,1.0,2.62652083998546,497.7864493540256,None,496.2527986849891,None,1.0,3.23183823202271,498.452336839051,None,496.2527986849891,None,space,0.6012050439603627,3.266176831210032,None,496.2527986849891,None,496.2527986849891,None,,,,,,,,,1,2022_Apr_04_1537,SAR-soap,2021.1.2,59.61248879324388,
25,Trial # 21,Group1-stimuli/group1-block1/fake-group2-b1/encoded_Group2_IMG_0163.jpg,0,encoded_Group2_IMG_0163.jpg,,,,,0.0,20.0,20.0,20.0,,,,,,,,,,,,,,,,,,,,,,,,,,,,,,,,,,,,,500.1689892669674,None,500.1689892669674,None,500.1689892669674,None,6.0,8.032128432998434,500.1689892669674,None,500.1689892669674,None,4.0,10.355318199959584,503.37035977700725,None,500.1689892669674,None,6.0,13.161127600003963,510.0892714760266,None,500.1689892669674,None,space,0.9159878690261394,13.187784407869913,None,500.1689892669674,None,500.1689892669674,None,,,,,,,,,1,2022_Apr_04_1537,SAR-soap,2021.1.2,59.61248879324388,
26,Trial # 22,Group1-stimuli/group1-block1/real-group1-b1/Group1_IMG_9862.jpg,1,Group1_IMG_9862.jpg,,,,,0.0,21.0,21.0,21.0,,,,,,,,,,,,,,,,,,,,,,,,,,,,,,,,,,,,,514.3240585830063,None,514.3240585830063,None,514.3240585830063,None,1.0,1.9506880339467896,514.3240585830063,None,514.3240585830063,None,1.0,2.6063575031002983,515.8254344579764,None,514.3240585830063,None,1.0,3.6783389929914847,516.4926052150549,None,514.3240585830063,None,space,0.5119164589559659,3.711804135120474,None,514.3240585830063,None,514.3240585830063,None,,,,,,,,,1,2022_Apr_04_1537,SAR-soap,2021.1.2,59.61248879324388,
27,Trial # 23,Group1-stimuli/group1-block1/fake-group2-b1/encoded_Group2_IMG_0296.jpg,0,encoded_Group2_IMG_0296.jpg,,,,,0.0,22.0,22.0,22.0,,,,,,,,,,,,,,,,,,,,,,,,,,,,,,,,,,,,,518.5753425180446,None,518.5753425180446,None,518.5753425180446,None,4.0,4.830462206038646,518.5753425180446,None,518.5753425180446,None,1.0,10.521769816055894,522.9601130860392,None,518.5753425180446,None,5.0,14.162443381967025,528.6620662880596,None,518.5753425180446,None,space,1.565207413979806,14.189971828716809,None,518.5753425180446,None,518.5753425180446,None,,,,,,,,,1,2022_Apr_04_1537,SAR-soap,2021.1.2,59.61248879324388,
28,Trial # 24,Group1-stimuli/group1-block1/fake-group2-b1/encoded_Group2_IMG_0503.jpg,0,encoded_Group2_IMG_0503.jpg,,,,,0.0,23.0,23.0,23.0,,,,,,,,,,,,,,,,,,,,,,,,,,,,,,,,,,,,,534.380086494959,None,534.380086494959,None,534.380086494959,None,5.0,4.252365915104747,534.380086494959,None,534.380086494959,None,1.0,11.02748803398572,538.1825746580726,None,534.380086494959,None,6.0,13.033712344011292,544.9665715610608,None,534.380086494959,None,space,0.6222248290432617,13.067301657632925,None,534.380086494959,None,534.380086494959,None,,,,,,,,,1,2022_Apr_04_1537,SAR-soap,2021.1.2,59.61248879324388,
29,Trial # 25,Group1-stimuli/group1-block1/fake-group2-b1/encoded_Group2_IMG_9804.jpg,0,encoded_Group2_IMG_9804.jpg,,,,,0.0,24.0,24.0,24.0,,,,,,,,,,,,,,,,,,,,,,,,,,,,,,,,,,,,,548.1178209029604,None,548.1178209029604,None,548.1178209029604,None,1.0,2.2422027370193973,548.1178209029604,None,548.1178209029604,None,1.0,2.896771523053758,549.9009504379937,None,548.1178209029604,None,1.0,3.5362593960016966,550.5687650679611,None,548.1178209029604,None,space,0.596161560039036,3.558242461294867,None,548.1178209029604,None,548.1178209029604,None,,,,,,,,,1,2022_Apr_04_1537,SAR-soap,2021.1.2,59.61248879324388,
30,Trial # 26,Group1-stimuli/group1-block1/real-group1-b1/Group1_IMG_0391.jpg,1,Group1_IMG_0391.jpg,,,,,0.0,25.0,25.0,25.0,,,,,,,,,,,,,,,,,,,,,,,,,,,,,,,,,,,,,552.3027563680662,None,552.3027563680662,None,552.3027563680662,None,4.0,6.501291811000556,552.3027563680662,None,552.3027563680662,None,2.0,8.472203509998508,556.1712035420351,None,552.3027563680662,None,3.0,12.546345171052964,560.3380889290711,None,552.3027563680662,None,space,2.8887383959954605,10.377060410217382,None,552.3027563680662,None,552.3027563680662,None,,,,,,,,,1,2022_Apr_04_1537,SAR-soap,2021.1.2,59.61248879324388,
31,Trial # 27,Group1-stimuli/group1-block1/fake-group2-b1/encoded_Group2_IMG_3584.jpg,0,encoded_Group2_IMG_3584.jpg,,,,,0.0,26.0,26.0,26.0,,,,,,,,,,,,,,,,,,,,,,,,,,,,,,,,,,,,,565.62375827902,None,565.62375827902,None,565.62375827902,None,3.0,2.125970190973021,565.62375827902,None,565.62375827902,None,3.0,6.84997720096726,567.291090251063,None,565.62375827902,None,4.0,9.02275217801798,571.2250917790225,None,565.62375827902,None,space,0.5737818429479375,9.044999172212556,None,565.62375827902,None,565.62375827902,None,,,,,,,,,1,2022_Apr_04_1537,SAR-soap,2021.1.2,59.61248879324388,
32,Trial # 28,Group1-stimuli/group1-block1/fake-group2-b1/encoded_Group2_IMG_0434.jpg,0,encoded_Group2_IMG_0434.jpg,,,,,0.0,27.0,27.0,27.0,,,,,,,,,,,,,,,,,,,,,,,,,,,,,,,,,,,,,575.2921357790474,None,575.2921357790474,None,575.2921357790474,None,5.0,3.689341924968176,575.2921357790474,None,575.2921357790474,None,4.0,6.379417988937348,578.5273026450304,None,575.2921357790474,None,5.0,9.384535879944451,581.2290363650536,None,575.2921357790474,None,space,0.8175850240513682,9.403552333824337,None,575.2921357790474,None,575.2921357790474,None,,,,,,,,,1,2022_Apr_04_1537,SAR-soap,2021.1.2,59.61248879324388,
33,Trial # 29,Group1-stimuli/group1-block1/fake-group2-b1/encoded_Group2_IMG_9575.jpg,0,encoded_Group2_IMG_9575.jpg,,,,,0.0,28.0,28.0,28.0,,,,,,,,,,,,,,,,,,,,,,,,,,,,,,,,,,,,,585.5952004890423,None,585.5952004890423,None,585.5952004890423,None,2.0,5.152591574005783,585.5952004890423,None,585.5952004890423,None,2.0,9.526145612006076,590.2972409330541,None,585.5952004890423,None,1.0,12.032879236037845,592.4819349360187,None,585.5952004890423,None,space,0.5103848469443619,12.066823660978116,None,585.5952004890423,None,585.5952004890423,None,,,,,,,,,1,2022_Apr_04_1537,SAR-soap,2021.1.2,59.61248879324388,
34,Trial # 30,Group1-stimuli/group1-block1/fake-group2-b1/encoded_Group2_IMG_1025.jpg,0,encoded_Group2_IMG_1025.jpg,,,,,0.0,29.0,29.0,29.0,,,,,,,,,,,,,,,,,,,,,,,,,,,,,,,,,,,,,598.2001962950453,None,598.2001962950453,None,598.2001962950453,None,1.0,2.011769638978876,598.2001962950453,None,598.2001962950453,None,1.0,2.667516077985056,599.7671510040527,None,598.2001962950453,None,1.0,3.307873270008713,600.4339951910079,None,598.2001962950453,None,space,0.5461032850435004,3.334848486818373,None,598.2001962950453,None,598.2001962950453,None,,,,,,,,,1,2022_Apr_04_1537,SAR-soap,2021.1.2,59.61248879324388,
35,Trial # 31,Group1-stimuli/group1-block1/real-group1-b1/Group1_IMG_0502.jpg,1,Group1_IMG_0502.jpg,,,,,0.0,30.0,30.0,30.0,,,,,,,,,,,,,,,,,,,,,,,,,,,,,,,,,,,,,602.1349404230714,None,602.1349404230714,None,602.1349404230714,None,5.0,5.198634868953377,602.1349404230714,None,602.1349404230714,None,5.0,7.371464595082216,604.3357821080135,None,602.1349404230714,None,7.0,10.477908311993817,609.0701831920305,None,602.1349404230714,None,space,0.5786739859031513,10.506317799212413,None,602.1349404230714,None,602.1349404230714,None,,,,,,,,,1,2022_Apr_04_1537,SAR-soap,2021.1.2,59.61248879324388,
36,Trial # 32,Group1-stimuli/group1-block1/real-group1-b1/Group1_IMG_0182.jpg,1,Group1_IMG_0182.jpg,,,,,0.0,31.0,31.0,31.0,,,,,,,,,,,,,,,,,,,,,,,,,,,,,,,,,,,,,613.3377624830464,None,613.3377624830464,None,613.3377624830464,None,6.0,8.785807474981993,613.3377624830464,None,613.3377624830464,None,6.0,10.158195591997355,615.9235731699737,None,613.3377624830464,None,6.0,13.298682226915844,620.1228514120448,None,613.3377624830464,None,space,0.605007641017437,13.331849774695002,None,613.3377624830464,None,613.3377624830464,None,,,,,,,,,1,2022_Apr_04_1537,SAR-soap,2021.1.2,59.61248879324388,
37,Trial # 33,Group1-stimuli/group1-block1/fake-group2-b1/encoded_Group2_IMG_2728.jpg,0,encoded_Group2_IMG_2728.jpg,,,,,0.0,32.0,32.0,32.0,,,,,,,,,,,,,,,,,,,,,,,,,,,,,,,,,,,,,627.3094165939838,None,627.3094165939838,None,627.3094165939838,None,2.0,5.214497884036973,627.3094165939838,None,627.3094165939838,None,1.0,6.053388077067211,628.9593962309882,None,627.3094165939838,None,1.0,6.725234483019449,632.9272583780112,None,627.3094165939838,None,space,1.1879010230768472,6.751146260765381,None,627.3094165939838,None,627.3094165939838,None,,,,,,,,,1,2022_Apr_04_1537,SAR-soap,2021.1.2,59.61248879324388,
38,Trial # 34,Group1-stimuli/group1-block1/fake-group2-b1/encoded_Group2_IMG_4867.jpg,0,encoded_Group2_IMG_4867.jpg,,,,,0.0,33.0,33.0,33.0,,,,,,,,,,,,,,,,,,,,,,,,,,,,,,,,,,,,,635.2773474319838,None,635.2773474319838,None,635.2773474319838,None,4.0,3.8482948560267687,635.2773474319838,None,635.2773474319838,None,4.0,5.187216712976806,637.8294059860054,None,635.2773474319838,None,6.0,6.994492775993422,640.029420826002,None,635.2773474319838,None,space,1.0187342080753297,6.554806081810966,None,635.2773474319838,None,635.2773474319838,None,,,,,,,,,1,2022_Apr_04_1537,SAR-soap,2021.1.2,59.61248879324388,
39,Trial # 35,Group1-stimuli/group1-block1/real-group1-b1/Group1_IMG_9894.jpg,1,Group1_IMG_9894.jpg,,,,,0.0,34.0,34.0,34.0,,,,,,,,,,,,,,,,,,,,,,,,,,,,,,,,,,,,,642.8976048000623,None,642.8976048000623,None,642.8976048000623,None,1.0,2.092387925949879,642.8976048000623,None,642.8976048000623,None,1.0,3.815014035091736,644.5315932560479,None,642.8976048000623,None,1.0,5.120963571011089,646.2647217150079,None,642.8976048000623,None,space,0.648796543944627,5.145487604662776,None,642.8976048000623,None,642.8976048000623,None,,,,,,,,,1,2022_Apr_04_1537,SAR-soap,2021.1.2,59.61248879324388,
40,Trial # 36,Group1-stimuli/group1-block1/fake-group2-b1/encoded_Group2_IMG_0444.jpg,0,encoded_Group2_IMG_0444.jpg,,,,,0.0,35.0,35.0,35.0,,,,,,,,,,,,,,,,,,,,,,,,,,,,,,,,,,,,,648.7149822619976,None,648.7149822619976,None,648.7149822619976,None,3.0,3.2970125200226903,648.7149822619976,None,648.7149822619976,None,3.0,5.119017550023273,651.5671284180135,None,648.7149822619976,None,3.0,6.790532091981731,652.7334584330674,None,648.7149822619976,None,space,0.4828289609868079,6.819306422723457,None,648.7149822619976,None,648.7149822619976,None,,,,,,,,,1,2022_Apr_04_1537,SAR-soap,2021.1.2,59.61248879324388,
41,Trial # 37,Group1-stimuli/group1-block1/real-group1-b1/Group1_IMG_2656.jpg,1,Group1_IMG_2656.jpg,,,,,0.0,36.0,36.0,36.0,,,,,,,,,,,,,,,,,,,,,,,,,,,,,,,,,,,,,656.06853240903,None,656.06853240903,None,656.06853240903,None,1.0,1.878682138049044,656.06853240903,None,656.06853240903,None,1.0,2.467989888973534,657.4858057569945,None,656.06853240903,None,1.0,2.938855263055302,658.08494470804,None,656.06853240903,None,space,0.5014526250306517,2.964727400802076,None,656.06853240903,None,656.06853240903,None,,,,,,,,,1,2022_Apr_04_1537,SAR-soap,2021.1.2,59.61248879324388,
42,Trial # 38,Group1-stimuli/group1-block1/real-group1-b1/Group1_IMG_0207.jpg,1,Group1_IMG_0207.jpg,,,,,0.0,37.0,37.0,37.0,,,,,,,,,,,,,,,,,,,,,,,,,,,,,,,,,,,,,659.5849416049896,None,659.5849416049896,None,659.5849416049896,None,1.0,1.3893719930201769,659.5849416049896,None,659.5849416049896,None,1.0,2.013574106968008,660.519227219047,None,659.5849416049896,None,1.0,2.483508281991817,661.1532158360351,None,659.5849416049896,None,space,0.8180561329936609,2.505175958853215,None,659.5849416049896,None,659.5849416049896,None,,,,,,,,,1,2022_Apr_04_1537,SAR-soap,2021.1.2,59.61248879324388,
43,Trial # 39,Group1-stimuli/group1-block1/real-group1-b1/Group1_IMG_9638.jpg,1,Group1_IMG_9638.jpg,,,,,0.0,38.0,38.0,38.0,,,,,,,,,,,,,,,,,,,,,,,,,,,,,,,,,,,,,662.9532342670718,None,662.9532342670718,None,662.9532342670718,None,4.0,3.331427855999209,662.9532342670718,None,662.9532342670718,None,4.0,4.586679789004847,665.8385804879945,None,662.9532342670718,None,7.0,6.6248722539749,667.1046646160539,None,662.9532342670718,None,space,0.5400592559017241,6.65341646107845,None,662.9532342670718,None,662.9532342670718,None,,,,,,,,,1,2022_Apr_04_1537,SAR-soap,2021.1.2,59.61248879324388,
44,Trial # 40,Group1-stimuli/group1-block1/real-group1-b1/Group1_IMG_0148.jpg,1,Group1_IMG_0148.jpg,,,,,0.0,39.0,39.0,39.0,,,,,,,,,,,,,,,,,,,,,,,,,,,,,,,,,,,,,670.205060948967,None,670.205060948967,None,670.205060948967,None,7.0,2.410834608017467,670.205060948967,None,670.205060948967,None,6.0,5.233589796931483,672.1577096660621,None,670.205060948967,None,7.0,4.638347208034247,673.2571078130277,None,670.205060948967,None,space,1.728458122932352,4.6625503457617015,None,670.205060948967,None,670.205060948967,None,,,,,,,,,1,2022_Apr_04_1537,SAR-soap,2021.1.2,59.61248879324388,
45,Trial # 41,Group1-stimuli/group1-block1/real-group1-b1/Group1_IMG_2891.jpg,1,Group1_IMG_2891.jpg,,,,,0.0,40.0,40.0,40.0,,,,,,,,,,,,,,,,,,,,,,,,,,,,,,,,,,,,,676.6242481210502,None,676.6242481210502,None,676.6242481210502,None,1.0,1.9104815239552408,676.6242481210502,None,676.6242481210502,None,1.0,2.4993397829821333,678.0753401380498,None,676.6242481210502,None,3.0,3.5711969869444147,678.6742252410622,None,676.6242481210502,None,space,0.7120245959376916,3.5970333558507264,None,676.6242481210502,None,676.6242481210502,None,,,,,,,,,1,2022_Apr_04_1537,SAR-soap,2021.1.2,59.61248879324388,
46,Trial # 42,Group1-stimuli/group1-block1/real-group1-b1/Group1_IMG_0157.jpg,1,Group1_IMG_0157.jpg,,,,,0.0,41.0,41.0,41.0,,,,,,,,,,,,,,,,,,,,,,,,,,,,,,,,,,,,,680.9754035180667,None,680.9754035180667,None,680.9754035180667,None,5.0,2.965302820899524,680.9754035180667,None,680.9754035180667,None,5.0,5.6558176970575005,683.4930611579912,None,680.9754035180667,None,7.0,7.22891242604237,686.194244230981,None,680.9754035180667,None,space,0.5013461039634421,7.258215929148719,None,680.9754035180667,None,680.9754035180667,None,,,,,,,,,1,2022_Apr_04_1537,SAR-soap,2021.1.2,59.61248879324388,
47,Trial # 43,Group1-stimuli/group1-block1/real-group1-b1/Group1_IMG_9833.jpg,1,Group1_IMG_9833.jpg,,,,,0.0,42.0,42.0,42.0,,,,,,,,,,,,,,,,,,,,,,,,,,,,,,,,,,,,,688.7940546770114,None,688.7940546770114,None,688.7940546770114,None,1.0,1.4789152489975097,688.7940546770114,None,688.7940546770114,None,1.0,2.0020835829200223,689.8285586909624,None,688.7940546770114,None,1.0,2.4742271879222244,690.361094856984,None,688.7940546770114,None,space,0.5684537410270423,2.5021809161407877,None,688.7940546770114,None,688.7940546770114,None,,,,,,,,,1,2022_Apr_04_1537,SAR-soap,2021.1.2,59.61248879324388,
48,Trial # 44,Group1-stimuli/group1-block1/fake-group2-b1/encoded_Group2_IMG_2230.jpg,0,encoded_Group2_IMG_2230.jpg,,,,,0.0,43.0,43.0,43.0,,,,,,,,,,,,,,,,,,,,,,,,,,,,,,,,,,,,,691.9126495060045,None,691.9126495060045,None,691.9126495060045,None,4.0,2.2132135500432923,691.9126495060045,None,691.9126495060045,None,3.0,5.587079607998021,693.6796736910474,None,691.9126495060045,None,7.0,10.493970920913853,697.0645793779986,None,691.9126495060045,None,space,0.5848892219364643,10.521070679766126,None,691.9126495060045,None,691.9126495060045,None,,,,,,,,,1,2022_Apr_04_1537,SAR-soap,2021.1.2,59.61248879324388,
49,Trial # 45,Group1-stimuli/group1-block1/real-group1-b1/Group1_IMG_9966.jpg,1,Group1_IMG_9966.jpg,,,,,0.0,44.0,44.0,44.0,,,,,,,,,,,,,,,,,,,,,,,,,,,,,,,,,,,,,703.0994764170609,None,703.0994764170609,None,703.0994764170609,None,6.0,5.76127216394525,703.0994764170609,None,703.0994764170609,None,2.0,7.385151340044104,708.400232337066,None,703.0994764170609,None,7.0,8.424633761984296,710.0346276189666,None,703.0994764170609,None,space,0.6021822040202096,8.448925881646574,None,703.0994764170609,None,703.0994764170609,None,,,,,,,,,1,2022_Apr_04_1537,SAR-soap,2021.1.2,59.61248879324388,
50,Trial # 46,Group1-stimuli/group1-block1/real-group1-b1/Group1_IMG_0239.jpg,1,Group1_IMG_0239.jpg,,,,,0.0,45.0,45.0,45.0,,,,,,,,,,,,,,,,,,,,,,,,,,,,,,,,,,,,,712.2018141020089,None,712.2018141020089,None,712.2018141020089,None,1.0,1.6334239090792837,712.2018141020089,None,712.2018141020089,None,1.0,2.222961402963847,713.3864395570708,None,712.2018141020089,None,1.0,2.660779136931524,713.9862438549753,None,712.2018141020089,None,space,0.5310699429828674,2.6933719943044707,None,712.2018141020089,None,712.2018141020089,None,,,,,,,,,1,2022_Apr_04_1537,SAR-soap,2021.1.2,59.61248879324388,
51,Trial # 47,Group1-stimuli/group1-block1/fake-group2-b1/encoded_Group2_IMG_0536.jpg,0,encoded_Group2_IMG_0536.jpg,,,,,0.0,46.0,46.0,46.0,,,,,,,,,,,,,,,,,,,,,,,,,,,,,,,,,,,,,715.4358177280519,None,715.4358177280519,None,715.4358177280519,None,1.0,1.4149090950377283,715.4358177280519,None,715.4358177280519,None,1.0,2.072955481009558,716.4043550309725,None,715.4358177280519,None,1.0,2.676328039960936,717.0703458130592,None,715.4358177280519,None,space,0.8549692300148308,2.70633701980114,None,715.4358177280519,None,715.4358177280519,None,,,,,,,,,1,2022_Apr_04_1537,SAR-soap,2021.1.2,59.61248879324388,
52,Trial # 48,Group1-stimuli/group1-block1/fake-group2-b1/encoded_Group2_IMG_0521.jpg,0,encoded_Group2_IMG_0521.jpg,,,,,0.0,47.0,47.0,47.0,,,,,,,,,,,,,,,,,,,,,,,,,,,,,,,,,,,,,719.0209993469762,None,719.0209993469762,None,719.0209993469762,None,3.0,1.996765511925332,719.0209993469762,None,719.0209993469762,None,2.0,5.220074951066636,720.5707040140405,None,719.0209993469762,None,5.0,7.261121210991405,723.8053017450729,None,719.0209993469762,None,space,1.5095122930360958,6.321378055843525,None,719.0209993469762,None,719.0209993469762,None,,,,,,,,,1,2022_Apr_04_1537,SAR-soap,2021.1.2,59.61248879324388,
53,Trial # 49,Group1-stimuli/group1-block1/fake-group2-b1/encoded_Group2_IMG_9924.jpg,0,encoded_Group2_IMG_9924.jpg,,,,,0.0,48.0,48.0,48.0,,,,,,,,,,,,,,,,,,,,,,,,,,,,,,,,,,,,,726.9063972859876,None,726.9063972859876,None,726.9063972859876,None,1.0,1.4807852699887007,726.9063972859876,None,726.9063972859876,None,1.0,2.086986866081133,727.94018241507,None,726.9063972859876,None,1.0,2.7252620389917865,728.5565198389813,None,726.9063972859876,None,space,0.5437485140282661,2.753361573209986,None,726.9063972859876,None,726.9063972859876,None,,,,,,,,,1,2022_Apr_04_1537,SAR-soap,2021.1.2,59.61248879324388,
54,Trial # 50,Group1-stimuli/group1-block1/real-group1-b1/Group1_IMG_9730.jpg,1,Group1_IMG_9730.jpg,,,,,0.0,49.0,49.0,49.0,,,,,,,,,,,,,,,,,,,,,,,,,,,,,,,,,,,,,730.2576510700164,None,730.2576510700164,None,730.2576510700164,None,6.0,3.910428861971013,730.2576510700164,None,730.2576510700164,None,5.0,12.15185136697255,733.7082280670293,None,730.2576510700164,None,6.0,14.157818989944644,741.9620767610613,None,730.2576510700164,None,space,0.5166422839974985,14.181405286770314,None,730.2576510700164,None,730.2576510700164,None,,,,,,,,,1,2022_Apr_04_1537,SAR-soap,2021.1.2,59.61248879324388,
55,Trial # 51,Group1-stimuli/group1-block1/real-group1-b1/Group1_IMG_0053.jpg,1,Group1_IMG_0053.jpg,,,,,0.0,50.0,50.0,50.0,,,,,,,,,,,,,,,,,,,,,,,,,,,,,,,,,,,,,744.9947636369616,None,744.9947636369616,None,744.9947636369616,None,1.0,1.8994641239987688,744.9947636369616,None,744.9947636369616,None,1.0,2.65433650102932,746.4466629329836,None,744.9947636369616,None,1.0,4.593329538940452,747.2131599059794,None,744.9947636369616,None,space,0.5323574519716203,4.622538046212867,None,744.9947636369616,None,744.9947636369616,None,,,,,,,,,1,2022_Apr_04_1537,SAR-soap,2021.1.2,59.61248879324388,
56,Trial # 52,Group1-stimuli/group1-block1/real-group1-b1/Group1_IMG_9698.jpg,1,Group1_IMG_9698.jpg,,,,,0.0,51.0,51.0,51.0,,,,,,,,,,,,,,,,,,,,,,,,,,,,,,,,,,,,,750.1794704860076,None,750.1794704860076,None,750.1794704860076,None,1.0,1.8157057049684229,750.1794704860076,None,750.1794704860076,None,1.0,2.438975735916756,751.5480601229938,None,750.1794704860076,None,1.0,2.9422915669856597,752.1813242899952,None,750.1794704860076,None,space,0.5564586679683998,2.973190908203833,None,750.1794704860076,None,750.1794704860076,None,,,,,,,,,1,2022_Apr_04_1537,SAR-soap,2021.1.2,59.61248879324388,
57,Trial # 53,Group1-stimuli/group1-block1/fake-group2-b1/encoded_Group2_IMG_0553.jpg,0,encoded_Group2_IMG_0553.jpg,,,,,0.0,52.0,52.0,52.0,,,,,,,,,,,,,,,,,,,,,,,,,,,,,,,,,,,,,753.7484617360169,None,753.7484617360169,None,753.7484617360169,None,1.0,1.7029322370653972,753.7484617360169,None,753.7484617360169,None,1.0,2.2587583779823035,754.9984587590443,None,753.7484617360169,None,2.0,3.0981785459443927,755.5650733910734,None,753.7484617360169,None,space,0.5355048369383439,3.131289836252108,None,753.7484617360169,None,753.7484617360169,None,,,,,,,,,1,2022_Apr_04_1537,SAR-soap,2021.1.2,59.61248879324388,
58,Trial # 54,Group1-stimuli/group1-block1/fake-group2-b1/encoded_Group2_IMG_9758.jpg,0,encoded_Group2_IMG_9758.jpg,,,,,0.0,53.0,53.0,53.0,,,,,,,,,,,,,,,,,,,,,,,,,,,,,,,,,,,,,757.4489684710279,None,757.4489684710279,None,757.4489684710279,None,5.0,5.14906253805384,757.4489684710279,None,757.4489684710279,None,4.0,7.520706152892671,758.6667477709707,None,757.4489684710279,None,5.0,8.82709817297291,764.534723713994,None,757.4489684710279,None,space,0.7063270229846239,8.855910880723968,None,757.4489684710279,None,757.4489684710279,None,,,,,,,,,1,2022_Apr_04_1537,SAR-soap,2021.1.2,59.61248879324388,
59,Trial # 55,Group1-stimuli/group1-block1/fake-group2-b1/encoded_Group2_IMG_0339.jpg,0,encoded_Group2_IMG_0339.jpg,,,,,0.0,54.0,54.0,54.0,,,,,,,,,,,,,,,,,,,,,,,,,,,,,,,,,,,,,767.0529433679767,None,767.0529433679767,None,767.0529433679767,None,1.0,2.6810101789887995,767.0529433679767,None,767.0529433679767,None,1.0,3.1700587330851704,769.2864307480631,None,767.0529433679767,None,1.0,3.740647649974562,769.7862397179706,None,767.0529433679767,None,space,0.549203219008632,3.7694833708228543,None,767.0529433679767,None,767.0529433679767,None,,,,,,,,,1,2022_Apr_04_1537,SAR-soap,2021.1.2,59.61248879324388,
60,Trial # 56,Group1-stimuli/group1-block1/real-group1-b1/Group1_IMG_0314.jpg,1,Group1_IMG_0314.jpg,,,,,0.0,55.0,55.0,55.0,,,,,,,,,,,,,,,,,,,,,,,,,,,,,,,,,,,,,771.4199275650317,None,771.4199275650317,None,771.4199275650317,None,2.0,14.78189203410875,771.4199275650317,None,771.4199275650317,None,1.0,17.15427515702322,783.5736606479622,None,771.4199275650317,None,2.0,19.19270738598425,788.1255936810048,None,771.4199275650317,None,space,0.7504677439574152,19.21820906375069,None,771.4199275650317,None,771.4199275650317,None,,,,,,,,,1,2022_Apr_04_1537,SAR-soap,2021.1.2,59.61248879324388,
61,Trial # 57,Group1-stimuli/group1-block1/fake-group2-b1/encoded_Group2_IMG_0532.jpg,0,encoded_Group2_IMG_0532.jpg,,,,,0.0,56.0,56.0,56.0,,,,,,,,,,,,,,,,,,,,,,,,,,,,,,,,,,,,,791.4432085900335,None,791.4432085900335,None,791.4432085900335,None,3.0,5.161432011052966,791.4432085900335,None,791.4432085900335,None,3.0,6.884241432067938,796.145311026019,None,791.4432085900335,None,3.0,8.223081056959927,797.8787888149964,None,791.4432085900335,None,space,0.8819315830478445,8.248770358157344,None,791.4432085900335,None,791.4432085900335,None,,,,,,,,,1,2022_Apr_04_1537,SAR-soap,2021.1.2,59.61248879324388,
62,Trial # 58,Group1-stimuli/group1-block1/fake-group2-b1/encoded_Group2_IMG_0462.jpg,0,encoded_Group2_IMG_0462.jpg,,,,,0.0,57.0,57.0,57.0,,,,,,,,,,,,,,,,,,,,,,,,,,,,,,,,,,,,,800.5957548649749,None,800.5957548649749,None,800.5957548649749,None,3.0,3.0307531940052286,800.5957548649749,None,800.5957548649749,None,2.0,4.252627773093991,803.1796057180036,None,800.5957548649749,None,4.0,6.693786993972026,804.4138404260157,None,800.5957548649749,None,space,0.5262127249734476,6.720966112799943,None,800.5957548649749,None,800.5957548649749,None,,,,,,,,,1,2022_Apr_04_1537,SAR-soap,2021.1.2,59.61248879324388,
63,Trial # 59,Group1-stimuli/group1-block1/real-group1-b1/Group1_IMG_0172.jpg,1,Group1_IMG_0172.jpg,,,,,0.0,58.0,58.0,58.0,,,,,,,,,,,,,,,,,,,,,,,,,,,,,,,,,,,,,807.9819928270299,None,807.9819928270299,None,807.9819928270299,None,1.0,1.6117404360556975,807.9819928270299,None,807.9819928270299,None,1.0,2.202297722105868,809.1480356300017,None,807.9819928270299,None,1.0,2.839277685037814,809.7482786469627,None,807.9819928270299,None,space,0.5359523319639266,2.868033707491122,None,807.9819928270299,None,807.9819928270299,None,,,,,,,,,1,2022_Apr_04_1537,SAR-soap,2021.1.2,59.61248879324388,
64,Trial # 60,Group1-stimuli/group1-block1/real-group1-b1/Group1_IMG_4841.jpg,1,Group1_IMG_4841.jpg,,,,,0.0,59.0,59.0,59.0,,,,,,,,,,,,,,,,,,,,,,,,,,,,,,,,,,,,,811.4500099549768,None,811.4500099549768,None,811.4500099549768,None,3.0,1.8983065389329568,811.4500099549768,None,811.4500099549768,None,3.0,3.253861904027872,812.9000686230138,None,811.4500099549768,None,4.0,5.29315428098198,814.2668341869721,None,811.4500099549768,None,space,0.576952820061706,5.322862555272877,None,811.4500099549768,None,811.4500099549768,None,,,,,,,,,1,2022_Apr_04_1537,SAR-soap,2021.1.2,59.61248879324388,
65,Trial # 61,Group1-stimuli/group1-block1/fake-group2-b1/encoded_Group2_IMG_0352.jpg,0,encoded_Group2_IMG_0352.jpg,,,,,0.0,60.0,60.0,60.0,,,,,,,,,,,,,,,,,,,,,,,,,,,,,,,,,,,,,817.3844300750643,None,817.3844300750643,None,817.3844300750643,None,1.0,1.5469920110190287,817.3844300750643,None,817.3844300750643,None,1.0,2.103266246034764,818.4853781979764,None,817.3844300750643,None,1.0,3.241102005005814,819.0509236520156,None,817.3844300750643,None,space,0.4928270620293915,3.2700727018527687,None,817.3844300750643,None,817.3844300750643,None,,,,,,,,,1,2022_Apr_04_1537,SAR-soap,2021.1.2,59.61248879324388,
66,Trial # 62,Group1-stimuli/group1-block1/fake-group2-b1/encoded_Group2_IMG_9726.jpg,0,encoded_Group2_IMG_9726.jpg,,,,,0.0,61.0,61.0,61.0,,,,,,,,,,,,,,,,,,,,,,,,,,,,,,,,,,,,,821.1688993390417,None,821.1688993390417,None,821.1688993390417,None,7.0,10.149805917055346,821.1688993390417,None,821.1688993390417,None,5.0,12.955646662972867,822.4872289469931,None,821.1688993390417,None,5.0,6.060775298043154,823.9198408169905,None,821.1688993390417,None,space,7.545959325972944,6.088277898845263,None,821.1688993390417,None,821.1688993390417,None,,,,,,,,,1,2022_Apr_04_1537,SAR-soap,2021.1.2,59.61248879324388,
67,Trial # 63,Group1-stimuli/group1-block1/fake-group2-b1/encoded_Group2_IMG_9785.jpg,0,encoded_Group2_IMG_9785.jpg,,,,,0.0,62.0,62.0,62.0,,,,,,,,,,,,,,,,,,,,,,,,,,,,,,,,,,,,,834.8388738039648,None,834.8388738039648,None,834.8388738039648,None,5.0,6.649001904996112,834.8388738039648,None,834.8388738039648,None,3.0,8.921421080012806,841.04218807898,None,834.8388738039648,None,4.0,10.160345033975318,843.3258868950652,None,834.8388738039648,None,space,0.535178794991225,10.187715172651224,None,834.8388738039648,None,834.8388738039648,None,,,,,,,,,1,2022_Apr_04_1537,SAR-soap,2021.1.2,59.61248879324388,
68,Trial # 64,Group1-stimuli/group1-block1/fake-group2-b1/encoded_Group2_IMG_0440.jpg,0,encoded_Group2_IMG_0440.jpg,,,,,0.0,63.0,63.0,63.0,,,,,,,,,,,,,,,,,,,,,,,,,,,,,,,,,,,,,845.6255736510502,None,845.6255736510502,None,845.6255736510502,None,6.0,2.255050047999248,845.6255736510502,None,845.6255736510502,None,2.0,6.646863729925826,847.4269676429685,None,845.6255736510502,None,3.0,8.25060892791953,849.2605756260455,None,845.6255736510502,None,space,0.4575833319686353,8.271245302748866,None,845.6255736510502,None,845.6255736510502,None,,,,,,,,,1,2022_Apr_04_1537,SAR-soap,2021.1.2,59.61248879324388,
69,Trial # 65,Group1-stimuli/group1-block1/fake-group2-b1/encoded_Group2_IMG_1695.jpg,0,encoded_Group2_IMG_1695.jpg,,,,,0.0,64.0,64.0,64.0,,,,,,,,,,,,,,,,,,,,,,,,,,,,,,,,,,,,,854.395949229016,None,854.395949229016,None,854.395949229016,None,1.0,2.0714229659643024,854.395949229016,None,854.395949229016,None,1.0,2.6946415490238,856.0139925470576,None,854.395949229016,None,1.0,3.366202535922639,856.6467132590478,None,854.395949229016,None,space,0.9488246400142089,3.384688332909718,None,854.395949229016,None,854.395949229016,None,,,,,,,,,1,2022_Apr_04_1537,SAR-soap,2021.1.2,59.61248879324388,
70,Trial # 66,Group1-stimuli/group1-block1/real-group1-b1/Group1_IMG_0552.jpg,1,Group1_IMG_0552.jpg,,,,,0.0,65.0,65.0,65.0,,,,,,,,,,,,,,,,,,,,,,,,,,,,,,,,,,,,,858.7808431820013,None,858.7808431820013,None,858.7808431820013,None,1.0,1.505589282955043,858.7808431820013,None,858.7808431820013,None,1.0,2.1286702619399875,859.8304217910627,None,858.7808431820013,None,2.0,3.234037659014575,860.4632456320105,None,858.7808431820013,None,space,0.6093846689909697,3.2536399537930265,None,858.7808431820013,None,858.7808431820013,None,,,,,,,,,1,2022_Apr_04_1537,SAR-soap,2021.1.2,59.61248879324388,
71,Trial # 67,Group1-stimuli/group1-block1/real-group1-b1/Group1_IMG_1029.jpg,1,Group1_IMG_1029.jpg,,,,,0.0,66.0,66.0,66.0,,,,,,,,,,,,,,,,,,,,,,,,,,,,,,,,,,,,,862.698234564974,None,862.698234564974,None,862.698234564974,None,5.0,3.666803341009654,862.698234564974,None,862.698234564974,None,2.0,5.622209376073442,865.9163613299606,None,862.698234564974,None,3.0,10.39664295304101,867.8831117090303,None,862.698234564974,None,space,0.5946144700283185,10.425191886140963,None,862.698234564974,None,862.698234564974,None,,,,,,,,,1,2022_Apr_04_1537,SAR-soap,2021.1.2,59.61248879324388,
72,Trial # 68,Group1-stimuli/group1-block1/fake-group2-b1/encoded_Group2_IMG_6517.jpg,0,encoded_Group2_IMG_6517.jpg,,,,,0.0,67.0,67.0,67.0,,,,,,,,,,,,,,,,,,,,,,,,,,,,,,,,,,,,,873.7343805989949,None,873.7343805989949,None,873.7343805989949,None,1.0,1.594722441979684,873.7343805989949,None,873.7343805989949,None,1.0,2.3179499889956787,874.8855576029746,None,873.7343805989949,None,1.0,3.0249189420137554,875.618635463994,None,873.7343805989949,None,space,0.4618457249598577,3.052264673751779,None,873.7343805989949,None,873.7343805989949,None,,,,,,,,,1,2022_Apr_04_1537,SAR-soap,2021.1.2,59.61248879324388,
73,Trial # 69,Group1-stimuli/group1-block1/fake-group2-b1/encoded_Group2_IMG_0002.jpg,0,encoded_Group2_IMG_0002.jpg,,,,,0.0,68.0,68.0,68.0,,,,,,,,,,,,,,,,,,,,,,,,,,,,,,,,,,,,,877.2692157119745,None,877.2692157119745,None,877.2692157119745,None,5.0,2.7960193550679837,877.2692157119745,None,877.2692157119745,None,4.0,5.552480194950476,879.6207102990011,None,877.2692157119745,None,6.0,7.292153662070632,882.3883875900647,None,877.2692157119745,None,space,0.499557959032245,7.3197098658420146,None,877.2692157119745,None,877.2692157119745,None,,,,,,,,,1,2022_Apr_04_1537,SAR-soap,2021.1.2,59.61248879324388,
74,Trial # 70,Group1-stimuli/group1-block1/real-group1-b1/Group1_IMG_0495.jpg,1,Group1_IMG_0495.jpg,,,,,0.0,69.0,69.0,69.0,,,,,,,,,,,,,,,,,,,,,,,,,,,,,,,,,,,,,885.1548565980047,None,885.1548565980047,None,885.1548565980047,None,1.0,1.9367074080510065,885.1548565980047,None,885.1548565980047,None,1.0,2.5923930569551885,886.6393769519636,None,885.1548565980047,None,1.0,3.1306612889748067,887.3057554849656,None,885.1548565980047,None,space,0.534967351006344,3.164221163257025,None,885.1548565980047,None,885.1548565980047,None,,,,,,,,,1,2022_Apr_04_1537,SAR-soap,2021.1.2,59.61248879324388,
75,Trial # 71,Group1-stimuli/group1-block1/real-group1-b1/Group1_IMG_1391.jpg,1,Group1_IMG_1391.jpg,,,,,0.0,70.0,70.0,70.0,,,,,,,,,,,,,,,,,,,,,,,,,,,,,,,,,,,,,888.9065631229896,None,888.9065631229896,None,888.9065631229896,None,4.0,6.452377741923556,888.9065631229896,None,888.9065631229896,None,3.0,7.024957520072348,892.8586271479726,None,888.9065631229896,None,3.0,9.564295597025191,895.4913310609991,None,888.9065631229896,None,space,0.6674368489766493,9.596746511175295,None,888.9065631229896,None,888.9065631229896,None,,,,,,,,,1,2022_Apr_04_1537,SAR-soap,2021.1.2,59.61248879324388,
76,Trial # 72,Group1-stimuli/group1-block1/real-group1-b1/Group1_IMG_0343.jpg,1,Group1_IMG_0343.jpg,,,,,0.0,71.0,71.0,71.0,,,,,,,,,,,,,,,,,,,,,,,,,,,,,,,,,,,,,899.2262324980693,None,899.2262324980693,None,899.2262324980693,None,2.0,7.646819062065333,899.2262324980693,None,899.2262324980693,None,1.0,4.218374514952302,901.143661202048,None,899.2262324980693,None,1.0,5.723139751004055,902.9950118110282,None,899.2262324980693,None,space,3.63117937289644,5.748409820720553,None,899.2262324980693,None,899.2262324980693,None,,,,,,,,,1,2022_Apr_04_1537,SAR-soap,2021.1.2,59.61248879324388,
77,Trial # 73,Group1-stimuli/group1-block1/fake-group2-b1/encoded_Group2_IMG_9810.jpg,0,encoded_Group2_IMG_9810.jpg,,,,,0.0,72.0,72.0,72.0,,,,,,,,,,,,,,,,,,,,,,,,,,,,,,,,,,,,,908.6127026160248,None,908.6127026160248,None,908.6127026160248,None,1.0,1.4971633079694584,908.6127026160248,None,908.6127026160248,None,1.0,2.21981139597483,909.662607159,None,908.6127026160248,None,1.0,3.1255513839423656,910.3965319880516,None,908.6127026160248,None,space,0.5093935530167073,3.153285219799727,None,908.6127026160248,None,908.6127026160248,None,,,,,,,,,1,2022_Apr_04_1537,SAR-soap,2021.1.2,59.61248879324388,
78,Trial # 74,Group1-stimuli/group1-block1/fake-group2-b1/encoded_Group2_IMG_5900.jpg,0,encoded_Group2_IMG_5900.jpg,,,,,0.0,73.0,73.0,73.0,,,,,,,,,,,,,,,,,,,,,,,,,,,,,,,,,,,,,912.3310845500092,None,912.3310845500092,None,912.3310845500092,None,1.0,1.6214687189785764,912.3310845500092,None,912.3310845500092,None,1.0,2.1436436239164323,913.4980355419684,None,912.3310845500092,None,1.0,3.782474381965585,914.030570265022,None,912.3310845500092,None,space,0.5498680600430816,3.802815649774857,None,912.3310845500092,None,912.3310845500092,None,,,,,,,,,1,2022_Apr_04_1537,SAR-soap,2021.1.2,59.61248879324388,
79,Trial # 75,Group1-stimuli/group1-block1/real-group1-b1/Group1_IMG_9679.jpg,1,Group1_IMG_9679.jpg,,,,,0.0,74.0,74.0,74.0,,,,,,,,,,,,,,,,,,,,,,,,,,,,,,,,,,,,,916.7321274400456,None,916.7321274400456,None,916.7321274400456,None,1.0,1.6094351820647717,916.7321274400456,None,916.7321274400456,None,1.0,2.333523554028943,917.8834163900464,None,916.7321274400456,None,1.0,2.970537505927496,918.6153140600072,None,916.7321274400456,None,space,0.5252395030111074,2.9960107759106904,None,916.7321274400456,None,916.7321274400456,None,,,,,,,,,1,2022_Apr_04_1537,SAR-soap,2021.1.2,59.61248879324388,
80,Trial # 76,Group1-stimuli/group1-block1/fake-group2-b1/encoded_Group2_IMG_4249.jpg,0,encoded_Group2_IMG_4249.jpg,,,,,0.0,75.0,75.0,75.0,,,,,,,,,,,,,,,,,,,,,,,,,,,,,,,,,,,,,920.2652579899876,None,920.2652579899876,None,920.2652579899876,None,7.0,4.115350199048407,920.2652579899876,None,920.2652579899876,None,6.0,5.1205039110500365,921.9167794800596,None,920.2652579899876,None,4.0,7.893541190074757,924.950110794045,None,920.2652579899876,None,space,1.269794982043095,7.155571194831282,None,920.2652579899876,None,920.2652579899876,None,,,,,,,,,1,2022_Apr_04_1537,SAR-soap,2021.1.2,59.61248879324388,
81,Trial # 77,Group1-stimuli/group1-block1/fake-group2-b1/encoded_Group2_IMG_0174.jpg,0,encoded_Group2_IMG_0174.jpg,,,,,0.0,76.0,76.0,76.0,,,,,,,,,,,,,,,,,,,,,,,,,,,,,,,,,,,,,928.735025363043,None,928.735025363043,None,928.735025363043,None,2.0,4.147079707006924,928.735025363043,None,928.735025363043,None,1.0,5.1535640390357,930.6525217039743,None,928.735025363043,None,2.0,6.724694416974671,933.45311363996,None,928.735025363043,None,space,0.457371172029525,6.753347731777467,None,928.735025363043,None,928.735025363043,None,,,,,,,,,1,2022_Apr_04_1537,SAR-soap,2021.1.2,59.61248879324388,
82,Trial # 78,Group1-stimuli/group1-block1/fake-group2-b1/encoded_Group2_IMG_0475.jpg,0,encoded_Group2_IMG_0475.jpg,,,,,0.0,77.0,77.0,77.0,,,,,,,,,,,,,,,,,,,,,,,,,,,,,,,,,,,,,935.9710009889676,None,935.9710009889676,None,935.9710009889676,None,1.0,3.2826235400279984,935.9710009889676,None,935.9710009889676,None,1.0,4.204158851061948,938.8052833799738,None,935.9710009889676,None,2.0,4.975856466102414,939.7390301700216,None,935.9710009889676,None,space,0.476670844014734,5.0052262268727645,None,935.9710009889676,None,935.9710009889676,None,,,,,,,,,1,2022_Apr_04_1537,SAR-soap,2021.1.2,59.61248879324388,
83,Trial # 79,Group1-stimuli/group1-block1/fake-group2-b1/encoded_Group2_IMG_9751.jpg,0,encoded_Group2_IMG_9751.jpg,,,,,0.0,78.0,78.0,78.0,,,,,,,,,,,,,,,,,,,,,,,,,,,,,,,,,,,,,941.49021793704,None,941.49021793704,None,941.49021793704,None,5.0,6.431652482948266,941.49021793704,None,941.49021793704,None,4.0,7.57117151201237,944.7400152169866,None,941.49021793704,None,5.0,8.644351121969521,948.6250400140416,None,941.49021793704,None,space,0.522537628072314,8.671656982740387,None,941.49021793704,None,941.49021793704,None,,,,,,,,,1,2022_Apr_04_1537,SAR-soap,2021.1.2,59.61248879324388,
84,Trial # 80,Group1-stimuli/group1-block1/fake-group2-b1/encoded_Group2_IMG_0492.jpg,0,encoded_Group2_IMG_0492.jpg,,,,,0.0,79.0,79.0,79.0,,,,,,,,,,,,,,,,,,,,,,,,,,,,,,,,,,,,,950.7255216990598,None,950.7255216990598,None,950.7255216990598,None,1.0,3.2353051260579377,950.7255216990598,None,950.7255216990598,None,1.0,3.757819105987437,953.5096394340508,None,950.7255216990598,None,1.0,5.161860469961539,954.0429916030262,None,950.7255216990598,None,space,0.803419537958689,5.1932863760739565,None,950.7255216990598,None,950.7255216990598,None,,,,,,,,,1,2022_Apr_04_1537,SAR-soap,2021.1.2,59.61248879324388,
85,Trial # 81,Group1-stimuli/group1-block1/real-group1-b1/Group1_IMG_0535.jpg,1,Group1_IMG_0535.jpg,,,,,0.0,80.0,80.0,80.0,,,,,,,,,,,,,,,,,,,,,,,,,,,,,,,,,,,,,956.8612834260566,None,956.8612834260566,None,956.8612834260566,None,1.0,1.512830181978643,956.8612834260566,None,956.8612834260566,None,1.0,2.36854840896558,957.9277342070128,None,956.8612834260566,None,1.0,3.341520495014265,958.7941888030618,None,956.8612834260566,None,space,0.6050879110116512,3.3711021222407,None,956.8612834260566,None,956.8612834260566,None,,,,,,,,,1,2022_Apr_04_1537,SAR-soap,2021.1.2,59.61248879324388,
86,Trial # 82,Group1-stimuli/group1-block1/real-group1-b1/Group1_IMG_0077.jpg,1,Group1_IMG_0077.jpg,,,,,0.0,81.0,81.0,81.0,,,,,,,,,,,,,,,,,,,,,,,,,,,,,,,,,,,,,960.8954836829798,None,960.8954836829798,None,960.8954836829798,None,6.0,4.969277288997546,960.8954836829798,None,960.8954836829798,None,6.0,6.876013686996885,963.3631345770556,None,960.8954836829798,None,7.0,7.813562402967364,967.331426918041,None,960.8954836829798,None,space,0.3103160969913006,7.846407719189301,None,960.8954836829798,None,960.8954836829798,None,,,,,,,,,1,2022_Apr_04_1537,SAR-soap,2021.1.2,59.61248879324388,
87,Trial # 83,Group1-stimuli/group1-block1/fake-group2-b1/encoded_Group2_IMG_9702.jpg,0,encoded_Group2_IMG_9702.jpg,,,,,0.0,82.0,82.0,82.0,,,,,,,,,,,,,,,,,,,,,,,,,,,,,,,,,,,,,969.08063684206,None,969.08063684206,None,969.08063684206,None,1.0,1.4805599729297685,969.08063684206,None,969.08063684206,None,1.0,2.03656403592322,970.1139752799644,None,969.08063684206,None,1.0,2.608856801991351,970.6807185809594,None,969.08063684206,None,space,0.1655739319976419,2.636716458830051,None,969.08063684206,None,969.08063684206,None,,,,,,,,,1,2022_Apr_04_1537,SAR-soap,2021.1.2,59.61248879324388,
88,Trial # 84,Group1-stimuli/group1-block1/real-group1-b1/Group1_IMG_0357.jpg,1,Group1_IMG_0357.jpg,,,,,0.0,83.0,83.0,83.0,,,,,,,,,,,,,,,,,,,,,,,,,,,,,,,,,,,,,971.9153238920262,None,971.9153238920262,None,971.9153238920262,None,1.0,2.6934313839301467,971.9153238920262,None,971.9153238920262,None,1.0,3.3160519130760804,974.1489539010216,None,971.9153238920262,None,1.0,4.120451964088716,974.782509343,None,971.9153238920262,None,space,0.2231196060311049,4.145044929813594,None,971.9153238920262,None,971.9153238920262,None,,,,,,,,,1,2022_Apr_04_1537,SAR-soap,2021.1.2,59.61248879324388,
89,Trial # 85,Group1-stimuli/group1-block1/real-group1-b1/Group1_IMG_9772.jpg,1,Group1_IMG_9772.jpg,,,,,0.0,84.0,84.0,84.0,,,,,,,,,,,,,,,,,,,,,,,,,,,,,,,,,,,,,976.3166753890692,None,976.3166753890692,None,976.3166753890692,None,6.0,1.8260183070087803,976.3166753890692,None,976.3166753890692,None,6.0,4.782761619077064,977.6848392080284,None,976.3166753890692,None,5.0,7.823326290003024,980.6509979680412,None,976.3166753890692,None,space,0.1600385279161855,7.848534968798049,None,976.3166753890692,None,976.3166753890692,None,,,,,,,,,1,2022_Apr_04_1537,SAR-soap,2021.1.2,59.61248879324388,
90,Trial # 86,Group1-stimuli/group1-block1/real-group1-b1/Group1_IMG_0482.jpg,1,Group1_IMG_0482.jpg,,,,,0.0,85.0,85.0,85.0,,,,,,,,,,,,,,,,,,,,,,,,,,,,,,,,,,,,,984.3526896539844,None,984.3526896539844,None,984.3526896539844,None,1.0,1.57979107205756,984.3526896539844,None,984.3526896539844,None,1.0,2.1374691060045734,985.4865483340108,None,984.3526896539844,None,1.0,2.6753865979844704,986.0531851720298,None,984.3526896539844,None,space,0.1789581079501658,2.703225097269751,None,984.3526896539844,None,984.3526896539844,None,,,,,,,,,1,2022_Apr_04_1537,SAR-soap,2021.1.2,59.61248879324388,
91,Trial # 87,Group1-stimuli/group1-block1/real-group1-b1/Group1_IMG_0299.jpg,1,Group1_IMG_0299.jpg,,,,,0.0,86.0,86.0,86.0,,,,,,,,,,,,,,,,,,,,,,,,,,,,,,,,,,,,,987.2868733750656,None,987.2868733750656,None,987.2868733750656,None,6.0,3.1811971369897947,987.2868733750656,None,987.2868733750656,None,7.0,4.771174877998419,990.0207096210216,None,987.2868733750656,None,6.0,6.610693525988609,991.6224944769638,None,987.2868733750656,None,space,0.4231091300025582,6.638489416218363,None,987.2868733750656,None,987.2868733750656,None,,,,,,,,,1,2022_Apr_04_1537,SAR-soap,2021.1.2,59.61248879324388,
92,Trial # 88,Group1-stimuli/group1-block1/fake-group2-b1/encoded_Group2_IMG_0301.jpg,0,encoded_Group2_IMG_0301.jpg,,,,,0.0,87.0,87.0,87.0,,,,,,,,,,,,,,,,,,,,,,,,,,,,,,,,,,,,,994.3716729820007,None,994.3716729820007,None,994.3716729820007,None,6.0,3.779545245924965,994.3716729820007,None,994.3716729820007,None,3.0,4.902431805036031,997.7070587460184,None,994.3716729820007,None,5.0,6.708062484976836,998.8403365290724,None,994.3716729820007,None,space,0.2299437429755926,6.735219648922794,None,994.3716729820007,None,994.3716729820007,None,,,,,,,,,1,2022_Apr_04_1537,SAR-soap,2021.1.2,59.61248879324388,
93,Trial # 89,Group1-stimuli/group1-block1/fake-group2-b1/encoded_Group2_IMG_5136.jpg,0,encoded_Group2_IMG_5136.jpg,,,,,0.0,88.0,88.0,88.0,,,,,,,,,,,,,,,,,,,,,,,,,,,,,,,,,,,,,1001.358487016987,None,1001.358487016987,None,1001.358487016987,None,5.0,4.913993687019683,1001.358487016987,None,1001.358487016987,None,4.0,7.370950737968087,1005.8268874640344,None,1001.358487016987,None,7.0,8.04298383591231,1007.1930143439675,None,1001.358487016987,None,space,0.1662967370357364,8.070838417857885,None,1001.358487016987,None,1001.358487016987,None,,,,,,,,,1,2022_Apr_04_1537,SAR-soap,2021.1.2,59.61248879324388,
94,Trial # 90,Group1-stimuli/group1-block1/real-group1-b1/Group1_IMG_0460.jpg,1,Group1_IMG_0460.jpg,,,,,0.0,89.0,89.0,89.0,,,,,,,,,,,,,,,,,,,,,,,,,,,,,,,,,,,,,1009.6270666329656,None,1009.6270666329656,None,1009.6270666329656,None,6.0,2.110333161079325,1009.6270666329656,None,1009.6270666329656,None,6.0,4.982621686998755,1011.2784845340066,None,1009.6270666329656,None,4.0,7.790305132046342,1014.1616801950148,None,1009.6270666329656,None,space,2.074567622039467,7.814518971834332,None,1009.6270666329656,None,1009.6270666329656,None,,,,,,,,,1,2022_Apr_04_1537,SAR-soap,2021.1.2,59.61248879324388,
95,Trial # 91,Group1-stimuli/group1-block1/fake-group2-b1/encoded_Group2_IMG_0068.jpg,0,encoded_Group2_IMG_0068.jpg,,,,,0.0,90.0,90.0,90.0,,,,,,,,,,,,,,,,,,,,,,,,,,,,,,,,,,,,,1019.5632881170604,None,1019.5632881170604,None,1019.5632881170604,None,6.0,2.3671401829924434,1019.5632881170604,None,1019.5632881170604,None,4.0,8.573677900014445,1021.4809699440376,None,1019.5632881170604,None,6.0,11.414515536045656,1027.7002483620308,None,1019.5632881170604,None,space,0.1126037520589307,11.446594282053413,None,1019.5632881170604,None,1019.5632881170604,None,,,,,,,,,1,2022_Apr_04_1537,SAR-soap,2021.1.2,59.61248879324388,
96,Trial # 92,Group1-stimuli/group1-block1/real-group1-b1/Group1_IMG_0337.jpg,1,Group1_IMG_0337.jpg,,,,,0.0,91.0,91.0,91.0,,,,,,,,,,,,,,,,,,,,,,,,,,,,,,,,,,,,,1031.2006326749688,None,1031.2006326749688,None,1031.2006326749688,None,2.0,4.274105638032779,1031.2006326749688,None,1031.2006326749688,None,1.0,2.54695803206414,1032.7351936260238,None,1031.2006326749688,None,1.0,3.0847165439045057,1033.3008300450165,None,1031.2006326749688,None,space,1.371927724103443,3.105731795541942,None,1031.2006326749688,None,1031.2006326749688,None,,,,,,,,,1,2022_Apr_04_1537,SAR-soap,2021.1.2,59.61248879324388,
97,Trial # 93,Group1-stimuli/group1-block1/fake-group2-b1/encoded_Group2_IMG_0346.jpg,0,encoded_Group2_IMG_0346.jpg,,,,,0.0,92.0,92.0,92.0,,,,,,,,,,,,,,,,,,,,,,,,,,,,,,,,,,,,,1035.718014593003,None,1035.718014593003,None,1035.718014593003,None,1.0,1.9467507370281965,1035.718014593003,None,1035.718014593003,None,1.0,2.537882238975726,1037.2197521009948,None,1035.718014593003,None,1.0,3.0424013369483878,1037.819224411971,None,1035.718014593003,None,space,0.2231564499670639,3.068545842776075,None,1035.718014593003,None,1035.718014593003,None,,,,,,,,,1,2022_Apr_04_1537,SAR-soap,2021.1.2,59.61248879324388,
98,Trial # 94,Group1-stimuli/group1-block1/real-group1-b1/Group1_IMG_4253.jpg,1,Group1_IMG_4253.jpg,,,,,0.0,93.0,93.0,93.0,,,,,,,,,,,,,,,,,,,,,,,,,,,,,,,,,,,,,1039.0530091520632,None,1039.0530091520632,None,1039.0530091520632,None,6.0,4.509862124919891,1039.0530091520632,None,1039.0530091520632,None,6.0,3.983407479943708,1040.486800890067,None,1039.0530091520632,None,4.0,6.755319410003722,1042.5881397960477,None,1039.0530091520632,None,space,0.1800297909649089,6.779004385927692,None,1039.0530091520632,None,1039.0530091520632,None,,,,,,,,,1,2022_Apr_04_1537,SAR-soap,2021.1.2,59.61248879324388,
99,Trial # 95,Group1-stimuli/group1-block1/fake-group2-b1/encoded_Group2_IMG_9280.jpg,0,encoded_Group2_IMG_9280.jpg,,,,,0.0,94.0,94.0,94.0,,,,,,,,,,,,,,,,,,,,,,,,,,,,,,,,,,,,,1046.0379772069864,None,1046.0379772069864,None,1046.0379772069864,None,5.0,16.634456922998652,1046.0379772069864,None,1046.0379772069864,None,3.0,21.792682530009188,1062.2277413699776,None,1046.0379772069864,None,7.0,23.49867520795669,1064.3938558519585,None,1046.0379772069864,None,space,0.7898146229563281,22.958741818671115,None,1046.0379772069864,None,1046.0379772069864,None,,,,,,,,,1,2022_Apr_04_1537,SAR-soap,2021.1.2,59.61248879324388,
100,Trial # 96,Group1-stimuli/group1-block1/real-group1-b1/Group1_IMG_0417.jpg,1,Group1_IMG_0417.jpg,,,,,0.0,95.0,95.0,95.0,,,,,,,,,,,,,,,,,,,,,,,,,,,,,,,,,,,,,1069.8281492210226,None,1069.8281492210226,None,1069.8281492210226,None,4.0,4.010246935999021,1069.8281492210226,None,1069.8281492210226,None,3.0,5.899776094011031,1073.3805935679702,None,1069.8281492210226,None,2.0,7.939675059984438,1075.2803673050366,None,1069.8281492210226,None,space,0.1786448379280045,7.965251124813221,None,1069.8281492210226,None,1069.8281492210226,None,,,,,,,,,1,2022_Apr_04_1537,SAR-soap,2021.1.2,59.61248879324388,
101,Trial # 97,Group1-stimuli/group1-block1/fake-group2-b1/encoded_Group2_IMG_9695.jpg,0,encoded_Group2_IMG_9695.jpg,,,,,0.0,96.0,96.0,96.0,,,,,,,,,,,,,,,,,,,,,,,,,,,,,,,,,,,,,1077.9976808070203,None,1077.9976808070203,None,1077.9976808070203,None,1.0,1.7121333059621977,1077.9976808070203,None,1077.9976808070203,None,1.0,2.202323855017312,1079.264769988018,None,1077.9976808070203,None,1.0,2.6741921299835667,1079.7647463480243,None,1077.9976808070203,None,space,0.1904797980096191,2.701270237681456,None,1077.9976808070203,None,1077.9976808070203,None,,,,,,,,,1,2022_Apr_04_1537,SAR-soap,2021.1.2,59.61248879324388,
102,Trial # 98,Group1-stimuli/group1-block1/real-group1-b1/Group1_IMG_1160.jpg,1,Group1_IMG_1160.jpg,,,,,0.0,97.0,97.0,97.0,,,,,,,,,,,,,,,,,,,,,,,,,,,,,,,,,,,,,1080.949541268055,None,1080.949541268055,None,1080.949541268055,None,5.0,3.462863550987094,1080.949541268055,None,1080.949541268055,None,3.0,4.685257603996433,1083.9503047950566,None,1080.949541268055,None,3.0,7.291901145945303,1085.1834801189834,None,1080.949541268055,None,space,0.0298841909971088,7.317075925297104,None,1080.949541268055,None,1080.949541268055,None,,,,,,,,,1,2022_Apr_04_1537,SAR-soap,2021.1.2,59.61248879324388,
103,Trial # 99,Group1-stimuli/group1-block1/real-group1-b1/Group1_IMG_0448.jpg,1,Group1_IMG_0448.jpg,,,,,0.0,98.0,98.0,98.0,,,,,,,,,,,,,,,,,,,,,,,,,,,,,,,,,,,,,1088.318704830017,None,1088.318704830017,None,1088.318704830017,None,4.0,18.87415198702365,1088.318704830017,None,1088.318704830017,None,3.0,18.281014397973195,1102.4566480179783,None,1088.318704830017,None,4.0,21.38553292292636,1106.1575211790623,None,1088.318704830017,None,space,0.0761321829631924,21.420562497107312,None,1088.318704830017,None,1088.318704830017,None,,,,,,,,,1,2022_Apr_04_1537,SAR-soap,2021.1.2,59.61248879324388,
104,Trial # 100,Group1-stimuli/group1-block1/fake-group2-b1/encoded_Group2_IMG_0393.jpg,0,encoded_Group2_IMG_0393.jpg,,,,,0.0,99.0,99.0,99.0,,,,,,,,,,,,,,,,,,,,,,,,,,,,,,,,,,,,,1109.8408211519709,None,1109.8408211519709,None,1109.8408211519709,None,4.0,2.881685594911687,1109.8408211519709,None,1109.8408211519709,None,3.0,8.820480167982168,1112.2762155310484,None,1109.8408211519709,None,4.0,11.66188727307599,1118.2276027899934,None,1109.8408211519709,None,space,0.1917639619205147,11.690119905862955,None,1109.8408211519709,None,1109.8408211519709,None,,,,,,,,,1,2022_Apr_04_1537,SAR-soap,2021.1.2,59.61248879324388,
105,Trial # 101,Group1-stimuli/group1-block1/real-group1-b1/Group1_IMG_0090.jpg,1,Group1_IMG_0090.jpg,,,,,0.0,100.0,100.0,100.0,,,,,,,,,,,,,,,,,,,,,,,,,,,,,,,,,,,,,1121.778636737028,None,1121.778636737028,None,1121.778636737028,None,1.0,1.5300080620218068,1121.778636737028,None,1121.778636737028,None,1.0,2.0182945110136643,1122.862957314006,None,1121.778636737028,None,1.0,2.624117708997801,1123.3621620190097,None,1121.778636737028,None,space,0.3641568700550124,2.650398023542948,None,1121.778636737028,None,1121.778636737028,None,,,,,,,,,1,2022_Apr_04_1537,SAR-soap,2021.1.2,59.61248879324388,
106,Trial # 102,Group1-stimuli/group1-block1/real-group1-b1/Group1_IMG_0310.jpg,1,Group1_IMG_0310.jpg,,,,,0.0,101.0,101.0,101.0,,,,,,,,,,,,,,,,,,,,,,,,,,,,,,,,,,,,,1124.829248966067,None,1124.829248966067,None,1124.829248966067,None,1.0,1.6600424899952486,1124.829248966067,None,1124.829248966067,None,1.0,2.2172808600589637,1126.030842032982,None,1124.829248966067,None,1.0,2.755268657929264,1126.597154129995,None,1124.829248966067,None,space,0.4674063239945099,2.7797795708756894,None,1124.829248966067,None,1124.829248966067,None,,,,,,,,,1,2022_Apr_04_1537,SAR-soap,2021.1.2,59.61248879324388,
107,Trial # 103,Group1-stimuli/group1-block1/fake-group2-b1/encoded_Group2_IMG_0528.jpg,0,encoded_Group2_IMG_0528.jpg,,,,,0.0,102.0,102.0,102.0,,,,,,,,,,,,,,,,,,,,,,,,,,,,,,,,,,,,,1128.1307698299645,None,1128.1307698299645,None,1128.1307698299645,None,3.0,2.1014606420649216,1128.1307698299645,None,1128.1307698299645,None,2.0,9.843400552985258,1129.781428387971,None,1128.1307698299645,None,4.0,8.648319481057115,1134.815727903042,None,1128.1307698299645,None,space,1.3926098159281537,8.681817578268237,None,1128.1307698299645,None,1128.1307698299645,None,,,,,,,,,1,2022_Apr_04_1537,SAR-soap,2021.1.2,59.61248879324388,
108,Trial # 104,Group1-stimuli/group1-block1/fake-group2-b1/encoded_Group2_IMG_1975.jpg,0,encoded_Group2_IMG_1975.jpg,,,,,0.0,103.0,103.0,103.0,,,,,,,,,,,,,,,,,,,,,,,,,,,,,,,,,,,,,1138.2162938540569,None,1138.2162938540569,None,1138.2162938540569,None,1.0,1.6796555889304727,1138.2162938540569,None,1138.2162938540569,None,1.0,2.2027062859851867,1139.45015603106,None,1138.2162938540569,None,1.0,3.14058146905154,1139.9830880430527,None,1138.2162938540569,None,space,0.1359250569948926,3.169030303834006,None,1138.2162938540569,None,1138.2162938540569,None,,,,,,,,,1,2022_Apr_04_1537,SAR-soap,2021.1.2,59.61248879324388,
109,Trial # 105,Group1-stimuli/group1-block1/fake-group2-b1/encoded_Group2_IMG_0052.jpg,0,encoded_Group2_IMG_0052.jpg,,,,,0.0,104.0,104.0,104.0,,,,,,,,,,,,,,,,,,,,,,,,,,,,,,,,,,,,,1141.5854453250067,None,1141.5854453250067,None,1141.5854453250067,None,1.0,1.6257164489943534,1141.5854453250067,None,1141.5854453250067,None,1.0,2.18173069995828,1142.751416409039,None,1141.5854453250067,None,1.0,2.7872165619628504,1143.319053460029,None,1141.5854453250067,None,space,0.1839647699380293,2.809520283830352,None,1141.5854453250067,None,1141.5854453250067,None,,,,,,,,,1,2022_Apr_04_1537,SAR-soap,2021.1.2,59.61248879324388,
110,Trial # 106,Group1-stimuli/group1-block1/fake-group2-b1/encoded_Group2_IMG_0225.jpg,0,encoded_Group2_IMG_0225.jpg,,,,,0.0,105.0,105.0,105.0,,,,,,,,,,,,,,,,,,,,,,,,,,,,,,,,,,,,,1144.6182856650555,None,1144.6182856650555,None,1144.6182856650555,None,3.0,1.818063359009102,1144.6182856650555,None,1144.6182856650555,None,3.0,3.273399407044053,1145.9865792730125,None,1144.6182856650555,None,2.0,7.479995683999732,1147.4538292409852,None,1144.6182856650555,None,space,0.0309258720371872,7.512418848113157,None,1144.6182856650555,None,1144.6182856650555,None,,,,,,,,,1,2022_Apr_04_1537,SAR-soap,2021.1.2,59.61248879324388,
111,Trial # 107,Group1-stimuli/group1-block1/real-group1-b1/Group1_IMG_2231.jpg,1,Group1_IMG_2231.jpg,,,,,0.0,106.0,106.0,106.0,,,,,,,,,,,,,,,,,,,,,,,,,,,,,,,,,,,,,1152.1883964670124,None,1152.1883964670124,None,1152.1883964670124,None,4.0,2.484864338999614,1152.1883964670124,None,1152.1883964670124,None,4.0,7.441234164056368,1154.222212941968,None,1152.1883964670124,None,5.0,9.11460621189326,1159.1895922990516,None,1152.1883964670124,None,space,0.1400011499645188,9.147995232255198,None,1152.1883964670124,None,1152.1883964670124,None,,,,,,,,,1,2022_Apr_04_1537,SAR-soap,2021.1.2,59.61248879324388,
112,Trial # 108,Group1-stimuli/group1-block1/real-group1-b1/Group1_IMG_0217.jpg,1,Group1_IMG_0217.jpg,,,,,0.0,107.0,107.0,107.0,,,,,,,,,,,,,,,,,,,,,,,,,,,,,,,,,,,,,1161.523770231055,None,1161.523770231055,None,1161.523770231055,None,5.0,1.5916668069548905,1161.523770231055,None,1161.523770231055,None,5.0,3.548455846961588,1162.6578151640715,None,1161.523770231055,None,4.0,6.788361396989785,1164.6248864399968,None,1161.523770231055,None,space,1.4237365149892869,5.479413037654012,None,1161.523770231055,None,1161.523770231055,None,,,,,,,,,1,2022_Apr_04_1537,SAR-soap,2021.1.2,59.61248879324388,
113,Trial # 109,Group1-stimuli/group1-block1/real-group1-b1/Group1_IMG_0264.jpg,1,Group1_IMG_0264.jpg,,,,,0.0,108.0,108.0,108.0,,,,,,,,,,,,,,,,,,,,,,,,,,,,,,,,,,,,,1168.4595073160017,None,1168.4595073160017,None,1168.4595073160017,None,7.0,4.18228549300693,1168.4595073160017,None,1168.4595073160017,None,6.0,5.204880449920893,1171.5106197199784,None,1168.4595073160017,None,6.0,7.1766877439804375,1173.2272622770397,None,1168.4595073160017,None,space,0.1556854640366509,7.207645547110587,None,1168.4595073160017,None,1168.4595073160017,None,,,,,,,,,1,2022_Apr_04_1537,SAR-soap,2021.1.2,59.61248879324388,
114,Trial # 110,Group1-stimuli/group1-block1/fake-group2-b1/encoded_Group2_IMG_0254.jpg,0,encoded_Group2_IMG_0254.jpg,,,,,0.0,109.0,109.0,109.0,,,,,,,,,,,,,,,,,,,,,,,,,,,,,,,,,,,,,1175.8623720880132,None,1175.8623720880132,None,1175.8623720880132,None,1.0,1.635467953979969,1175.8623720880132,None,1175.8623720880132,None,1.0,2.157776843989268,1177.0461689439835,None,1175.8623720880132,None,1.0,2.663025924935937,1177.5790349890012,None,1175.8623720880132,None,space,0.1670525419758632,2.694169160211459,None,1175.8623720880132,None,1175.8623720880132,None,,,,,,,,,1,2022_Apr_04_1537,SAR-soap,2021.1.2,59.61248879324388,
115,Trial # 111,Group1-stimuli/group1-block1/fake-group2-b1/encoded_Group2_IMG_5433.jpg,0,encoded_Group2_IMG_5433.jpg,,,,,0.0,110.0,110.0,110.0,,,,,,,,,,,,,,,,,,,,,,,,,,,,,,,,,,,,,1178.7789443080546,None,1178.7789443080546,None,1178.7789443080546,None,1.0,1.650992196984589,1178.7789443080546,None,1178.7789443080546,None,1.0,2.17504764709156,1179.978813320049,None,1178.7789443080546,None,1.0,2.58115393598564,1180.51268066396,None,1178.7789443080546,None,space,0.4680063260020688,2.613277991185896,None,1178.7789443080546,None,1178.7789443080546,None,,,,,,,,,1,2022_Apr_04_1537,SAR-soap,2021.1.2,59.61248879324388,
116,Trial # 112,Group1-stimuli/group1-block1/real-group1-b1/Group1_IMG_0252.jpg,1,Group1_IMG_0252.jpg,,,,,0.0,111.0,111.0,111.0,,,,,,,,,,,,,,,,,,,,,,,,,,,,,,,,,,,,,1181.9138632050017,None,1181.9138632050017,None,1181.9138632050017,None,3.0,2.5516367231030017,1181.9138632050017,None,1181.9138632050017,None,2.0,4.2075778460130095,1184.0136021650396,None,1181.9138632050017,None,1.0,5.647772256983444,1185.6810008509783,None,1181.9138632050017,None,space,0.1382316190283745,5.681723425164819,None,1181.9138632050017,None,1181.9138632050017,None,,,,,,,,,1,2022_Apr_04_1537,SAR-soap,2021.1.2,59.61248879324388,
117,Trial # 113,Group1-stimuli/group1-block1/real-group1-b1/Group1_IMG_9720.jpg,1,Group1_IMG_9720.jpg,,,,,0.0,112.0,112.0,112.0,,,,,,,,,,,,,,,,,,,,,,,,,,,,,,,,,,,,,1187.782058855053,None,1187.782058855053,None,1187.782058855053,None,4.0,2.008492870023474,1187.782058855053,None,1187.782058855053,None,3.0,3.497839304036461,1189.3320947090397,None,1187.782058855053,None,4.0,5.904995157965459,1190.8327600740597,None,1187.782058855053,None,space,1.6525283280061558,5.928718184819445,None,1187.782058855053,None,1187.782058855053,None,,,,,,,,,1,2022_Apr_04_1537,SAR-soap,2021.1.2,59.61248879324388,
118,Trial # 114,Group1-stimuli/group1-block1/fake-group2-b1/encoded_Group2_IMG_0550.jpg,0,encoded_Group2_IMG_0550.jpg,,,,,0.0,113.0,113.0,113.0,,,,,,,,,,,,,,,,,,,,,,,,,,,,,,,,,,,,,1195.4010134889977,None,1195.4010134889977,None,1195.4010134889977,None,1.0,1.7520413969177753,1195.4010134889977,None,1195.4010134889977,None,1.0,2.208195953979157,1196.7019933650736,None,1195.4010134889977,None,1.0,2.846847477951087,1197.1686283120653,None,1195.4010134889977,None,space,0.156129568000324,2.877307320246473,None,1195.4010134889977,None,1195.4010134889977,None,,,,,,,,,1,2022_Apr_04_1537,SAR-soap,2021.1.2,59.61248879324388,
119,Trial # 115,Group1-stimuli/group1-block1/real-group1-b1/Group1_IMG_9915.jpg,1,Group1_IMG_9915.jpg,,,,,0.0,114.0,114.0,114.0,,,,,,,,,,,,,,,,,,,,,,,,,,,,,,,,,,,,,1198.4688837219728,None,1198.4688837219728,None,1198.4688837219728,None,1.0,1.4820175759959966,1198.4688837219728,None,1198.4688837219728,None,1.0,2.0383087859954685,1199.5025596120397,None,1198.4688837219728,None,1.0,2.509800125961192,1200.069294393994,None,1198.4688837219728,None,space,0.1903754849918186,2.538652122253552,None,1198.4688837219728,None,1198.4688837219728,None,,,,,,,,,1,2022_Apr_04_1537,SAR-soap,2021.1.2,59.61248879324388,
120,Trial # 116,Group1-stimuli/group1-block1/real-group1-b1/Group1_IMG_9850.jpg,1,Group1_IMG_9850.jpg,,,,,0.0,115.0,115.0,115.0,,,,,,,,,,,,,,,,,,,,,,,,,,,,,,,,,,,,,1201.2531483679777,None,1201.2531483679777,None,1201.2531483679777,None,1.0,1.808679952984676,1201.2531483679777,None,1201.2531483679777,None,1.0,2.3645029939943925,1202.6038386409637,None,1201.2531483679777,None,1.0,2.9353888670448214,1203.1697998100426,None,1201.2531483679777,None,space,0.1812004960374906,2.957527054240927,None,1201.2531483679777,None,1201.2531483679777,None,,,,,,,,,1,2022_Apr_04_1537,SAR-soap,2021.1.2,59.61248879324388,
121,Trial # 117,Group1-stimuli/group1-block1/real-group1-b1/Group1_IMG_3579.jpg,1,Group1_IMG_3579.jpg,,,,,0.0,116.0,116.0,116.0,,,,,,,,,,,,,,,,,,,,,,,,,,,,,,,,,,,,,1204.436779926997,None,1204.436779926997,None,1204.436779926997,None,5.0,4.298971066949889,1204.436779926997,None,1204.436779926997,None,4.0,5.08784504502546,1205.9048537010094,None,1204.436779926997,None,5.0,6.126044385018759,1209.0890833740125,None,1204.436779926997,None,space,0.2924233661033213,6.1551292452495545,None,1204.436779926997,None,1204.436779926997,None,,,,,,,,,1,2022_Apr_04_1537,SAR-soap,2021.1.2,59.61248879324388,
122,Trial # 118,Group1-stimuli/group1-block1/fake-group2-b1/encoded_Group2_IMG_0377.jpg,0,encoded_Group2_IMG_0377.jpg,,,,,0.0,117.0,117.0,117.0,,,,,,,,,,,,,,,,,,,,,,,,,,,,,,,,,,,,,1210.9232064899988,None,1210.9232064899988,None,1210.9232064899988,None,1.0,1.5688566480530426,1210.9232064899988,None,1210.9232064899988,None,1.0,2.057793596992269,1212.0392925359774,None,1210.9232064899988,None,1.0,2.530791008961387,1212.5402087490074,None,1210.9232064899988,None,space,0.2315257620066404,2.561366487061605,None,1210.9232064899988,None,1210.9232064899988,None,,,,,,,,,1,2022_Apr_04_1537,SAR-soap,2021.1.2,59.61248879324388,
123,Trial # 119,Group1-stimuli/group1-block1/real-group1-b1/Group1_IMG_0469.jpg,1,Group1_IMG_0469.jpg,,,,,0.0,118.0,118.0,118.0,,,,,,,,,,,,,,,,,,,,,,,,,,,,,,,,,,,,,1213.739257292007,None,1213.739257292007,None,1213.739257292007,None,1.0,1.6636528169037774,1213.739257292007,None,1213.739257292007,None,1.0,2.2207219779957086,1214.956654160982,None,1213.739257292007,None,1.0,2.694211406982504,1215.5237938270438,None,1213.739257292007,None,space,0.1353400839725509,2.7209961873013526,None,1213.739257292007,None,1213.739257292007,None,,,,,,,,,1,2022_Apr_04_1537,SAR-soap,2021.1.2,59.61248879324388,
124,Trial # 120,Group1-stimuli/group1-block1/fake-group2-b1/encoded_Group2_IMG_0100.jpg,0,encoded_Group2_IMG_0100.jpg,,,,,0.0,119.0,119.0,119.0,,,,,,,,,,,,,,,,,,,,,,,,,,,,,,,,,,,,,1216.6582339029992,None,1216.6582339029992,None,1216.6582339029992,None,1.0,1.5886583479586989,1216.6582339029992,None,1216.6582339029992,None,1.0,2.111010682070628,1217.7913240529597,None,1216.6582339029992,None,1.0,2.5502636790042743,1218.325165254064,None,1216.6582339029992,None,space,0.2643537010299042,2.5686626547249034,None,1216.6582339029992,None,1216.6582339029992,None,,,,,,,,,1,2022_Apr_04_1537,SAR-soap,2021.1.2,59.61248879324388,
125,Trial # 121,Group1-stimuli/group1-block1/real-group1-b1/Group1_IMG_5359.jpg,1,Group1_IMG_5359.jpg,,,,,0.0,120.0,120.0,120.0,,,,,,,,,,,,,,,,,,,,,,,,,,,,,,,,,,,,,1219.525303176022,None,1219.525303176022,None,1219.525303176022,None,3.0,1.896506060031243,1219.525303176022,None,1219.525303176022,None,2.0,5.503538167919032,1220.9758920070017,None,1219.525303176022,None,3.0,6.742287221015431,1224.5930868010037,None,1219.525303176022,None,space,0.162966088973917,6.770699534215964,None,1219.525303176022,None,1219.525303176022,None,,,,,,,,,1,2022_Apr_04_1537,SAR-soap,2021.1.2,59.61248879324388,
126,Trial # 122,Group1-stimuli/group1-block1/fake-group2-b1/encoded_Group2_IMG_0304.jpg,0,encoded_Group2_IMG_0304.jpg,,,,,0.0,121.0,121.0,121.0,,,,,,,,,,,,,,,,,,,,,,,,,,,,,,,,,,,,,1226.4776423360454,None,1226.4776423360454,None,1226.4776423360454,None,5.0,1.8300814109388737,1226.4776423360454,None,1226.4776423360454,None,3.0,5.519212545012124,1227.8613650840707,None,1226.4776423360454,None,3.0,6.825599925941788,1231.563128391048,None,1226.4776423360454,None,space,0.3032888650195673,6.852967275655828,None,1226.4776423360454,None,1226.4776423360454,None,,,,,,,,,1,2022_Apr_04_1537,SAR-soap,2021.1.2,59.61248879324388,
127,Trial # 123,Group1-stimuli/group1-block1/real-group1-b1/Group1_IMG_0306.jpg,1,Group1_IMG_0306.jpg,,,,,0.0,122.0,122.0,122.0,,,,,,,,,,,,,,,,,,,,,,,,,,,,,,,,,,,,,1233.6955110779963,None,1233.6955110779963,None,1233.6955110779963,None,6.0,4.734720811014995,1233.6955110779963,None,1233.6955110779963,None,5.0,5.573261045035906,1235.0295839400496,None,1233.6955110779963,None,5.0,7.879615150974132,1236.5979043990374,None,1233.6955110779963,None,space,0.1222183849895373,7.910768191213719,None,1233.6955110779963,None,1233.6955110779963,None,,,,,,,,,1,2022_Apr_04_1537,SAR-soap,2021.1.2,59.61248879324388,
128,Trial # 124,Group1-stimuli/group1-block1/real-group1-b1/Group1_IMG_0224.jpg,1,Group1_IMG_0224.jpg,,,,,0.0,123.0,123.0,123.0,,,,,,,,,,,,,,,,,,,,,,,,,,,,,,,,,,,,,1241.7659059499856,None,1241.7659059499856,None,1241.7659059499856,None,5.0,5.285822924925014,1241.7659059499856,None,1241.7659059499856,None,3.0,7.141553699038923,1246.6011269059964,None,1241.7659059499856,None,4.0,11.515111429034732,1248.467830072041,None,1241.7659059499856,None,space,0.1228827409213408,11.546791204134934,None,1241.7659059499856,None,1241.7659059499856,None,,,,,,,,,1,2022_Apr_04_1537,SAR-soap,2021.1.2,59.61248879324388,
129,Trial # 125,Group1-stimuli/group1-block1/real-group1-b1/Group1_IMG_9889.jpg,1,Group1_IMG_9889.jpg,,,,,0.0,124.0,124.0,124.0,,,,,,,,,,,,,,,,,,,,,,,,,,,,,,,,,,,,,1253.5020244349726,None,1253.5020244349726,None,1253.5020244349726,None,1.0,1.6913647279143331,1253.5020244349726,None,1253.5020244349726,None,1.0,2.3139595789834857,1254.7352194910636,None,1253.5020244349726,None,1.0,2.784603354986757,1255.3686080870684,None,1253.5020244349726,None,space,0.1457316429587081,2.8093080344842747,None,1253.5020244349726,None,1253.5020244349726,None,,,,,,,,,1,2022_Apr_04_1537,SAR-soap,2021.1.2,59.61248879324388,
130,Trial # 126,Group1-stimuli/group1-block1/real-group1-b1/Group1_IMG_0293.jpg,1,Group1_IMG_0293.jpg,,,,,0.0,125.0,125.0,125.0,,,,,,,,,,,,,,,,,,,,,,,,,,,,,,,,,,,,,1256.5203121600207,None,1256.5203121600207,None,1256.5203121600207,None,1.0,1.8111198469996448,1256.5203121600207,None,1256.5203121600207,None,1.0,2.3334433500422165,1257.871020489023,None,1256.5203121600207,None,1.0,2.8400809899903834,1258.4042005130325,None,1256.5203121600207,None,space,0.1337974319467321,2.864630989148281,None,1256.5203121600207,None,1256.5203121600207,None,,,,,,,,,1,2022_Apr_04_1537,SAR-soap,2021.1.2,59.61248879324388,
131,Trial # 127,Group1-stimuli/group1-block1/fake-group2-b1/encoded_Group2_IMG_0321.jpg,0,encoded_Group2_IMG_0321.jpg,,,,,0.0,126.0,126.0,126.0,,,,,,,,,,,,,,,,,,,,,,,,,,,,,,,,,,,,,1259.5704629239626,None,1259.5704629239626,None,1259.5704629239626,None,1.0,1.6063097480218858,1259.5704629239626,None,1259.5704629239626,None,1.0,2.064450763980858,1260.7213727630442,None,1259.5704629239626,None,1.0,2.902925105998293,1261.1886726940284,None,1259.5704629239626,None,space,0.176608039997518,2.9233165258774534,None,1259.5704629239626,None,1259.5704629239626,None,,,,,,,,,1,2022_Apr_04_1537,SAR-soap,2021.1.2,59.61248879324388,
132,Trial # 128,Group1-stimuli/group1-block1/fake-group2-b1/encoded_Group2_IMG_0400.jpg,0,encoded_Group2_IMG_0400.jpg,,,,,0.0,127.0,127.0,127.0,,,,,,,,,,,,,,,,,,,,,,,,,,,,,,,,,,,,,1262.7223824530374,None,1262.7223824530374,None,1262.7223824530374,None,4.0,2.00016885495279,1262.7223824530374,None,1262.7223824530374,None,4.0,3.58888441498857,1264.2718292530626,None,1262.7223824530374,None,4.0,4.897083526011556,1265.8733233090024,None,1262.7223824530374,None,space,2.4886141470633447,4.928244976210408,None,1262.7223824530374,None,1262.7223824530374,None,,,,,,,,,1,2022_Apr_04_1537,SAR-soap,2021.1.2,59.61248879324388,
133,Trial # 129,Group1-stimuli/group1-block1/fake-group2-b1/encoded_Group2_IMG_0443.jpg,0,encoded_Group2_IMG_0443.jpg,,,,,0.0,128.0,128.0,128.0,,,,,,,,,,,,,,,,,,,,,,,,,,,,,,,,,,,,,1270.1734433909878,None,1270.1734433909878,None,1270.1734433909878,None,7.0,8.420342091005296,1270.1734433909878,None,1270.1734433909878,None,6.0,9.426057482953183,1271.4588012989843,None,1270.1734433909878,None,5.0,11.566529901931062,1276.6937915770104,None,1270.1734433909878,None,space,0.1430846040602773,11.597752424073406,None,1270.1734433909878,None,1270.1734433909878,None,,,,,,,,,1,2022_Apr_04_1537,SAR-soap,2021.1.2,59.61248879324388,
134,Trial # 130,Group1-stimuli/group1-block1/fake-group2-b1/encoded_Group2_IMG_0542.jpg,0,encoded_Group2_IMG_0542.jpg,,,,,0.0,129.0,129.0,129.0,,,,,,,,,,,,,,,,,,,,,,,,,,,,,,,,,,,,,1281.9609484430405,None,1281.9609484430405,None,1281.9609484430405,None,1.0,1.6134968959959224,1281.9609484430405,None,1281.9609484430405,None,1.0,2.104133883025497,1283.127725436003,None,1281.9609484430405,None,1.0,2.6099654579302296,1283.628552547074,None,1281.9609484430405,None,space,0.1893944320036098,2.638549077208154,None,1281.9609484430405,None,1281.9609484430405,None,,,,,,,,,1,2022_Apr_04_1537,SAR-soap,2021.1.2,59.61248879324388,
135,Trial # 131,Group1-stimuli/group1-block1/real-group1-b1/Group1_IMG_0885.jpg,1,Group1_IMG_0885.jpg,,,,,0.0,130.0,130.0,130.0,,,,,,,,,,,,,,,,,,,,,,,,,,,,,,,,,,,,,1284.8280340330675,None,1284.8280340330675,None,1284.8280340330675,None,7.0,1.8509135659551248,1284.8280340330675,None,1284.8280340330675,None,7.0,3.174953350913711,1286.2297233910067,None,1284.8280340330675,None,7.0,4.581295290030539,1287.5636007930152,None,1284.8280340330675,None,space,0.1705988169414922,4.612525140168145,None,1284.8280340330675,None,1284.8280340330675,None,,,,,,,,,1,2022_Apr_04_1537,SAR-soap,2021.1.2,59.61248879324388,
136,Trial # 132,Group1-stimuli/group1-block1/real-group1-b1/Group1_IMG_0375.jpg,1,Group1_IMG_0375.jpg,,,,,0.0,131.0,131.0,131.0,,,,,,,,,,,,,,,,,,,,,,,,,,,,,,,,,,,,,1289.663276058971,None,1289.663276058971,None,1289.663276058971,None,1.0,1.8348494849633423,1289.663276058971,None,1289.663276058971,None,1.0,2.290549185010605,1291.0473971939646,None,1289.663276058971,None,1.0,2.79821132007055,1291.513745440985,None,1289.663276058971,None,space,0.1192236919887363,2.828602680237964,None,1289.663276058971,None,1289.663276058971,None,,,,,,,,,1,2022_Apr_04_1537,SAR-soap,2021.1.2,59.61248879324388,
137,Trial # 133,Group1-stimuli/group1-block1/fake-group2-b1/encoded_Group2_IMG_7351.jpg,0,encoded_Group2_IMG_7351.jpg,,,,,0.0,132.0,132.0,132.0,,,,,,,,,,,,,,,,,,,,,,,,,,,,,,,,,,,,,1292.6481284300098,None,1292.6481284300098,None,1292.6481284300098,None,5.0,2.137207316001877,1292.6481284300098,None,1292.6481284300098,None,3.0,3.3925368640339,1294.3314533020605,None,1292.6481284300098,None,6.0,4.899458139901981,1295.5983412789649,None,1292.6481284300098,None,space,0.155450884019956,4.916879817843437,None,1292.6481284300098,None,1292.6481284300098,None,,,,,,,,,1,2022_Apr_04_1537,SAR-soap,2021.1.2,59.61248879324388,
138,Trial # 134,Group1-stimuli/group1-block1/fake-group2-b1/encoded_Group2_IMG_0416.jpg,0,encoded_Group2_IMG_0416.jpg,,,,,0.0,133.0,133.0,133.0,,,,,,,,,,,,,,,,,,,,,,,,,,,,,,,,,,,,,1297.7664762369825,None,1297.7664762369825,None,1297.7664762369825,None,6.0,5.52462795691099,1297.7664762369825,None,1297.7664762369825,None,2.0,6.597094575990923,1300.0175091669662,None,1297.7664762369825,None,1.0,11.370542107033543,1303.9178382720563,None,1297.7664762369825,None,space,1.542314009973779,10.023874665726908,None,1297.7664762369825,None,1297.7664762369825,None,,,,,,,,,1,2022_Apr_04_1537,SAR-soap,2021.1.2,59.61248879324388,
139,Trial # 135,Group1-stimuli/group1-block1/fake-group2-b1/encoded_Group2_IMG_0139.jpg,0,encoded_Group2_IMG_0139.jpg,,,,,0.0,134.0,134.0,134.0,,,,,,,,,,,,,,,,,,,,,,,,,,,,,,,,,,,,,1309.40254609799,None,1309.40254609799,None,1309.40254609799,None,1.0,1.5585469100624323,1309.40254609799,None,1309.40254609799,None,1.0,2.0820500439731404,1310.5024335150374,None,1309.40254609799,None,1.0,2.5883831919636577,1311.0372991330223,None,1309.40254609799,None,space,0.1655234229983762,2.609889470273629,None,1309.40254609799,None,1309.40254609799,None,,,,,,,,,1,2022_Apr_04_1537,SAR-soap,2021.1.2,59.61248879324388,
140,Trial # 136,Group1-stimuli/group1-block1/real-group1-b1/Group1_IMG_9677.jpg,1,Group1_IMG_9677.jpg,,,,,0.0,135.0,135.0,135.0,,,,,,,,,,,,,,,,,,,,,,,,,,,,,,,,,,,,,1312.203372085001,None,1312.203372085001,None,1312.203372085001,None,1.0,1.630266163032502,1312.203372085001,None,1312.203372085001,None,1.0,2.120405184105038,1313.3876288629835,None,1312.203372085001,None,1.0,2.59304158994928,1313.8873604990076,None,1312.203372085001,None,space,0.1477342649595812,2.6202819591853768,None,1312.203372085001,None,1312.203372085001,None,,,,,,,,,1,2022_Apr_04_1537,SAR-soap,2021.1.2,59.61248879324388,
141,Trial # 137,Group1-stimuli/group1-block1/fake-group2-b1/encoded_Group2_IMG_5982.jpg,0,encoded_Group2_IMG_5982.jpg,,,,,0.0,136.0,136.0,136.0,,,,,,,,,,,,,,,,,,,,,,,,,,,,,,,,,,,,,1315.003730476019,None,1315.003730476019,None,1315.003730476019,None,1.0,1.2802949460456148,1315.003730476019,None,1315.003730476019,None,1.0,1.7704434270272031,1315.839161370066,None,1315.003730476019,None,1.0,2.1765990291023627,1316.339112207061,None,1315.003730476019,None,space,0.1551569270668551,2.2049557167338207,None,1315.003730476019,None,1315.003730476019,None,,,,,,,,,1,2022_Apr_04_1537,SAR-soap,2021.1.2,59.61248879324388,
142,Trial # 138,Group1-stimuli/group1-block1/fake-group2-b1/encoded_Group2_IMG_1144.jpg,0,encoded_Group2_IMG_1144.jpg,,,,,0.0,137.0,137.0,137.0,,,,,,,,,,,,,,,,,,,,,,,,,,,,,,,,,,,,,1317.3888310600305,None,1317.3888310600305,None,1317.3888310600305,None,5.0,1.8470693889539689,1317.3888310600305,None,1317.3888310600305,None,1.0,6.820489750010893,1318.7896699620178,None,1317.3888310600305,None,4.0,9.927137764985671,1321.406651552068,None,1317.3888310600305,None,space,0.2028513540280982,9.955281750764698,None,1317.3888310600305,None,1317.3888310600305,None,,,,,,,,,1,2022_Apr_04_1537,SAR-soap,2021.1.2,59.61248879324388,
143,Trial # 139,Group1-stimuli/group1-block1/fake-group2-b1/encoded_Group2_IMG_0315.jpg,0,encoded_Group2_IMG_0315.jpg,,,,,0.0,138.0,138.0,138.0,,,,,,,,,,,,,,,,,,,,,,,,,,,,,,,,,,,,,1327.5913973740537,None,1327.5913973740537,None,1327.5913973740537,None,1.0,1.6617297870106995,1327.5913973740537,None,1327.5913973740537,None,1.0,2.384274451993406,1328.8083108880091,None,1327.5913973740537,None,1.0,2.8568727099336684,1329.5423621280352,None,1327.5913973740537,None,space,0.341342523926869,2.8836273167980835,None,1327.5913973740537,None,1327.5913973740537,None,,,,,,,,,1,2022_Apr_04_1537,SAR-soap,2021.1.2,59.61248879324388,
144,Trial # 140,Group1-stimuli/group1-block1/real-group1-b1/Group1_IMG_130.jpg,1,Group1_IMG_130.jpg,,,,,0.0,139.0,139.0,139.0,,,,,,,,,,,,,,,,,,,,,,,,,,,,,,,,,,,,,1330.8607416630257,None,1330.8607416630257,None,1330.8607416630257,None,7.0,2.137554883956909,1330.8607416630257,None,1330.8607416630257,None,5.0,3.493191209970973,1332.5614434389863,None,1330.8607416630257,None,5.0,8.366978880949318,1333.9268201090165,None,1330.8607416630257,None,space,0.1223359670257195,8.401982410112396,None,1330.8607416630257,None,1330.8607416630257,None,,,,,,,,,1,2022_Apr_04_1537,SAR-soap,2021.1.2,59.61248879324388,
145,Trial # 141,Group1-stimuli/group1-block1/real-group1-b1/Group1_IMG_0024.jpg,1,Group1_IMG_0024.jpg,,,,,0.0,140.0,140.0,140.0,,,,,,,,,,,,,,,,,,,,,,,,,,,,,,,,,,,,,1339.428531431011,None,1339.428531431011,None,1339.428531431011,None,7.0,3.767992807086557,1339.428531431011,None,1339.428531431011,None,5.0,6.07348825794179,1341.930696782074,None,1339.428531431011,None,6.0,8.14543381310068,1345.0641702250578,None,1339.428531431011,None,space,1.1300662510329855,7.209412731230259,None,1339.428531431011,None,1339.428531431011,None,,,,,,,,,1,2022_Apr_04_1537,SAR-soap,2021.1.2,59.61248879324388,
146,Trial # 142,Group1-stimuli/group1-block1/fake-group2-b1/encoded_Group2_IMG_5012.jpg,0,encoded_Group2_IMG_5012.jpg,,,,,0.0,141.0,141.0,141.0,,,,,,,,,,,,,,,,,,,,,,,,,,,,,,,,,,,,,1347.83116121497,None,1347.83116121497,None,1347.83116121497,None,3.0,2.7590930729638785,1347.83116121497,None,1347.83116121497,None,2.0,3.81732557201758,1350.1320980960736,None,1347.83116121497,None,3.0,6.055282597895712,1351.1991951350356,None,1347.83116121497,None,space,0.1407717360416427,6.080120388651267,None,1347.83116121497,None,1347.83116121497,None,,,,,,,,,1,2022_Apr_04_1537,SAR-soap,2021.1.2,59.61248879324388,
147,Trial # 143,Group1-stimuli/group1-block1/fake-group2-b1/encoded_Group2_IMG_0209.jpg,0,encoded_Group2_IMG_0209.jpg,,,,,0.0,142.0,142.0,142.0,,,,,,,,,,,,,,,,,,,,,,,,,,,,,,,,,,,,,1354.0827941989992,None,1354.0827941989992,None,1354.0827941989992,None,1.0,1.5140610609669238,1354.0827941989992,None,1354.0827941989992,None,1.0,2.0025881030596797,1355.1495077110594,None,1354.0827941989992,None,1.0,2.4427328719757497,1355.6497055040672,None,1354.0827941989992,None,space,0.1458615170558914,2.4709014978725463,None,1354.0827941989992,None,1354.0827941989992,None,,,,,,,,,1,2022_Apr_04_1537,SAR-soap,2021.1.2,59.61248879324388,
148,Trial # 144,Group1-stimuli/group1-block1/real-group1-b1/Group1_IMG_0373.jpg,1,Group1_IMG_0373.jpg,,,,,0.0,143.0,143.0,143.0,,,,,,,,,,,,,,,,,,,,,,,,,,,,,,,,,,,,,1356.834579795017,None,1356.834579795017,None,1356.834579795017,None,1.0,1.514441056991927,1356.834579795017,None,1356.834579795017,None,1.0,2.003497770987451,1357.9012736070435,None,1356.834579795017,None,1.0,2.9095616090344265,1358.4007265180117,None,1356.834579795017,None,space,0.2329351130174473,2.9361403092043474,None,1356.834579795017,None,1356.834579795017,None,,,,,,,,,1,2022_Apr_04_1537,SAR-soap,2021.1.2,59.61248879324388,
149,Trial # 145,Group1-stimuli/group1-block1/real-group1-b1/Group1_IMG_5899.jpg,1,Group1_IMG_5899.jpg,,,,,0.0,144.0,144.0,144.0,,,,,,,,,,,,,,,,,,,,,,,,,,,,,,,,,,,,,1360.034244013019,None,1360.034244013019,None,1360.034244013019,None,2.0,3.7540577680338174,1360.034244013019,None,1360.034244013019,None,1.0,2.3925450979731977,1360.9532917239703,None,1360.034244013019,None,2.0,3.097483795019798,1361.986297565978,None,1360.034244013019,None,space,0.7037052209489048,3.1313692980911583,None,1360.034244013019,None,1360.034244013019,None,,,,,,,,,1,2022_Apr_04_1537,SAR-soap,2021.1.2,59.61248879324388,
150,Trial # 146,Group1-stimuli/group1-block1/real-group1-b1/Group1_IMG_0162.jpg,1,Group1_IMG_0162.jpg,,,,,0.0,145.0,145.0,145.0,,,,,,,,,,,,,,,,,,,,,,,,,,,,,,,,,,,,,1363.9193992529763,None,1363.9193992529763,None,1363.9193992529763,None,6.0,2.552059547044337,1363.9193992529763,None,1363.9193992529763,None,6.0,5.073986756033264,1366.02141936298,None,1363.9193992529763,None,6.0,6.712982652941719,1367.4872587179998,None,1363.9193992529763,None,space,0.1464706970145926,6.74432855611667,None,1363.9193992529763,None,1363.9193992529763,None,,,,,,,,,1,2022_Apr_04_1537,SAR-soap,2021.1.2,59.61248879324388,
151,Trial # 147,Group1-stimuli/group1-block1/real-group1-b1/Group1_IMG_0543.jpg,1,Group1_IMG_0543.jpg,,,,,0.0,146.0,146.0,146.0,,,,,,,,,,,,,,,,,,,,,,,,,,,,,,,,,,,,,1370.8553231930127,None,1370.8553231930127,None,1370.8553231930127,None,1.0,1.555006368085742,1370.8553231930127,None,1370.8553231930127,None,1.0,2.5440750140696764,1371.956657906063,None,1370.8553231930127,None,1.0,3.151186918956228,1372.9563713970128,None,1370.8553231930127,None,space,0.3066162860486656,3.167122465907596,None,1370.8553231930127,None,1370.8553231930127,None,,,,,,,,,1,2022_Apr_04_1537,SAR-soap,2021.1.2,59.61248879324388,
152,Trial # 148,Group1-stimuli/group1-block1/fake-group2-b1/encoded_Group2_IMG_0355.jpg,0,encoded_Group2_IMG_0355.jpg,,,,,0.0,147.0,147.0,147.0,,,,,,,,,,,,,,,,,,,,,,,,,,,,,,,,,,,,,1374.3894910960223,None,1374.3894910960223,None,1374.3894910960223,None,2.0,1.8876419400330635,1374.3894910960223,None,1374.3894910960223,None,1.0,2.910836754017509,1375.8234035490314,None,1374.3894910960223,None,2.0,3.7493939109845087,1376.856952778995,None,1374.3894910960223,None,space,0.1708366579841822,3.769647646811791,None,1374.3894910960223,None,1374.3894910960223,None,,,,,,,,,1,2022_Apr_04_1537,SAR-soap,2021.1.2,59.61248879324388,
153,Trial # 149,Group1-stimuli/group1-block1/real-group1-b1/Group1_IMG_9765.jpg,1,Group1_IMG_9765.jpg,,,,,0.0,148.0,148.0,148.0,,,,,,,,,,,,,,,,,,,,,,,,,,,,,,,,,,,,,1378.3912111640675,None,1378.3912111640675,None,1378.3912111640675,None,7.0,3.049373062094673,1378.3912111640675,None,1378.3912111640675,None,6.0,6.6549464700510725,1380.2074733279878,None,1378.3912111640675,None,6.0,8.061831043916754,1382.7084410979878,None,1378.3912111640675,None,space,0.0679235300049185,8.091323118191212,None,1378.3912111640675,None,1378.3912111640675,None,,,,,,,,,1,2022_Apr_04_1537,SAR-soap,2021.1.2,59.61248879324388,
154,Trial # 150,Group1-stimuli/group1-block1/fake-group2-b1/encoded_Group2_IMG_1378.jpg,0,encoded_Group2_IMG_1378.jpg,,,,,0.0,149.0,149.0,149.0,,,,,,,,,,,,,,,,,,,,,,,,,,,,,,,,,,,,,1386.5931891030632,None,1386.5931891030632,None,1386.5931891030632,None,7.0,3.813346026930958,1386.5931891030632,None,1386.5931891030632,None,3.0,4.870268322061747,1389.9608450439991,None,1386.5931891030632,None,6.0,7.27577070100233,1391.0290396830533,None,1386.5931891030632,None,space,0.1134983919328078,7.303632924798876,None,1386.5931891030632,None,1386.5931891030632,None,,,,,,,,,1,2022_Apr_04_1537,SAR-soap,2021.1.2,59.61248879324388,
155,Trial # 1,Group1-stimuli/group1-block2/fake-group2-b2/encoded_Group2_IMG_0155.jpg,0,encoded_Group2_IMG_0155.jpg,,,,,,,,,0.0,0.0,0.0,0.0,,,,,,,,,,,,,,,,,,,,,,,,,,,,,,,,,1462.600898239063,None,1462.600898239063,None,1462.600898239063,None,6.0,2.955643006949685,1462.600898239063,None,1462.600898239063,None,3.0,7.912269785068929,1465.1002448640063,None,1462.600898239063,None,7.0,9.152097487007268,1470.0689502679743,None,1462.600898239063,None,space,1.767508574994281,9.172698105918244,None,1462.600898239063,None,1462.600898239063,None,1458.8652240850497,None,1458.8652240850497,None,1458.8652240850497,None,1393.544831398991,None,1,2022_Apr_04_1537,SAR-soap,2021.1.2,59.61248879324388,
156,Trial # 2,Group1-stimuli/group1-block2/real-group1-b2/Group1_IMG_0519.jpg,1,Group1_IMG_0519.jpg,,,,,,,,,0.0,1.0,1.0,1.0,,,,,,,,,,,,,,,,,,,,,,,,,,,,,,,,,1473.5700028570136,None,1473.5700028570136,None,1473.5700028570136,None,5.0,35.52357469301205,1473.5700028570136,None,1473.5700028570136,None,3.0,36.91254293802194,1508.647375063971,None,1473.5700028570136,None,6.0,38.71893304109108,1510.0485961000668,None,1473.5700028570136,None,space,0.902151450049132,38.31365680228919,None,1473.5700028570136,None,1473.5700028570136,None,,,,,,,,,1,2022_Apr_04_1537,SAR-soap,2021.1.2,59.61248879324388,
157,Trial # 3,Group1-stimuli/group1-block2/fake-group2-b2/encoded_Group2_IMG_0135.jpg,0,encoded_Group2_IMG_0135.jpg,,,,,,,,,0.0,2.0,2.0,2.0,,,,,,,,,,,,,,,,,,,,,,,,,,,,,,,,,1512.84861735499,None,1512.84861735499,None,1512.84861735499,None,1.0,1.6479129869258031,1512.84861735499,None,1512.84861735499,None,1.0,2.30483377201017,1514.0489154090174,None,1512.84861735499,None,1.0,2.842427760013379,1514.7162866339786,None,1512.84861735499,None,space,0.1969665010692551,2.872239685151726,None,1512.84861735499,None,1512.84861735499,None,,,,,,,,,1,2022_Apr_04_1537,SAR-soap,2021.1.2,59.61248879324388,
158,Trial # 4,Group1-stimuli/group1-block2/real-group1-b2/Group1_IMG_5310.jpg,1,Group1_IMG_5310.jpg,,,,,,,,,0.0,3.0,3.0,3.0,,,,,,,,,,,,,,,,,,,,,,,,,,,,,,,,,1515.949768475024,None,1515.949768475024,None,1515.949768475024,None,6.0,1.7310961339389903,1515.949768475024,None,1515.949768475024,None,6.0,5.555899775004946,1517.2341910230462,None,1515.949768475024,None,7.0,6.694099311949685,1518.7000661040656,None,1515.949768475024,None,space,0.1236386219970882,6.722951690200716,None,1515.949768475024,None,1515.949768475024,None,,,,,,,,,1,2022_Apr_04_1537,SAR-soap,2021.1.2,59.61248879324388,
159,Trial # 5,Group1-stimuli/group1-block2/real-group1-b2/Group1_IMG_0522.jpg,1,Group1_IMG_0522.jpg,,,,,,,,,0.0,4.0,4.0,4.0,,,,,,,,,,,,,,,,,,,,,,,,,,,,,,,,,1522.8350972370245,None,1522.8350972370245,None,1522.8350972370245,None,7.0,1.601720161968842,1522.8350972370245,None,1522.8350972370245,None,6.0,2.591649236041121,1523.9853412889645,None,1522.8350972370245,None,7.0,3.4961750759975985,1524.9862837860128,None,1522.8350972370245,None,space,0.3039689639117569,3.530087166116573,None,1522.8350972370245,None,1522.8350972370245,None,,,,,,,,,1,2022_Apr_04_1537,SAR-soap,2021.1.2,59.61248879324388,
160,Trial # 6,Group1-stimuli/group1-block2/fake-group2-b2/encoded_Group2_IMG_0484.jpg,0,encoded_Group2_IMG_0484.jpg,,,,,,,,,0.0,5.0,5.0,5.0,,,,,,,,,,,,,,,,,,,,,,,,,,,,,,,,,1526.7197088779649,None,1526.7197088779649,None,1526.7197088779649,None,1.0,1.621828295988962,1526.7197088779649,None,1526.7197088779649,None,1.0,2.078694649040699,1527.887345971074,None,1526.7197088779649,None,1.0,2.751668583019637,1528.3543592030182,None,1526.7197088779649,None,space,0.1854364589089527,2.769416934810579,None,1526.7197088779649,None,1526.7197088779649,None,,,,,,,,,1,2022_Apr_04_1537,SAR-soap,2021.1.2,59.61248879324388,
161,Trial # 7,Group1-stimuli/group1-block2/fake-group2-b2/encoded_Group2_IMG_5948.jpg,0,encoded_Group2_IMG_5948.jpg,,,,,,,,,0.0,6.0,6.0,6.0,,,,,,,,,,,,,,,,,,,,,,,,,,,,,,,,,1529.7033190530492,None,1529.7033190530492,None,1529.7033190530492,None,1.0,1.4294021079549566,1529.7033190530492,None,1529.7033190530492,None,1.0,1.8688342389650645,1530.68753499398,None,1529.7033190530492,None,1.0,2.342808488989249,1531.1377919060178,None,1529.7033190530492,None,space,0.2245847249869257,2.368339286884293,None,1529.7033190530492,None,1529.7033190530492,None,,,,,,,,,1,2022_Apr_04_1537,SAR-soap,2021.1.2,59.61248879324388,
162,Trial # 8,Group1-stimuli/group1-block2/fake-group2-b2/encoded_Group2_IMG_3591.jpg,0,encoded_Group2_IMG_3591.jpg,,,,,,,,,0.0,7.0,7.0,7.0,,,,,,,,,,,,,,,,,,,,,,,,,,,,,,,,,1532.3387210030342,None,1532.3387210030342,None,1532.3387210030342,None,3.0,1.7036240259185431,1532.3387210030342,None,1532.3387210030342,None,3.0,2.793596807983704,1533.5886402480537,None,1532.3387210030342,None,4.0,3.763941577984952,1534.688990292023,None,1532.3387210030342,None,space,0.1819410769967362,3.800253561115824,None,1532.3387210030342,None,1532.3387210030342,None,,,,,,,,,1,2022_Apr_04_1537,SAR-soap,2021.1.2,59.61248879324388,
163,Trial # 9,Group1-stimuli/group1-block2/real-group1-b2/Group1_IMG_9835.jpg,1,Group1_IMG_9835.jpg,,,,,,,,,0.0,8.0,8.0,8.0,,,,,,,,,,,,,,,,,,,,,,,,,,,,,,,,,1536.356619189959,None,1536.356619189959,None,1536.356619189959,None,1.0,1.488366991980001,1536.356619189959,None,1536.356619189959,None,1.0,2.1453913409495726,1537.3908213289687,None,1536.356619189959,None,1.0,2.650782273965888,1538.0571858619803,None,1536.356619189959,None,space,0.3693551389733329,2.6688278218498453,None,1536.356619189959,None,1536.356619189959,None,,,,,,,,,1,2022_Apr_04_1537,SAR-soap,2021.1.2,59.61248879324388,
