,Trial_num,image_path,ground_truth,image_name,demos.thisRepN,demos.thisTrialN,demos.thisN,demos.thisIndex,block_1.thisRepN,block_1.thisTrialN,block_1.thisN,block_1.thisIndex,block_2.thisRepN,block_2.thisTrialN,block_2.thisN,block_2.thisIndex,text_3.started,text_3.stopped,Task.started,Task.stopped,text_10.started,text_10.stopped,key_resp.keys,key_resp.rt,key_resp.started,key_resp.stopped,image_2.started,image_2.stopped,text_5.started,text_5.stopped,image_3.started,image_3.stopped,text_6.started,text_6.stopped,translucency.started,translucency.stopped,see_throughness.started,see_throughness.stopped,glow.started,glow.stopped,key_resp_10.keys,key_resp_10.rt,key_resp_10.started,key_resp_10.stopped,instruction.started,instruction.stopped,text_12.started,text_12.stopped,Trial_number.started,Trial_number.stopped,image.started,image.stopped,Instruction.started,Instruction.stopped,translucency_score.response,translucency_score.rt,translucency_score.started,translucency_score.stopped,Translucency.started,Translucency.stopped,seethroughness_score.response,seethroughness_score.rt,seethroughness_score.started,seethroughness_score.stopped,SeeThroughness.started,SeeThroughness.stopped,glow_score.response,glow_score.rt,glow_score.started,glow_score.stopped,Glow.started,Glow.stopped,to_next.keys,to_next.rt,to_next.started,to_next.stopped,grading_label_left.started,grading_label_left.stopped,grading_label_right.started,grading_label_right.stopped,instruct1.started,instruct1.stopped,instruct2.started,instruct2.stopped,text_4.started,text_4.stopped,text_2.started,text_2.stopped,session,date,expName,psychopyVersion,frameRate,Unnamed: 94
0,,,,,,,,,,,,,,,,,30.441634999937374,None,410.9427112559788,None,420.4623250819277,None,space,21.97752286004834,425.4302000849275,None,,,,,,,,,,,,,,,,,,,,,,,,,,,,,,,,,,,,,,,,,,,,,,,,,,,,,,,,,,,,,,,1,2022_Mar_31_1536,SAR-soap,2021.1.2,60.15914345053484,
1,,,,,,,,,,,,,,,,,,,,,,,,,,,447.9029334930237,None,447.9029334930237,None,451.9046081089182,None,451.9046081089182,None,456.4057122209342,None,456.4057122209342,None,456.4057122209342,None,space,3.5940117680002004,456.4057122209342,None,,,,,,,,,,,,,,,,,,,,,,,,,,,,,,,,,,,,,,,,,,,,,1,2022_Mar_31_1536,SAR-soap,2021.1.2,60.15914345053484,
2,Demo 1,demo/Demo_IMG_0974.jpg,demo,Demo_IMG_0974.jpg,0.0,0.0,0.0,0.0,,,,,,,,,,,,,,,,,,,,,,,,,,,,,,,,,,,,,456.4057122209342,None,460.02450321393553,None,464.0924978419207,None,464.0924978419207,None,464.0924978419207,None,4.0,18.582376466016285,464.0924978419207,None,464.0924978419207,None,3.0,21.99065932095982,482.1969087469624,None,464.0924978419207,None,5.0,25.26236175501253,485.6147719499422,None,464.0924978419207,None,space,2.494352853042073,25.28765622980427,None,464.0924978419207,None,464.0924978419207,None,,,,,,,,,1,2022_Mar_31_1536,SAR-soap,2021.1.2,60.15914345053484,
3,Demo 2,demo/Demo_IMG_1024.jpg,demo,Demo_IMG_1024.jpg,0.0,1.0,1.0,1.0,,,,,,,,,,,,,,,,,,,,,,,,,,,,,,,,,,,,,,,,,491.9334895500215,None,491.9334895500215,None,491.9334895500215,None,1.0,10.888867681031115,491.9334895500215,None,491.9334895500215,None,1.0,14.613764040987007,502.3701113329735,None,491.9334895500215,None,1.0,15.785407842020504,506.10475324094296,None,491.9334895500215,None,space,1.4256938640028238,15.819622408947907,None,491.9334895500215,None,491.9334895500215,None,,,,,,,,,1,2022_Mar_31_1536,SAR-soap,2021.1.2,60.15914345053484,
4,Demo 3,demo/Demo_seed_80003.png,demo,Demo_seed_80003.png,0.0,2.0,2.0,2.0,,,,,,,,,,,,,,,,,,,,,,,,,,,,,,,,,,,,,,,,,509.2553543399554,None,509.2553543399554,None,509.2553543399554,None,3.0,5.577621291973628,509.2553543399554,None,509.2553543399554,None,3.0,7.933044214034453,514.3752721919445,None,509.2553543399554,None,5.0,9.439321132027544,516.7414743249537,None,509.2553543399554,None,space,1.4956435629865157,9.461378452018836,None,509.2553543399554,None,509.2553543399554,None,,,,,,,,,1,2022_Mar_31_1536,SAR-soap,2021.1.2,60.15914345053484,
5,Trial # 1,Group1-stimuli/group1-block1/real-group1-b1/Group1_IMG_0022.jpg,1,Group1_IMG_0022.jpg,,,,,0.0,0.0,0.0,0.0,,,,,,,,,,,,,,,,,,,,,,,,,,,,,,,,,,,,,527.8613088589627,None,527.8613088589627,None,527.8613088589627,None,2.0,18.772865024977364,527.8613088589627,None,527.8613088589627,None,1.0,22.13042398600373,546.1841050949879,None,527.8613088589627,None,1.0,23.26977035100572,549.5515502829803,None,527.8613088589627,None,space,1.2279030539793894,23.30249048897531,None,527.8613088589627,None,527.8613088589627,None,520.2098112599924,None,520.2098112599924,None,520.2098112599924,None,,,1,2022_Mar_31_1536,SAR-soap,2021.1.2,60.15914345053484,
6,Trial # 2,Group1-stimuli/group1-block1/fake-group2-b1/encoded_Group2_IMG_0386.jpg,0,encoded_Group2_IMG_0386.jpg,,,,,0.0,1.0,1.0,1.0,,,,,,,,,,,,,,,,,,,,,,,,,,,,,,,,,,,,,552.4187419200316,None,552.4187419200316,None,552.4187419200316,None,2.0,3.2596450530691072,552.4187419200316,None,552.4187419200316,None,2.0,8.433870446984656,555.2208554180106,None,552.4187419200316,None,3.0,10.838477946002968,560.4048531189328,None,552.4187419200316,None,space,1.823045086930506,9.99464882502798,None,552.4187419200316,None,552.4187419200316,None,,,,,,,,,1,2022_Mar_31_1536,SAR-soap,2021.1.2,60.15914345053484,
7,Trial # 3,Group1-stimuli/group1-block1/real-group1-b1/Group1_IMG_9704.jpg,1,Group1_IMG_9704.jpg,,,,,0.0,2.0,2.0,2.0,,,,,,,,,,,,,,,,,,,,,,,,,,,,,,,,,,,,,564.2556691849604,None,564.2556691849604,None,564.2556691849604,None,1.0,5.1966793009778485,564.2556691849604,None,564.2556691849604,None,1.0,6.619722119998187,569.0080089429393,None,564.2556691849604,None,1.0,9.16025352210272,570.441266285954,None,564.2556691849604,None,space,0.9863206609152256,9.184698201017454,None,564.2556691849604,None,564.2556691849604,None,,,,,,,,,1,2022_Mar_31_1536,SAR-soap,2021.1.2,60.15914345053484,
8,Trial # 4,Group1-stimuli/group1-block1/real-group1-b1/Group1_IMG_0406.jpg,1,Group1_IMG_0406.jpg,,,,,0.0,3.0,3.0,3.0,,,,,,,,,,,,,,,,,,,,,,,,,,,,,,,,,,,,,574.4766408629948,None,574.4766408629948,None,574.4766408629948,None,2.0,6.108182637952268,574.4766408629948,None,574.4766408629948,None,1.0,11.28241015295498,580.1279128729366,None,574.4766408629948,None,3.0,14.38851642597001,585.3133096849779,None,574.4766408629948,None,space,0.7076326960232109,14.410629917983895,None,574.4766408629948,None,574.4766408629948,None,,,,,,,,,1,2022_Mar_31_1536,SAR-soap,2021.1.2,60.15914345053484,
9,Trial # 5,Group1-stimuli/group1-block1/fake-group2-b1/encoded_Group2_IMG_0364.jpg,0,encoded_Group2_IMG_0364.jpg,,,,,0.0,4.0,4.0,4.0,,,,,,,,,,,,,,,,,,,,,,,,,,,,,,,,,,,,,589.647736615967,None,589.647736615967,None,589.647736615967,None,1.0,2.126576644019224,589.647736615967,None,589.647736615967,None,1.0,2.882423912989907,591.3146409619367,None,589.647736615967,None,1.0,3.722387520014309,592.0818364599254,None,589.647736615967,None,space,0.8780694609740749,3.746014859876595,None,589.647736615967,None,589.647736615967,None,,,,,,,,,1,2022_Mar_31_1536,SAR-soap,2021.1.2,60.15914345053484,
10,Trial # 6,Group1-stimuli/group1-block1/fake-group2-b1/encoded_Group2_IMG_0407.jpg,0,encoded_Group2_IMG_0407.jpg,,,,,0.0,5.0,5.0,5.0,,,,,,,,,,,,,,,,,,,,,,,,,,,,,,,,,,,,,594.3152445619926,None,594.3152445619926,None,594.3152445619926,None,1.0,2.0774297669995576,594.3152445619926,None,594.3152445619926,None,1.0,14.320294317090884,595.9332759039244,None,594.3152445619926,None,2.0,17.792885490925983,608.1861805779627,None,594.3152445619926,None,space,0.8915248399134725,17.817433841060847,None,594.3152445619926,None,594.3152445619926,None,,,,,,,,,1,2022_Mar_31_1536,SAR-soap,2021.1.2,60.15914345053484,
11,Trial # 7,Group1-stimuli/group1-block1/real-group1-b1/Group1_IMG_0428.jpg,1,Group1_IMG_0428.jpg,,,,,0.0,6.0,6.0,6.0,,,,,,,,,,,,,,,,,,,,,,,,,,,,,,,,,,,,,613.0538171909284,None,613.0538171909284,None,613.0538171909284,None,3.0,27.233376531978134,613.0538171909284,None,613.0538171909284,None,2.0,28.90649351303,617.0721147749573,None,613.0538171909284,None,4.0,31.880150187993426,641.5139352909755,None,613.0538171909284,None,space,0.5834505950333551,31.90185593778733,None,613.0538171909284,None,613.0538171909284,None,,,,,,,,,1,2022_Mar_31_1536,SAR-soap,2021.1.2,60.15914345053484,
12,Trial # 8,Group1-stimuli/group1-block1/fake-group2-b1/encoded_Group2_IMG_0474.jpg,0,encoded_Group2_IMG_0474.jpg,,,,,0.0,7.0,7.0,7.0,,,,,,,,,,,,,,,,,,,,,,,,,,,,,,,,,,,,,645.5816055359319,None,645.5816055359319,None,645.5816055359319,None,1.0,6.226683109998703,645.5816055359319,None,645.5816055359319,None,1.0,6.949093014001846,651.3505057089496,None,645.5816055359319,None,1.0,7.589009973919019,652.0828003189526,None,645.5816055359319,None,space,0.8768547229701653,7.611514299875125,None,645.5816055359319,None,645.5816055359319,None,,,,,,,,,1,2022_Mar_31_1536,SAR-soap,2021.1.2,60.15914345053484,
13,Trial # 9,Group1-stimuli/group1-block1/fake-group2-b1/encoded_Group2_IMG_1506.jpg,0,encoded_Group2_IMG_1506.jpg,,,,,0.0,8.0,8.0,8.0,,,,,,,,,,,,,,,,,,,,,,,,,,,,,,,,,,,,,654.117759427987,None,654.117759427987,None,654.117759427987,None,4.0,3.643040700000711,654.117759427987,None,654.117759427987,None,4.0,5.232556342030875,657.3019575619837,None,654.117759427987,None,4.0,8.305952993920073,658.9017554799793,None,654.117759427987,None,space,0.6633213699096814,8.33015656284988,None,654.117759427987,None,654.117759427987,None,,,,,,,,,1,2022_Mar_31_1536,SAR-soap,2021.1.2,60.15914345053484,
14,Trial # 10,Group1-stimuli/group1-block1/real-group1-b1/Group1_IMG_9789.jpg,1,Group1_IMG_9789.jpg,,,,,0.0,9.0,9.0,9.0,,,,,,,,,,,,,,,,,,,,,,,,,,,,,,,,,,,,,663.135808990919,None,663.135808990919,None,663.135808990919,None,1.0,1.7955688000656664,663.135808990919,None,663.135808990919,None,1.0,4.151137889013626,664.4709061079193,None,663.135808990919,None,1.0,6.491028579999693,666.8379322940018,None,663.135808990919,None,space,0.9652991489274428,6.515916302916594,None,663.135808990919,None,663.135808990919,None,,,,,,,,,1,2022_Mar_31_1536,SAR-soap,2021.1.2,60.15914345053484,
15,Trial # 11,Group1-stimuli/group1-block1/real-group1-b1/Group1_IMG_9778.jpg,1,Group1_IMG_9778.jpg,,,,,0.0,10.0,10.0,10.0,,,,,,,,,,,,,,,,,,,,,,,,,,,,,,,,,,,,,670.6215768349357,None,670.6215768349357,None,670.6215768349357,None,3.0,2.2612166759790853,670.6215768349357,None,670.6215768349357,None,3.0,4.518397548934445,672.4400401499588,None,670.6215768349357,None,4.0,5.923620926099829,674.7064365829574,None,670.6215768349357,None,space,0.4692961500259116,5.951317164930515,None,670.6215768349357,None,670.6215768349357,None,,,,,,,,,1,2022_Mar_31_1536,SAR-soap,2021.1.2,60.15914345053484,
16,Trial # 12,Group1-stimuli/group1-block1/real-group1-b1/Group1_IMG_9813.jpg,1,Group1_IMG_9813.jpg,,,,,0.0,11.0,11.0,11.0,,,,,,,,,,,,,,,,,,,,,,,,,,,,,,,,,,,,,677.1075201289495,None,677.1075201289495,None,677.1075201289495,None,1.0,1.7604554489953443,677.1075201289495,None,677.1075201289495,None,1.0,6.617667421931401,678.4075242800172,None,677.1075201289495,None,1.0,7.590206332970411,683.2760620679474,None,677.1075201289495,None,space,0.7977391199674457,7.615964780910872,None,677.1075201289495,None,677.1075201289495,None,,,,,,,,,1,2022_Mar_31_1536,SAR-soap,2021.1.2,60.15914345053484,
17,Trial # 13,Group1-stimuli/group1-block1/real-group1-b1/Group1_IMG_0516.jpg,1,Group1_IMG_0516.jpg,,,,,0.0,12.0,12.0,12.0,,,,,,,,,,,,,,,,,,,,,,,,,,,,,,,,,,,,,685.5270510389237,None,685.5270510389237,None,685.5270510389237,None,1.0,2.1960808739531785,685.5270510389237,None,685.5270510389237,None,1.0,2.918592819012701,687.2773426889908,None,685.5270510389237,None,3.0,4.2580822500167415,688.0102856259327,None,685.5270510389237,None,space,0.960134926950559,4.284246809082106,None,685.5270510389237,None,685.5270510389237,None,,,,,,,,,1,2022_Mar_31_1536,SAR-soap,2021.1.2,60.15914345053484,
18,Trial # 14,Group1-stimuli/group1-block1/fake-group2-b1/encoded_Group2_IMG_0038.jpg,0,encoded_Group2_IMG_0038.jpg,,,,,0.0,13.0,13.0,13.0,,,,,,,,,,,,,,,,,,,,,,,,,,,,,,,,,,,,,690.8122683429392,None,690.8122683429392,None,690.8122683429392,None,1.0,1.826234005042352,690.8122683429392,None,690.8122683429392,None,1.0,3.117159235989675,692.1783755009528,None,690.8122683429392,None,2.0,6.289151804987341,693.4788538960274,None,690.8122683429392,None,space,2.2163078249432147,4.947304034954868,None,690.8122683429392,None,690.8122683429392,None,,,,,,,,,1,2022_Mar_31_1536,SAR-soap,2021.1.2,60.15914345053484,
19,Trial # 15,Group1-stimuli/group1-block1/real-group1-b1/Group1_IMG_5984.jpg,1,Group1_IMG_5984.jpg,,,,,0.0,14.0,14.0,14.0,,,,,,,,,,,,,,,,,,,,,,,,,,,,,,,,,,,,,697.9964604700217,None,697.9964604700217,None,697.9964604700217,None,1.0,1.6956970050232485,697.9964604700217,None,697.9964604700217,None,1.0,2.5187027050415054,699.2483867800329,None,697.9964604700217,None,1.0,3.1570004479726776,700.081634599017,None,697.9964604700217,None,space,0.6381261890055612,3.183825743966736,None,697.9964604700217,None,697.9964604700217,None,,,,,,,,,1,2022_Mar_31_1536,SAR-soap,2021.1.2,60.15914345053484,
20,Trial # 16,Group1-stimuli/group1-block1/real-group1-b1/Group1_IMG_0383.jpg,1,Group1_IMG_0383.jpg,,,,,0.0,15.0,15.0,15.0,,,,,,,,,,,,,,,,,,,,,,,,,,,,,,,,,,,,,701.8816233789548,None,701.8816233789548,None,701.8816233789548,None,2.0,2.908289187005721,701.8816233789548,None,701.8816233789548,None,2.0,6.065302392933518,704.3337211490143,None,701.8816233789548,None,4.0,9.204318115022032,706.2992655059788,None,701.8816233789548,None,space,2.2436508800601587,7.526600822922774,None,701.8816233789548,None,701.8816233789548,None,,,,,,,,,1,2022_Mar_31_1536,SAR-soap,2021.1.2,60.15914345053484,
21,Trial # 17,Group1-stimuli/group1-block1/fake-group2-b1/encoded_Group2_IMG_0456.jpg,0,encoded_Group2_IMG_0456.jpg,,,,,0.0,16.0,16.0,16.0,,,,,,,,,,,,,,,,,,,,,,,,,,,,,,,,,,,,,711.7017133369809,None,711.7017133369809,None,711.7017133369809,None,3.0,10.046823021024466,711.7017133369809,None,711.7017133369809,None,2.0,8.818858445971273,713.3678070189198,None,711.7017133369809,None,1.0,12.357170294970274,720.0712020669598,None,711.7017133369809,None,space,1.8439389009727165,12.38244815694634,None,711.7017133369809,None,711.7017133369809,None,,,,,,,,,1,2022_Mar_31_1536,SAR-soap,2021.1.2,60.15914345053484,
22,Trial # 18,Group1-stimuli/group1-block1/fake-group2-b1/encoded_Group2_IMG_8390.jpg,0,encoded_Group2_IMG_8390.jpg,,,,,0.0,17.0,17.0,17.0,,,,,,,,,,,,,,,,,,,,,,,,,,,,,,,,,,,,,725.9725721050054,None,725.9725721050054,None,725.9725721050054,None,2.0,4.717494387063198,725.9725721050054,None,725.9725721050054,None,1.0,7.591192808933556,730.241472691996,None,725.9725721050054,None,3.0,9.696818136959337,733.1244642579695,None,725.9725721050054,None,space,0.8473027769941837,9.728188721928746,None,725.9725721050054,None,725.9725721050054,None,,,,,,,,,1,2022_Mar_31_1536,SAR-soap,2021.1.2,60.15914345053484,
23,Trial # 19,Group1-stimuli/group1-block1/real-group1-b1/Group1_IMG_0011.jpg,1,Group1_IMG_0011.jpg,,,,,0.0,18.0,18.0,18.0,,,,,,,,,,,,,,,,,,,,,,,,,,,,,,,,,,,,,736.5927596220281,None,736.5927596220281,None,736.5927596220281,None,3.0,5.210478881024756,736.5927596220281,None,736.5927596220281,None,3.0,6.565391641925089,741.3443350709276,None,736.5927596220281,None,4.0,8.973614810965955,742.7112934510224,None,736.5927596220281,None,space,0.944450069917366,8.995413921889849,None,736.5927596220281,None,736.5927596220281,None,,,,,,,,,1,2022_Mar_31_1536,SAR-soap,2021.1.2,60.15914345053484,
24,Trial # 20,Group1-stimuli/group1-block1/fake-group2-b1/encoded_Group2_IMG_0328.jpg,0,encoded_Group2_IMG_0328.jpg,,,,,0.0,19.0,19.0,19.0,,,,,,,,,,,,,,,,,,,,,,,,,,,,,,,,,,,,,746.6117568719201,None,746.6117568719201,None,746.6117568719201,None,1.0,4.022268806933425,746.6117568719201,None,746.6117568719201,None,1.0,4.545105958008207,750.1804786759894,None,746.6117568719201,None,1.0,6.484128635027446,750.7132304619299,None,746.6117568719201,None,space,0.8089085589163005,6.503706207964569,None,746.6117568719201,None,746.6117568719201,None,,,,,,,,,1,2022_Mar_31_1536,SAR-soap,2021.1.2,60.15914345053484,
25,Trial # 21,Group1-stimuli/group1-block1/fake-group2-b1/encoded_Group2_IMG_0163.jpg,0,encoded_Group2_IMG_0163.jpg,,,,,0.0,20.0,20.0,20.0,,,,,,,,,,,,,,,,,,,,,,,,,,,,,,,,,,,,,753.9643203179585,None,753.9643203179585,None,753.9643203179585,None,5.0,5.4650636170990765,753.9643203179585,None,753.9643203179585,None,6.0,6.122805112972856,758.9829525490059,None,753.9643203179585,None,5.0,13.895509494002908,759.649487972958,None,753.9643203179585,None,space,1.0788401429308578,13.923284255899487,None,753.9643203179585,None,753.9643203179585,None,,,,,,,,,1,2022_Mar_31_1536,SAR-soap,2021.1.2,60.15914345053484,
26,Trial # 22,Group1-stimuli/group1-block1/real-group1-b1/Group1_IMG_9862.jpg,1,Group1_IMG_9862.jpg,,,,,0.0,21.0,21.0,21.0,,,,,,,,,,,,,,,,,,,,,,,,,,,,,,,,,,,,,769.0181706229923,None,769.0181706229923,None,769.0181706229923,None,1.0,3.1634618199896067,769.0181706229923,None,769.0181706229923,None,1.0,3.918587391031906,771.7204157899832,None,769.0181706229923,None,1.0,5.256907437928021,772.4863881029887,None,769.0181706229923,None,space,0.9088762720348312,5.283427474903874,None,769.0181706229923,None,769.0181706229923,None,,,,,,,,,1,2022_Mar_31_1536,SAR-soap,2021.1.2,60.15914345053484,
27,Trial # 23,Group1-stimuli/group1-block1/fake-group2-b1/encoded_Group2_IMG_0296.jpg,0,encoded_Group2_IMG_0296.jpg,,,,,0.0,22.0,22.0,22.0,,,,,,,,,,,,,,,,,,,,,,,,,,,,,,,,,,,,,775.2712513540173,None,775.2712513540173,None,775.2712513540173,None,4.0,3.756472901091911,775.2712513540173,None,775.2712513540173,None,5.0,4.896647265995853,778.0217190049589,None,775.2712513540173,None,6.0,6.568098288029432,779.7224469069624,None,775.2712513540173,None,space,1.0838163540465755,6.59016302600503,None,775.2712513540173,None,775.2712513540173,None,,,,,,,,,1,2022_Mar_31_1536,SAR-soap,2021.1.2,60.15914345053484,
28,Trial # 24,Group1-stimuli/group1-block1/fake-group2-b1/encoded_Group2_IMG_0503.jpg,0,encoded_Group2_IMG_0503.jpg,,,,,0.0,23.0,23.0,23.0,,,,,,,,,,,,,,,,,,,,,,,,,,,,,,,,,,,,,782.973275664961,None,782.973275664961,None,782.973275664961,None,5.0,4.714816763997078,782.973275664961,None,782.973275664961,None,6.0,11.371839600033129,787.2423982960172,None,782.973275664961,None,6.0,13.112044185050763,788.2754484330071,None,782.973275664961,None,space,0.6206045639701188,13.14029976783786,None,782.973275664961,None,782.973275664961,None,,,,,,,,,1,2022_Mar_31_1536,SAR-soap,2021.1.2,60.15914345053484,
29,Trial # 25,Group1-stimuli/group1-block1/fake-group2-b1/encoded_Group2_IMG_9804.jpg,0,encoded_Group2_IMG_9804.jpg,,,,,0.0,24.0,24.0,24.0,,,,,,,,,,,,,,,,,,,,,,,,,,,,,,,,,,,,,796.794632797013,None,796.794632797013,None,796.794632797013,None,1.0,2.0927242130273958,796.794632797013,None,796.794632797013,None,1.0,2.615554049029015,798.4276358099887,None,796.794632797013,None,1.0,3.58864229102619,798.9607376259519,None,796.794632797013,None,space,0.4637274750275537,3.6123699909076095,None,796.794632797013,None,796.794632797013,None,,,,,,,,,1,2022_Mar_31_1536,SAR-soap,2021.1.2,60.15914345053484,
30,Trial # 26,Group1-stimuli/group1-block1/real-group1-b1/Group1_IMG_0391.jpg,1,Group1_IMG_0391.jpg,,,,,0.0,25.0,25.0,25.0,,,,,,,,,,,,,,,,,,,,,,,,,,,,,,,,,,,,,800.8961514750263,None,800.8961514750263,None,800.8961514750263,None,3.0,5.293132180930115,800.8961514750263,None,800.8961514750263,None,2.0,5.9813242020318285,805.7304610989522,None,800.8961514750263,None,1.0,8.054217304917984,806.4310032789363,None,800.8961514750263,None,space,2.463994884048589,8.075863435980864,None,800.8961514750263,None,800.8961514750263,None,,,,,,,,,1,2022_Mar_31_1536,SAR-soap,2021.1.2,60.15914345053484,
31,Trial # 27,Group1-stimuli/group1-block1/fake-group2-b1/encoded_Group2_IMG_3584.jpg,0,encoded_Group2_IMG_3584.jpg,,,,,0.0,26.0,26.0,26.0,,,,,,,,,,,,,,,,,,,,,,,,,,,,,,,,,,,,,811.4655413809232,None,811.4655413809232,None,811.4655413809232,None,3.0,19.85462006507441,811.4655413809232,None,811.4655413809232,None,2.0,21.79481509700417,830.8728559749434,None,811.4655413809232,None,4.0,23.03308617998846,832.8212406849489,None,811.4655413809232,None,space,1.898268077988177,23.064119738992304,None,811.4655413809232,None,811.4655413809232,None,,,,,,,,,1,2022_Mar_31_1536,SAR-soap,2021.1.2,60.15914345053484,
32,Trial # 28,Group1-stimuli/group1-block1/fake-group2-b1/encoded_Group2_IMG_0434.jpg,0,encoded_Group2_IMG_0434.jpg,,,,,0.0,27.0,27.0,27.0,,,,,,,,,,,,,,,,,,,,,,,,,,,,,,,,,,,,,836.4568017539568,None,836.4568017539568,None,836.4568017539568,None,4.0,49.39125110197347,836.4568017539568,None,836.4568017539568,None,5.0,52.33095912996214,885.3881652279524,None,836.4568017539568,None,5.0,54.2366064459784,888.338794677984,None,836.4568017539568,None,space,0.9282514730002732,54.262482817983255,None,836.4568017539568,None,836.4568017539568,None,,,,,,,,,1,2022_Mar_31_1536,SAR-soap,2021.1.2,60.15914345053484,
33,Trial # 29,Group1-stimuli/group1-block1/fake-group2-b1/encoded_Group2_IMG_9575.jpg,0,encoded_Group2_IMG_9575.jpg,,,,,0.0,28.0,28.0,28.0,,,,,,,,,,,,,,,,,,,,,,,,,,,,,,,,,,,,,891.689537980943,None,891.689537980943,None,891.689537980943,None,1.0,3.3293992719845846,891.689537980943,None,891.689537980943,None,1.0,5.2025741030229256,894.5579244119581,None,891.689537980943,None,2.0,7.975438965018839,896.4424246789422,None,891.689537980943,None,space,0.5191388990497217,8.002554705948569,None,891.689537980943,None,891.689537980943,None,,,,,,,,,1,2022_Mar_31_1536,SAR-soap,2021.1.2,60.15914345053484,
34,Trial # 30,Group1-stimuli/group1-block1/fake-group2-b1/encoded_Group2_IMG_1025.jpg,0,encoded_Group2_IMG_1025.jpg,,,,,0.0,29.0,29.0,29.0,,,,,,,,,,,,,,,,,,,,,,,,,,,,,,,,,,,,,900.226385841961,None,900.226385841961,None,900.226385841961,None,1.0,3.0465393440099438,900.226385841961,None,900.226385841961,None,1.0,3.869844148983248,902.8263189229184,None,900.226385841961,None,1.0,5.842613112996332,903.6603888110258,None,900.226385841961,None,space,0.8054172110278159,5.870337703032419,None,900.226385841961,None,900.226385841961,None,,,,,,,,,1,2022_Mar_31_1536,SAR-soap,2021.1.2,60.15914345053484,
35,Trial # 31,Group1-stimuli/group1-block1/real-group1-b1/Group1_IMG_0502.jpg,1,Group1_IMG_0502.jpg,,,,,0.0,30.0,30.0,30.0,,,,,,,,,,,,,,,,,,,,,,,,,,,,,,,,,,,,,906.9609626820312,None,906.9609626820312,None,906.9609626820312,None,4.0,1.7259173340862617,906.9609626820312,None,906.9609626820312,None,4.0,4.099895437946543,908.2290341099724,None,906.9609626820312,None,5.0,5.673846771009266,910.6126708019292,None,906.9609626820312,None,space,0.0286026450339704,5.696823873906396,None,906.9609626820312,None,906.9609626820312,None,,,,,,,,,1,2022_Mar_31_1536,SAR-soap,2021.1.2,60.15914345053484,
36,Trial # 32,Group1-stimuli/group1-block1/real-group1-b1/Group1_IMG_0182.jpg,1,Group1_IMG_0182.jpg,,,,,0.0,31.0,31.0,31.0,,,,,,,,,,,,,,,,,,,,,,,,,,,,,,,,,,,,,912.7131632689852,None,912.7131632689852,None,912.7131632689852,None,4.0,3.8268467199523,912.7131632689852,None,912.7131632689852,None,3.0,4.716332092997618,916.081173285027,None,912.7131632689852,None,3.0,8.62290335597936,916.9810387799516,None,912.7131632689852,None,space,0.0863102489383891,8.646992460009642,None,912.7131632689852,None,912.7131632689852,None,,,,,,,,,1,2022_Mar_31_1536,SAR-soap,2021.1.2,60.15914345053484,
37,Trial # 33,Group1-stimuli/group1-block1/fake-group2-b1/encoded_Group2_IMG_2728.jpg,0,encoded_Group2_IMG_2728.jpg,,,,,0.0,32.0,32.0,32.0,,,,,,,,,,,,,,,,,,,,,,,,,,,,,,,,,,,,,921.4986519620288,None,921.4986519620288,None,921.4986519620288,None,2.0,3.575781184015796,921.4986519620288,None,921.4986519620288,None,1.0,7.131767667015083,924.617575685028,None,921.4986519620288,None,1.0,10.539195548044518,928.1846098059324,None,921.4986519620288,None,space,0.1434330210322514,10.562241903040558,None,921.4986519620288,None,921.4986519620288,None,,,,,,,,,1,2022_Mar_31_1536,SAR-soap,2021.1.2,60.15914345053484,
38,Trial # 34,Group1-stimuli/group1-block1/fake-group2-b1/encoded_Group2_IMG_4867.jpg,0,encoded_Group2_IMG_4867.jpg,,,,,0.0,33.0,33.0,33.0,,,,,,,,,,,,,,,,,,,,,,,,,,,,,,,,,,,,,932.2685896420152,None,932.2685896420152,None,932.2685896420152,None,3.0,31.96676636300981,932.2685896420152,None,932.2685896420152,None,2.0,34.3575860169949,959.3124092479702,None,932.2685896420152,None,4.0,35.630355300032534,966.1794809439452,None,932.2685896420152,None,space,1.0664455060614273,35.65250262094196,None,932.2685896420152,None,932.2685896420152,None,,,,,,,,,1,2022_Mar_31_1536,SAR-soap,2021.1.2,60.15914345053484,
39,Trial # 35,Group1-stimuli/group1-block1/real-group1-b1/Group1_IMG_9894.jpg,1,Group1_IMG_9894.jpg,,,,,0.0,34.0,34.0,34.0,,,,,,,,,,,,,,,,,,,,,,,,,,,,,,,,,,,,,969.0139987790026,None,969.0139987790026,None,969.0139987790026,None,1.0,2.244817115017213,969.0139987790026,None,969.0139987790026,None,1.0,3.250994001980871,970.7985206919255,None,969.0139987790026,None,1.0,3.9231731010368094,971.8151388110128,None,969.0139987790026,None,space,0.7115248169284314,3.946991823031567,None,969.0139987790026,None,969.0139987790026,None,,,,,,,,,1,2022_Mar_31_1536,SAR-soap,2021.1.2,60.15914345053484,
40,Trial # 36,Group1-stimuli/group1-block1/fake-group2-b1/encoded_Group2_IMG_0444.jpg,0,encoded_Group2_IMG_0444.jpg,,,,,0.0,35.0,35.0,35.0,,,,,,,,,,,,,,,,,,,,,,,,,,,,,,,,,,,,,973.698997430969,None,973.698997430969,None,973.698997430969,None,3.0,8.715840719058178,973.698997430969,None,973.698997430969,None,1.0,3.7196494800737128,975.3837746080244,None,973.698997430969,None,1.0,5.125692554982379,976.9830441590166,None,973.698997430969,None,space,5.609947812976316,5.152508358936757,None,973.698997430969,None,973.698997430969,None,,,,,,,,,1,2022_Mar_31_1536,SAR-soap,2021.1.2,60.15914345053484,
41,Trial # 37,Group1-stimuli/group1-block1/real-group1-b1/Group1_IMG_2656.jpg,1,Group1_IMG_2656.jpg,,,,,0.0,36.0,36.0,36.0,,,,,,,,,,,,,,,,,,,,,,,,,,,,,,,,,,,,,984.5358694599709,None,984.5358694599709,None,984.5358694599709,None,1.0,2.3464547370094806,984.5358694599709,None,984.5358694599709,None,1.0,3.8355653811013326,986.4373922209488,None,984.5358694599709,None,1.0,5.60990766400937,987.9359162219334,None,984.5358694599709,None,space,0.8325998239452019,5.63591060298495,None,984.5358694599709,None,984.5358694599709,None,,,,,,,,,1,2022_Mar_31_1536,SAR-soap,2021.1.2,60.15914345053484,
42,Trial # 38,Group1-stimuli/group1-block1/real-group1-b1/Group1_IMG_0207.jpg,1,Group1_IMG_0207.jpg,,,,,0.0,37.0,37.0,37.0,,,,,,,,,,,,,,,,,,,,,,,,,,,,,,,,,,,,,991.0536412829532,None,991.0536412829532,None,991.0536412829532,None,1.0,2.8933372609317303,991.0536412829532,None,991.0536412829532,None,1.0,4.450352475978434,993.4877966060304,None,991.0536412829532,None,2.0,5.289198377053253,995.0557469129562,None,991.0536412829532,None,space,0.1437933669658377,5.312888772110455,None,991.0536412829532,None,991.0536412829532,None,,,,,,,,,1,2022_Mar_31_1536,SAR-soap,2021.1.2,60.15914345053484,
43,Trial # 39,Group1-stimuli/group1-block1/real-group1-b1/Group1_IMG_9638.jpg,1,Group1_IMG_9638.jpg,,,,,0.0,38.0,38.0,38.0,,,,,,,,,,,,,,,,,,,,,,,,,,,,,,,,,,,,,996.5722219200106,None,996.5722219200106,None,996.5722219200106,None,4.0,2.159141103969887,996.5722219200106,None,996.5722219200106,None,3.0,4.416470449999906,998.2733329320326,None,996.5722219200106,None,5.0,7.521520979003981,1000.541404352989,None,996.5722219200106,None,space,0.6795657109469175,7.545249761897139,None,996.5722219200106,None,996.5722219200106,None,,,,,,,,,1,2022_Mar_31_1536,SAR-soap,2021.1.2,60.15914345053484,
44,Trial # 40,Group1-stimuli/group1-block1/real-group1-b1/Group1_IMG_0148.jpg,1,Group1_IMG_0148.jpg,,,,,0.0,39.0,39.0,39.0,,,,,,,,,,,,,,,,,,,,,,,,,,,,,,,,,,,,,1004.8418723929208,None,1004.8418723929208,None,1004.8418723929208,None,6.0,10.547417085967028,1004.8418723929208,None,1004.8418723929208,None,6.0,8.450725862989202,1007.3930965029869,None,1004.8418723929208,None,5.0,13.024741929024458,1012.8448514420306,None,1004.8418723929208,None,space,0.1088591070147231,13.050969082047231,None,1004.8418723929208,None,1004.8418723929208,None,,,,,,,,,1,2022_Mar_31_1536,SAR-soap,2021.1.2,60.15914345053484,
45,Trial # 41,Group1-stimuli/group1-block1/real-group1-b1/Group1_IMG_2891.jpg,1,Group1_IMG_2891.jpg,,,,,0.0,40.0,40.0,40.0,,,,,,,,,,,,,,,,,,,,,,,,,,,,,,,,,,,,,1018.0791640619282,None,1018.0791640619282,None,1018.0791640619282,None,1.0,2.0100857780780643,1018.0791640619282,None,1018.0791640619282,None,1.0,2.5660251789959148,1019.6296515319264,None,1018.0791640619282,None,1.0,3.072012771037407,1020.1966844639974,None,1018.0791640619282,None,space,0.1926515570376068,3.094820523983799,None,1018.0791640619282,None,1018.0791640619282,None,,,,,,,,,1,2022_Mar_31_1536,SAR-soap,2021.1.2,60.15914345053484,
46,Trial # 42,Group1-stimuli/group1-block1/real-group1-b1/Group1_IMG_0157.jpg,1,Group1_IMG_0157.jpg,,,,,0.0,41.0,41.0,41.0,,,,,,,,,,,,,,,,,,,,,,,,,,,,,,,,,,,,,1021.3970796460052,None,1021.3970796460052,None,1021.3970796460052,None,3.0,2.276577736949548,1021.3970796460052,None,1021.3970796460052,None,3.0,4.167680039070547,1023.2140006809497,None,1021.3970796460052,None,4.0,5.273759662988596,1025.1157803479582,None,1021.3970796460052,None,space,0.2250311720417812,5.298988300957717,None,1021.3970796460052,None,1021.3970796460052,None,,,,,,,,,1,2022_Mar_31_1536,SAR-soap,2021.1.2,60.15914345053484,
47,Trial # 43,Group1-stimuli/group1-block1/real-group1-b1/Group1_IMG_9833.jpg,1,Group1_IMG_9833.jpg,,,,,0.0,42.0,42.0,42.0,,,,,,,,,,,,,,,,,,,,,,,,,,,,,,,,,,,,,1026.9490554400254,None,1026.9490554400254,None,1026.9490554400254,None,1.0,1.5104937249561772,1026.9490554400254,None,1026.9490554400254,None,1.0,2.233771736966446,1027.9985480270116,None,1026.9490554400254,None,1.0,2.8049515179591253,1028.731760510942,None,1026.9490554400254,None,space,0.3493297720560804,2.830866248928942,None,1026.9490554400254,None,1026.9490554400254,None,,,,,,,,,1,2022_Mar_31_1536,SAR-soap,2021.1.2,60.15914345053484,
48,Trial # 44,Group1-stimuli/group1-block1/fake-group2-b1/encoded_Group2_IMG_2230.jpg,0,encoded_Group2_IMG_2230.jpg,,,,,0.0,43.0,43.0,43.0,,,,,,,,,,,,,,,,,,,,,,,,,,,,,,,,,,,,,1030.1496750569204,None,1030.1496750569204,None,1030.1496750569204,None,3.0,1.9808042830554768,1030.1496750569204,None,1030.1496750569204,None,4.0,2.9032777739921585,1031.6840196349658,None,1030.1496750569204,None,5.0,4.90965986601077,1032.6176587799564,None,1030.1496750569204,None,space,0.8218554559862241,4.371607500943355,None,1030.1496750569204,None,1030.1496750569204,None,,,,,,,,,1,2022_Mar_31_1536,SAR-soap,2021.1.2,60.15914345053484,
49,Trial # 45,Group1-stimuli/group1-block1/real-group1-b1/Group1_IMG_9966.jpg,1,Group1_IMG_9966.jpg,,,,,0.0,44.0,44.0,44.0,,,,,,,,,,,,,,,,,,,,,,,,,,,,,,,,,,,,,1035.385322259972,None,1035.385322259972,None,1035.385322259972,None,1.0,2.26572863094043,1035.385322259972,None,1035.385322259972,None,2.0,4.871736752917059,1037.201310919947,None,1035.385322259972,None,4.0,6.443695415975526,1039.8196953430306,None,1035.385322259972,None,space,1.2348679539281875,5.774179083993658,None,1035.385322259972,None,1035.385322259972,None,,,,,,,,,1,2022_Mar_31_1536,SAR-soap,2021.1.2,60.15914345053484,
50,Trial # 46,Group1-stimuli/group1-block1/real-group1-b1/Group1_IMG_0239.jpg,1,Group1_IMG_0239.jpg,,,,,0.0,45.0,45.0,45.0,,,,,,,,,,,,,,,,,,,,,,,,,,,,,,,,,,,,,1042.4531418589177,None,1042.4531418589177,None,1042.4531418589177,None,1.0,1.5116538408910856,1042.4531418589177,None,1042.4531418589177,None,1.0,2.100832773023285,1043.5033629159443,None,1042.4531418589177,None,1.0,2.539877266041003,1044.103822004981,None,1042.4531418589177,None,space,0.1833741189911961,2.565784541890025,None,1042.4531418589177,None,1042.4531418589177,None,,,,,,,,,1,2022_Mar_31_1536,SAR-soap,2021.1.2,60.15914345053484,
51,Trial # 47,Group1-stimuli/group1-block1/fake-group2-b1/encoded_Group2_IMG_0536.jpg,0,encoded_Group2_IMG_0536.jpg,,,,,0.0,46.0,46.0,46.0,,,,,,,,,,,,,,,,,,,,,,,,,,,,,,,,,,,,,1045.220622770954,None,1045.220622770954,None,1045.220622770954,None,1.0,1.6648952539544553,1045.220622770954,None,1045.220622770954,None,1.0,2.2539909610059112,1046.4379642659333,None,1045.220622770954,None,1.0,3.259646411985159,1047.0380142929498,None,1045.220622770954,None,space,0.2429950999794528,3.2878660107962787,None,1045.220622770954,None,1045.220622770954,None,,,,,,,,,1,2022_Mar_31_1536,SAR-soap,2021.1.2,60.15914345053484,
52,Trial # 48,Group1-stimuli/group1-block1/fake-group2-b1/encoded_Group2_IMG_0521.jpg,0,encoded_Group2_IMG_0521.jpg,,,,,0.0,47.0,47.0,47.0,,,,,,,,,,,,,,,,,,,,,,,,,,,,,,,,,,,,,1048.7879895570222,None,1048.7879895570222,None,1048.7879895570222,None,3.0,1.981651540962048,1048.7879895570222,None,1048.7879895570222,None,2.0,4.438573039951734,1050.3224240529817,None,1048.7879895570222,None,4.0,5.57764125301037,1052.789075348992,None,1048.7879895570222,None,space,0.2863830879796296,5.605656301951967,None,1048.7879895570222,None,1048.7879895570222,None,,,,,,,,,1,2022_Mar_31_1536,SAR-soap,2021.1.2,60.15914345053484,
53,Trial # 49,Group1-stimuli/group1-block1/fake-group2-b1/encoded_Group2_IMG_9924.jpg,0,encoded_Group2_IMG_9924.jpg,,,,,0.0,48.0,48.0,48.0,,,,,,,,,,,,,,,,,,,,,,,,,,,,,,,,,,,,,1054.7081149480073,None,1054.7081149480073,None,1054.7081149480073,None,1.0,1.4140817759325728,1054.7081149480073,None,1054.7081149480073,None,1.0,2.7691128270234917,1055.674301158986,None,1054.7081149480073,None,1.0,3.4409368248889223,1057.041797474027,None,1054.7081149480073,None,space,0.18914193904493,3.468712226953357,None,1054.7081149480073,None,1054.7081149480073,None,,,,,,,,,1,2022_Mar_31_1536,SAR-soap,2021.1.2,60.15914345053484,
54,Trial # 50,Group1-stimuli/group1-block1/real-group1-b1/Group1_IMG_9730.jpg,1,Group1_IMG_9730.jpg,,,,,0.0,49.0,49.0,49.0,,,,,,,,,,,,,,,,,,,,,,,,,,,,,,,,,,,,,1058.4078250289897,None,1058.4078250289897,None,1058.4078250289897,None,4.0,2.0944043199997395,1058.4078250289897,None,1058.4078250289897,None,5.0,3.516168275033124,1060.042435394018,None,1058.4078250289897,None,5.0,5.589473236002959,1060.9430210510036,None,1058.4078250289897,None,space,0.4902663559187203,5.613694159896113,None,1058.4078250289897,None,1058.4078250289897,None,,,,,,,,,1,2022_Mar_31_1536,SAR-soap,2021.1.2,60.15914345053484,
55,Trial # 51,Group1-stimuli/group1-block1/real-group1-b1/Group1_IMG_0053.jpg,1,Group1_IMG_0053.jpg,,,,,0.0,50.0,50.0,50.0,,,,,,,,,,,,,,,,,,,,,,,,,,,,,,,,,,,,,1064.5443014559569,None,1064.5443014559569,None,1064.5443014559569,None,1.0,1.8347390590934085,1064.5443014559569,None,1064.5443014559569,None,1.0,2.740132514038123,1065.9283264219994,None,1064.5443014559569,None,1.0,3.3810549119953066,1066.8439934729831,None,1064.5443014559569,None,space,0.1717494229087606,3.411032383912243,None,1064.5443014559569,None,1064.5443014559569,None,,,,,,,,,1,2022_Mar_31_1536,SAR-soap,2021.1.2,60.15914345053484,
56,Trial # 52,Group1-stimuli/group1-block1/real-group1-b1/Group1_IMG_9698.jpg,1,Group1_IMG_9698.jpg,,,,,0.0,51.0,51.0,51.0,,,,,,,,,,,,,,,,,,,,,,,,,,,,,,,,,,,,,1068.177992976969,None,1068.177992976969,None,1068.177992976969,None,1.0,1.4013235400198027,1068.177992976969,None,1068.177992976969,None,1.0,1.990898582967929,1069.1283464829903,None,1068.177992976969,None,1.0,2.696740524028428,1069.7292716929223,None,1068.177992976969,None,space,0.2036229280056432,2.729637894895859,None,1068.177992976969,None,1068.177992976969,None,,,,,,,,,1,2022_Mar_31_1536,SAR-soap,2021.1.2,60.15914345053484,
57,Trial # 53,Group1-stimuli/group1-block1/fake-group2-b1/encoded_Group2_IMG_0553.jpg,0,encoded_Group2_IMG_0553.jpg,,,,,0.0,52.0,52.0,52.0,,,,,,,,,,,,,,,,,,,,,,,,,,,,,,,,,,,,,1071.1462682859274,None,1071.1462682859274,None,1071.1462682859274,None,1.0,1.8645021760603413,1071.1462682859274,None,1071.1462682859274,None,1.0,2.48651472304482,1072.5622211060254,None,1071.1462682859274,None,1.0,3.1582230690401047,1073.1956647909246,None,1071.1462682859274,None,space,0.4347358800005168,3.188335581100546,None,1071.1462682859274,None,1071.1462682859274,None,,,,,,,,,1,2022_Mar_31_1536,SAR-soap,2021.1.2,60.15914345053484,
58,Trial # 54,Group1-stimuli/group1-block1/fake-group2-b1/encoded_Group2_IMG_9758.jpg,0,encoded_Group2_IMG_9758.jpg,,,,,0.0,53.0,53.0,53.0,,,,,,,,,,,,,,,,,,,,,,,,,,,,,,,,,,,,,1074.7809568640075,None,1074.7809568640075,None,1074.7809568640075,None,3.0,1.7975306540029123,1074.7809568640075,None,1074.7809568640075,None,4.0,3.370525914011523,1076.1300703770248,None,1074.7809568640075,None,4.0,4.609145452966914,1077.21384425601,None,1074.7809568640075,None,space,0.1656603269511833,4.638252562959679,None,1074.7809568640075,None,1074.7809568640075,None,,,,,,,,,1,2022_Mar_31_1536,SAR-soap,2021.1.2,60.15914345053484,
59,Trial # 55,Group1-stimuli/group1-block1/fake-group2-b1/encoded_Group2_IMG_0339.jpg,0,encoded_Group2_IMG_0339.jpg,,,,,0.0,54.0,54.0,54.0,,,,,,,,,,,,,,,,,,,,,,,,,,,,,,,,,,,,,1079.5980457420228,None,1079.5980457420228,None,1079.5980457420228,None,1.0,1.882010748027824,1079.5980457420228,None,1079.5980457420228,None,1.0,2.5370541400043294,1081.032006419031,None,1079.5980457420228,None,1.0,3.508682328043505,1081.698318428011,None,1079.5980457420228,None,space,0.4790623129811138,3.538422311889008,None,1079.5980457420228,None,1079.5980457420228,None,,,,,,,,,1,2022_Mar_31_1536,SAR-soap,2021.1.2,60.15914345053484,
60,Trial # 56,Group1-stimuli/group1-block1/real-group1-b1/Group1_IMG_0314.jpg,1,Group1_IMG_0314.jpg,,,,,0.0,55.0,55.0,55.0,,,,,,,,,,,,,,,,,,,,,,,,,,,,,,,,,,,,,1083.6484427299583,None,1083.6484427299583,None,1083.6484427299583,None,1.0,2.296858624089509,1083.6484427299583,None,1083.6484427299583,None,1.0,3.2353953029960394,1085.5009370929329,None,1083.6484427299583,None,2.0,7.175483064958826,1086.450001528021,None,1083.6484427299583,None,space,1.558204076020047,5.868088477058336,None,1083.6484427299583,None,1083.6484427299583,None,,,,,,,,,1,2022_Mar_31_1536,SAR-soap,2021.1.2,60.15914345053484,
61,Trial # 57,Group1-stimuli/group1-block1/fake-group2-b1/encoded_Group2_IMG_0532.jpg,0,encoded_Group2_IMG_0532.jpg,,,,,0.0,56.0,56.0,56.0,,,,,,,,,,,,,,,,,,,,,,,,,,,,,,,,,,,,,1091.10175779392,None,1091.10175779392,None,1091.10175779392,None,1.0,3.914242835948244,1091.10175779392,None,1091.10175779392,None,2.0,4.935514531913213,1094.5702928840185,None,1091.10175779392,None,3.0,6.9755754640791565,1095.604193891981,None,1091.10175779392,None,space,0.1956739109009504,7.003478038008325,None,1091.10175779392,None,1091.10175779392,None,,,,,,,,,1,2022_Mar_31_1536,SAR-soap,2021.1.2,60.15914345053484,
62,Trial # 58,Group1-stimuli/group1-block1/fake-group2-b1/encoded_Group2_IMG_0462.jpg,0,encoded_Group2_IMG_0462.jpg,,,,,0.0,57.0,57.0,57.0,,,,,,,,,,,,,,,,,,,,,,,,,,,,,,,,,,,,,1098.3206856680335,None,1098.3206856680335,None,1098.3206856680335,None,3.0,4.164203861961141,1098.3206856680335,None,1098.3206856680335,None,3.0,6.0700431719888,1102.0384267099437,None,1098.3206856680335,None,4.0,7.377734521985985,1103.9550724650037,None,1098.3206856680335,None,space,0.1767331630690023,7.405203947913833,None,1098.3206856680335,None,1098.3206856680335,None,,,,,,,,,1,2022_Mar_31_1536,SAR-soap,2021.1.2,60.15914345053484,
63,Trial # 59,Group1-stimuli/group1-block1/real-group1-b1/Group1_IMG_0172.jpg,1,Group1_IMG_0172.jpg,,,,,0.0,58.0,58.0,58.0,,,,,,,,,,,,,,,,,,,,,,,,,,,,,,,,,,,,,1105.9567742809886,None,1105.9567742809886,None,1105.9567742809886,None,1.0,1.560574078001082,1105.9567742809886,None,1105.9567742809886,None,1.0,2.2169571690028533,1107.0571505830158,None,1105.9567742809886,None,1.0,3.954895852948539,1107.7233734040055,None,1105.9567742809886,None,space,0.382721189991571,3.981561910826713,None,1105.9567742809886,None,1105.9567742809886,None,,,,,,,,,1,2022_Mar_31_1536,SAR-soap,2021.1.2,60.15914345053484,
64,Trial # 60,Group1-stimuli/group1-block1/real-group1-b1/Group1_IMG_4841.jpg,1,Group1_IMG_4841.jpg,,,,,0.0,59.0,59.0,59.0,,,,,,,,,,,,,,,,,,,,,,,,,,,,,,,,,,,,,1110.3411010649288,None,1110.3411010649288,None,1110.3411010649288,None,5.0,7.045773084973916,1110.3411010649288,None,1110.3411010649288,None,5.0,5.518714534002356,1113.0755402420182,None,1110.3411010649288,None,6.0,8.32413963705767,1115.4260812660214,None,1110.3411010649288,None,space,0.3182043870911002,8.351073754951358,None,1110.3411010649288,None,1110.3411010649288,None,,,,,,,,,1,2022_Mar_31_1536,SAR-soap,2021.1.2,60.15914345053484,
65,Trial # 61,Group1-stimuli/group1-block1/fake-group2-b1/encoded_Group2_IMG_0352.jpg,0,encoded_Group2_IMG_0352.jpg,,,,,0.0,60.0,60.0,60.0,,,,,,,,,,,,,,,,,,,,,,,,,,,,,,,,,,,,,1119.043657953967,None,1119.043657953967,None,1119.043657953967,None,1.0,3.732261001016013,1119.043657953967,None,1119.043657953967,None,1.0,4.387479208991863,1122.3289637989365,None,1119.043657953967,None,1.0,4.959748021909036,1122.994256043923,None,1119.043657953967,None,space,0.255016744020395,4.989490014966577,None,1119.043657953967,None,1119.043657953967,None,,,,,,,,,1,2022_Mar_31_1536,SAR-soap,2021.1.2,60.15914345053484,
66,Trial # 62,Group1-stimuli/group1-block1/fake-group2-b1/encoded_Group2_IMG_9726.jpg,0,encoded_Group2_IMG_9726.jpg,,,,,0.0,61.0,61.0,61.0,,,,,,,,,,,,,,,,,,,,,,,,,,,,,,,,,,,,,1124.3118116579717,None,1124.3118116579717,None,1124.3118116579717,None,5.0,6.916254366980866,1124.3118116579717,None,1124.3118116579717,None,5.0,5.655506087932736,1125.863087220001,None,1124.3118116579717,None,5.0,9.893469491042197,1126.6954187569208,None,1124.3118116579717,None,space,1.3407574030570686,9.921859574969858,None,1124.3118116579717,None,1124.3118116579717,None,,,,,,,,,1,2022_Mar_31_1536,SAR-soap,2021.1.2,60.15914345053484,
67,Trial # 63,Group1-stimuli/group1-block1/fake-group2-b1/encoded_Group2_IMG_9785.jpg,0,encoded_Group2_IMG_9785.jpg,,,,,0.0,62.0,62.0,62.0,,,,,,,,,,,,,,,,,,,,,,,,,,,,,,,,,,,,,1135.6159448699327,None,1135.6159448699327,None,1135.6159448699327,None,4.0,4.380660830996931,1135.6159448699327,None,1135.6159448699327,None,2.0,5.637143013998866,1138.832793804002,None,1135.6159448699327,None,3.0,7.475613923976198,1140.81742311595,None,1135.6159448699327,None,space,0.1264513659989461,7.503540659788996,None,1135.6159448699327,None,1135.6159448699327,None,,,,,,,,,1,2022_Mar_31_1536,SAR-soap,2021.1.2,60.15914345053484,
68,Trial # 64,Group1-stimuli/group1-block1/fake-group2-b1/encoded_Group2_IMG_0440.jpg,0,encoded_Group2_IMG_0440.jpg,,,,,0.0,63.0,63.0,63.0,,,,,,,,,,,,,,,,,,,,,,,,,,,,,,,,,,,,,1143.2676086379215,None,1143.2676086379215,None,1143.2676086379215,None,4.0,6.147981617948972,1143.2676086379215,None,1143.2676086379215,None,5.0,7.238814702024683,1148.9691353279632,None,1143.2676086379215,None,4.0,9.5436598979868,1150.0697912649484,None,1143.2676086379215,None,space,0.2541047730483114,9.57302283984609,None,1143.2676086379215,None,1143.2676086379215,None,,,,,,,,,1,2022_Mar_31_1536,SAR-soap,2021.1.2,60.15914345053484,
69,Trial # 65,Group1-stimuli/group1-block1/fake-group2-b1/encoded_Group2_IMG_1695.jpg,0,encoded_Group2_IMG_1695.jpg,,,,,0.0,64.0,64.0,64.0,,,,,,,,,,,,,,,,,,,,,,,,,,,,,,,,,,,,,1153.1202183120186,None,1153.1202183120186,None,1153.1202183120186,None,1.0,1.7487071540672332,1153.1202183120186,None,1153.1202183120186,None,1.0,2.937922078068368,1154.4212416550145,None,1153.1202183120186,None,1.0,4.00983931706287,1155.621242356021,None,1153.1202183120186,None,space,0.1849739559693262,4.038503794930875,None,1153.1202183120186,None,1153.1202183120186,None,,,,,,,,,1,2022_Mar_31_1536,SAR-soap,2021.1.2,60.15914345053484,
70,Trial # 66,Group1-stimuli/group1-block1/real-group1-b1/Group1_IMG_0552.jpg,1,Group1_IMG_0552.jpg,,,,,0.0,65.0,65.0,65.0,,,,,,,,,,,,,,,,,,,,,,,,,,,,,,,,,,,,,1157.3719868200133,None,1157.3719868200133,None,1157.3719868200133,None,2.0,8.448275982984342,1157.3719868200133,None,1157.3719868200133,None,1.0,9.387349730008282,1162.1903278189711,None,1157.3719868200133,None,1.0,10.426949662039988,1166.324847957003,None,1157.3719868200133,None,space,0.2187143809860572,10.453050112933852,None,1157.3719868200133,None,1157.3719868200133,None,,,,,,,,,1,2022_Mar_31_1536,SAR-soap,2021.1.2,60.15914345053484,
71,Trial # 67,Group1-stimuli/group1-block1/real-group1-b1/Group1_IMG_1029.jpg,1,Group1_IMG_1029.jpg,,,,,0.0,66.0,66.0,66.0,,,,,,,,,,,,,,,,,,,,,,,,,,,,,,,,,,,,,1168.0756144759944,None,1168.0756144759944,None,1168.0756144759944,None,3.0,1.8305480499984697,1168.0756144759944,None,1168.0756144759944,None,2.0,4.285729615949094,1169.4594458639622,None,1168.0756144759944,None,4.0,5.2939388250233606,1171.9260305690111,None,1168.0756144759944,None,space,0.1945926530752331,5.317652822937816,None,1168.0756144759944,None,1168.0756144759944,None,,,,,,,,,1,2022_Mar_31_1536,SAR-soap,2021.1.2,60.15914345053484,
72,Trial # 68,Group1-stimuli/group1-block1/fake-group2-b1/encoded_Group2_IMG_6517.jpg,0,encoded_Group2_IMG_6517.jpg,,,,,0.0,67.0,67.0,67.0,,,,,,,,,,,,,,,,,,,,,,,,,,,,,,,,,,,,,1173.6102227299707,None,1173.6102227299707,None,1173.6102227299707,None,1.0,1.7986278000753373,1173.6102227299707,None,1173.6102227299707,None,1.0,2.3525490530300885,1174.9608681569807,None,1173.6102227299707,None,1.0,3.0594940680311997,1175.5280622959835,None,1173.6102227299707,None,space,0.5494370610686019,3.086096087936312,None,1173.6102227299707,None,1173.6102227299707,None,,,,,,,,,1,2022_Mar_31_1536,SAR-soap,2021.1.2,60.15914345053484,
73,Trial # 69,Group1-stimuli/group1-block1/fake-group2-b1/encoded_Group2_IMG_0002.jpg,0,encoded_Group2_IMG_0002.jpg,,,,,0.0,68.0,68.0,68.0,,,,,,,,,,,,,,,,,,,,,,,,,,,,,,,,,,,,,1177.2782312619966,None,1177.2782312619966,None,1177.2782312619966,None,3.0,4.197875511948951,1177.2782312619966,None,1177.2782312619966,None,2.0,6.137571439961903,1181.029287341982,None,1177.2782312619966,None,4.0,7.544560802052729,1182.9798364129383,None,1177.2782312619966,None,space,0.1553614279255271,7.572514767874964,None,1177.2782312619966,None,1177.2782312619966,None,,,,,,,,,1,2022_Mar_31_1536,SAR-soap,2021.1.2,60.15914345053484,
74,Trial # 70,Group1-stimuli/group1-block1/real-group1-b1/Group1_IMG_0495.jpg,1,Group1_IMG_0495.jpg,,,,,0.0,69.0,69.0,69.0,,,,,,,,,,,,,,,,,,,,,,,,,,,,,,,,,,,,,1185.0307543189265,None,1185.0307543189265,None,1185.0307543189265,None,1.0,2.8950711979996413,1185.0307543189265,None,1185.0307543189265,None,1.0,3.550543734920211,1187.481522175949,None,1185.0307543189265,None,1.0,4.38972120708786,1188.147699552006,None,1185.0307543189265,None,space,0.2354225560557097,4.41683145891875,None,1185.0307543189265,None,1185.0307543189265,None,,,,,,,,,1,2022_Mar_31_1536,SAR-soap,2021.1.2,60.15914345053484,
75,Trial # 71,Group1-stimuli/group1-block1/real-group1-b1/Group1_IMG_1391.jpg,1,Group1_IMG_1391.jpg,,,,,0.0,70.0,70.0,70.0,,,,,,,,,,,,,,,,,,,,,,,,,,,,,,,,,,,,,1189.7489036079496,None,1189.7489036079496,None,1189.7489036079496,None,2.0,2.4127311279298738,1189.7489036079496,None,1189.7489036079496,None,3.0,3.2355422009713948,1191.699614017969,None,1189.7489036079496,None,4.0,5.507421168964356,1192.5327085920144,None,1189.7489036079496,None,space,0.2717455279780552,5.534279702813365,None,1189.7489036079496,None,1189.7489036079496,None,,,,,,,,,1,2022_Mar_31_1536,SAR-soap,2021.1.2,60.15914345053484,
76,Trial # 72,Group1-stimuli/group1-block1/real-group1-b1/Group1_IMG_0343.jpg,1,Group1_IMG_0343.jpg,,,,,0.0,71.0,71.0,71.0,,,,,,,,,,,,,,,,,,,,,,,,,,,,,,,,,,,,,1195.5839625060323,None,1195.5839625060323,None,1195.5839625060323,None,1.0,1.6451166620245203,1195.5839625060323,None,1195.5839625060323,None,1.0,2.4351175249321386,1196.7852190589765,None,1195.5839625060323,None,1.0,3.2068216589977965,1197.5843363939784,None,1195.5839625060323,None,space,0.1778464210219681,3.232854307978414,None,1195.5839625060323,None,1195.5839625060323,None,,,,,,,,,1,2022_Mar_31_1536,SAR-soap,2021.1.2,60.15914345053484,
77,Trial # 73,Group1-stimuli/group1-block1/fake-group2-b1/encoded_Group2_IMG_9810.jpg,0,encoded_Group2_IMG_9810.jpg,,,,,0.0,72.0,72.0,72.0,,,,,,,,,,,,,,,,,,,,,,,,,,,,,,,,,,,,,1199.0343612559373,None,1199.0343612559373,None,1199.0343612559373,None,1.0,2.2812815660145134,1199.0343612559373,None,1199.0343612559373,None,1.0,2.9370180340483785,1200.8688559150323,None,1199.0343612559373,None,1.0,3.6427118480205536,1201.535829572007,None,1199.0343612559373,None,space,1.1174786270130426,3.6696716209407896,None,1199.0343612559373,None,1199.0343612559373,None,,,,,,,,,1,2022_Mar_31_1536,SAR-soap,2021.1.2,60.15914345053484,
78,Trial # 74,Group1-stimuli/group1-block1/fake-group2-b1/encoded_Group2_IMG_5900.jpg,0,encoded_Group2_IMG_5900.jpg,,,,,0.0,73.0,73.0,73.0,,,,,,,,,,,,,,,,,,,,,,,,,,,,,,,,,,,,,1203.8532232550206,None,1203.8532232550206,None,1203.8532232550206,None,1.0,4.04891974106431,1203.8532232550206,None,1203.8532232550206,None,1.0,4.704257601988502,1207.4545288319932,None,1203.8532232550206,None,1.0,6.6125514740124345,1208.121104402002,None,1203.8532232550206,None,space,0.8104381299344823,6.640982955810614,None,1203.8532232550206,None,1203.8532232550206,None,,,,,,,,,1,2022_Mar_31_1536,SAR-soap,2021.1.2,60.15914345053484,
79,Trial # 75,Group1-stimuli/group1-block1/real-group1-b1/Group1_IMG_9679.jpg,1,Group1_IMG_9679.jpg,,,,,0.0,74.0,74.0,74.0,,,,,,,,,,,,,,,,,,,,,,,,,,,,,,,,,,,,,1211.3560903469331,None,1211.3560903469331,None,1211.3560903469331,None,1.0,2.8444775639800355,1211.3560903469331,None,1211.3560903469331,None,1.0,3.4022169519448653,1213.7400576380314,None,1211.3560903469331,None,1.0,3.9739856959786266,1214.3063327419804,None,1211.3560903469331,None,space,0.6148879240499809,4.00062058493495,None,1211.3560903469331,None,1211.3560903469331,None,,,,,,,,,1,2022_Mar_31_1536,SAR-soap,2021.1.2,60.15914345053484,
80,Trial # 76,Group1-stimuli/group1-block1/fake-group2-b1/encoded_Group2_IMG_4249.jpg,0,encoded_Group2_IMG_4249.jpg,,,,,0.0,75.0,75.0,75.0,,,,,,,,,,,,,,,,,,,,,,,,,,,,,,,,,,,,,1215.9897785959763,None,1215.9897785959763,None,1215.9897785959763,None,4.0,5.499374613980763,1215.9897785959763,None,1215.9897785959763,None,4.0,2.40271047805436,1217.357315280009,None,1215.9897785959763,None,5.0,4.643070277059451,1217.9572248259792,None,1215.9897785959763,None,space,3.097104483982548,3.103410542011261,None,1215.9897785959763,None,1215.9897785959763,None,,,,,,,,,1,2022_Mar_31_1536,SAR-soap,2021.1.2,60.15914345053484,
81,Trial # 77,Group1-stimuli/group1-block1/fake-group2-b1/encoded_Group2_IMG_0174.jpg,0,encoded_Group2_IMG_0174.jpg,,,,,0.0,76.0,76.0,76.0,,,,,,,,,,,,,,,,,,,,,,,,,,,,,,,,,,,,,1222.2087802879978,None,1222.2087802879978,None,1222.2087802879978,None,1.0,1.6961738790851086,1222.2087802879978,None,1222.2087802879978,None,1.0,2.6377206989564,1223.4583600119222,None,1222.2087802879978,None,1.0,3.410109256976284,1224.4101930130273,None,1222.2087802879978,None,space,0.1362270580139011,3.437078643939458,None,1222.2087802879978,None,1222.2087802879978,None,,,,,,,,,1,2022_Mar_31_1536,SAR-soap,2021.1.2,60.15914345053484,
82,Trial # 78,Group1-stimuli/group1-block1/fake-group2-b1/encoded_Group2_IMG_0475.jpg,0,encoded_Group2_IMG_0475.jpg,,,,,0.0,77.0,77.0,77.0,,,,,,,,,,,,,,,,,,,,,,,,,,,,,,,,,,,,,1225.8270735719707,None,1225.8270735719707,None,1225.8270735719707,None,1.0,5.615899014985189,1225.8270735719707,None,1225.8270735719707,None,1.0,6.3041707900119945,1230.9958268440096,None,1225.8270735719707,None,1.0,7.041890172986314,1231.694714616984,None,1225.8270735719707,None,space,0.2359717750223353,7.071725818910636,None,1225.8270735719707,None,1225.8270735719707,None,,,,,,,,,1,2022_Mar_31_1536,SAR-soap,2021.1.2,60.15914345053484,
83,Trial # 79,Group1-stimuli/group1-block1/fake-group2-b1/encoded_Group2_IMG_9751.jpg,0,encoded_Group2_IMG_9751.jpg,,,,,0.0,78.0,78.0,78.0,,,,,,,,,,,,,,,,,,,,,,,,,,,,,,,,,,,,,1233.1785334779415,None,1233.1785334779415,None,1233.1785334779415,None,4.0,6.73485377500765,1233.1785334779415,None,1233.1785334779415,None,3.0,6.038766950019635,1234.38011052995,None,1233.1785334779415,None,4.0,9.245945380069315,1236.612922284985,None,1233.1785334779415,None,space,1.1825650410028177,8.807805711985566,None,1233.1785334779415,None,1233.1785334779415,None,,,,,,,,,1,2022_Mar_31_1536,SAR-soap,2021.1.2,60.15914345053484,
84,Trial # 80,Group1-stimuli/group1-block1/fake-group2-b1/encoded_Group2_IMG_0492.jpg,0,encoded_Group2_IMG_0492.jpg,,,,,0.0,79.0,79.0,79.0,,,,,,,,,,,,,,,,,,,,,,,,,,,,,,,,,,,,,1243.198040319956,None,1243.198040319956,None,1243.198040319956,None,1.0,1.580888285068795,1243.198040319956,None,1243.198040319956,None,1.0,2.203141538077034,1244.332745190011,None,1243.198040319956,None,1.0,3.874972822028212,1244.9658278180286,None,1243.198040319956,None,space,0.447676592040807,3.904622232890688,None,1243.198040319956,None,1243.198040319956,None,,,,,,,,,1,2022_Mar_31_1536,SAR-soap,2021.1.2,60.15914345053484,
85,Trial # 81,Group1-stimuli/group1-block1/real-group1-b1/Group1_IMG_0535.jpg,1,Group1_IMG_0535.jpg,,,,,0.0,80.0,80.0,80.0,,,,,,,,,,,,,,,,,,,,,,,,,,,,,,,,,,,,,1247.599852105952,None,1247.599852105952,None,1247.599852105952,None,1.0,3.0458546220324934,1247.599852105952,None,1247.599852105952,None,1.0,3.7017816390143703,1250.1846574059457,None,1247.599852105952,None,1.0,5.175724408007227,1250.852044499945,None,1247.599852105952,None,space,0.2990505009656772,5.199744169949554,None,1247.599852105952,None,1247.599852105952,None,,,,,,,,,1,2022_Mar_31_1536,SAR-soap,2021.1.2,60.15914345053484,
86,Trial # 82,Group1-stimuli/group1-block1/real-group1-b1/Group1_IMG_0077.jpg,1,Group1_IMG_0077.jpg,,,,,0.0,81.0,81.0,81.0,,,,,,,,,,,,,,,,,,,,,,,,,,,,,,,,,,,,,1253.1185251979623,None,1253.1185251979623,None,1253.1185251979623,None,3.0,2.8955718809738755,1253.1185251979623,None,1253.1185251979623,None,3.0,6.935321873985231,1255.5531436849851,None,1253.1185251979623,None,4.0,8.208701573079452,1259.6036054469878,None,1253.1185251979623,None,space,0.2815392219927162,8.232588269864209,None,1253.1185251979623,None,1253.1185251979623,None,,,,,,,,,1,2022_Mar_31_1536,SAR-soap,2021.1.2,60.15914345053484,
87,Trial # 83,Group1-stimuli/group1-block1/fake-group2-b1/encoded_Group2_IMG_9702.jpg,0,encoded_Group2_IMG_9702.jpg,,,,,0.0,82.0,82.0,82.0,,,,,,,,,,,,,,,,,,,,,,,,,,,,,,,,,,,,,1261.653807480936,None,1261.653807480936,None,1261.653807480936,None,1.0,2.948452565004118,1261.653807480936,None,1261.653807480936,None,1.0,3.6385280250106007,1264.1542863189245,None,1261.653807480936,None,1.0,4.3770211529918015,1264.855065169977,None,1261.653807480936,None,space,1.236134949955158,4.405020128935576,None,1261.653807480936,None,1261.653807480936,None,,,,,,,,,1,2022_Mar_31_1536,SAR-soap,2021.1.2,60.15914345053484,
88,Trial # 84,Group1-stimuli/group1-block1/real-group1-b1/Group1_IMG_0357.jpg,1,Group1_IMG_0357.jpg,,,,,0.0,83.0,83.0,83.0,,,,,,,,,,,,,,,,,,,,,,,,,,,,,,,,,,,,,1267.3397385389544,None,1267.3397385389544,None,1267.3397385389544,None,1.0,3.764068391988985,1267.3397385389544,None,1267.3397385389544,None,1.0,4.786631910013966,1270.658123870031,None,1267.3397385389544,None,2.0,7.358053862000816,1271.6901681029703,None,1267.3397385389544,None,space,1.6472474799957126,5.784697405877523,None,1267.3397385389544,None,1267.3397385389544,None,,,,,,,,,1,2022_Mar_31_1536,SAR-soap,2021.1.2,60.15914345053484,
89,Trial # 85,Group1-stimuli/group1-block1/real-group1-b1/Group1_IMG_9772.jpg,1,Group1_IMG_9772.jpg,,,,,0.0,84.0,84.0,84.0,,,,,,,,,,,,,,,,,,,,,,,,,,,,,,,,,,,,,1274.809060839936,None,1274.809060839936,None,1274.809060839936,None,4.0,1.7278183629969135,1274.809060839936,None,1274.809060839936,None,4.0,7.286014858982526,1276.092904219986,None,1274.809060839936,None,5.0,7.890202069072984,1277.359291872941,None,1274.809060839936,None,space,2.8365697079570964,5.51693669706583,None,1274.809060839936,None,1274.809060839936,None,,,,,,,,,1,2022_Mar_31_1536,SAR-soap,2021.1.2,60.15914345053484,
90,Trial # 86,Group1-stimuli/group1-block1/real-group1-b1/Group1_IMG_0482.jpg,1,Group1_IMG_0482.jpg,,,,,0.0,85.0,85.0,85.0,,,,,,,,,,,,,,,,,,,,,,,,,,,,,,,,,,,,,1283.2101310599828,None,1283.2101310599828,None,1283.2101310599828,None,1.0,1.830301846959628,1283.2101310599828,None,1283.2101310599828,None,1.0,2.6190697820857167,1284.596111245919,None,1283.2101310599828,None,1.0,3.424925387022085,1285.3957295279251,None,1283.2101310599828,None,space,0.4051045390078798,3.4522939769085497,None,1283.2101310599828,None,1283.2101310599828,None,,,,,,,,,1,2022_Mar_31_1536,SAR-soap,2021.1.2,60.15914345053484,
91,Trial # 87,Group1-stimuli/group1-block1/real-group1-b1/Group1_IMG_0299.jpg,1,Group1_IMG_0299.jpg,,,,,0.0,86.0,86.0,86.0,,,,,,,,,,,,,,,,,,,,,,,,,,,,,,,,,,,,,1287.11218572699,None,1287.11218572699,None,1287.11218572699,None,7.0,5.729315810021944,1287.11218572699,None,1287.11218572699,None,7.0,7.269513193983585,1289.346444647992,None,1287.11218572699,None,7.0,8.67619043495506,1293.9472140179714,None,1287.11218572699,None,space,0.2599091459996998,8.70244173402898,None,1287.11218572699,None,1287.11218572699,None,,,,,,,,,1,2022_Mar_31_1536,SAR-soap,2021.1.2,60.15914345053484,
92,Trial # 88,Group1-stimuli/group1-block1/fake-group2-b1/encoded_Group2_IMG_0301.jpg,0,encoded_Group2_IMG_0301.jpg,,,,,0.0,87.0,87.0,87.0,,,,,,,,,,,,,,,,,,,,,,,,,,,,,,,,,,,,,1296.0989918729756,None,1296.0989918729756,None,1296.0989918729756,None,6.0,8.148117549018934,1296.0989918729756,None,1296.0989918729756,None,5.0,8.954110447084531,1298.7490510089556,None,1296.0989918729756,None,6.0,10.160320751951076,1304.6178773989668,None,1296.0989918729756,None,space,0.9423086500028148,10.188819328905083,None,1296.0989918729756,None,1296.0989918729756,None,,,,,,,,,1,2022_Mar_31_1536,SAR-soap,2021.1.2,60.15914345053484,
93,Trial # 89,Group1-stimuli/group1-block1/fake-group2-b1/encoded_Group2_IMG_5136.jpg,0,encoded_Group2_IMG_5136.jpg,,,,,0.0,88.0,88.0,88.0,,,,,,,,,,,,,,,,,,,,,,,,,,,,,,,,,,,,,1307.2677331099983,None,1307.2677331099983,None,1307.2677331099983,None,4.0,5.9330800420138985,1307.2677331099983,None,1307.2677331099983,None,4.0,9.9060314319795,1312.7542573920218,None,1307.2677331099983,None,6.0,10.810267472988926,1316.7382998960093,None,1307.2677331099983,None,space,0.947224881965667,10.840529222972693,None,1307.2677331099983,None,1307.2677331099983,None,,,,,,,,,1,2022_Mar_31_1536,SAR-soap,2021.1.2,60.15914345053484,
94,Trial # 90,Group1-stimuli/group1-block1/real-group1-b1/Group1_IMG_0460.jpg,1,Group1_IMG_0460.jpg,,,,,0.0,89.0,89.0,89.0,,,,,,,,,,,,,,,,,,,,,,,,,,,,,,,,,,,,,1319.0879404899897,None,1319.0879404899897,None,1319.0879404899897,None,6.0,5.530665475060232,1319.0879404899897,None,1319.0879404899897,None,7.0,7.569898706977256,1321.1573954350315,None,1319.0879404899897,None,5.0,9.94221840496175,1325.290934810997,None,1319.0879404899897,None,space,1.3442587200552223,9.202545551816002,None,1319.0879404899897,None,1319.0879404899897,None,,,,,,,,,1,2022_Mar_31_1536,SAR-soap,2021.1.2,60.15914345053484,
95,Trial # 91,Group1-stimuli/group1-block1/fake-group2-b1/encoded_Group2_IMG_0068.jpg,0,encoded_Group2_IMG_0068.jpg,,,,,0.0,90.0,90.0,90.0,,,,,,,,,,,,,,,,,,,,,,,,,,,,,,,,,,,,,1329.6761364919366,None,1329.6761364919366,None,1329.6761364919366,None,6.0,3.3654770960565656,1329.6761364919366,None,1329.6761364919366,None,5.0,6.10587180708535,1332.5933816229226,None,1329.6761364919366,None,7.0,9.044774375041015,1335.3447397249984,None,1329.6761364919366,None,space,0.6272060100454837,9.074079725076444,None,1329.6761364919366,None,1329.6761364919366,None,,,,,,,,,1,2022_Mar_31_1536,SAR-soap,2021.1.2,60.15914345053484,
96,Trial # 92,Group1-stimuli/group1-block1/real-group1-b1/Group1_IMG_0337.jpg,1,Group1_IMG_0337.jpg,,,,,0.0,91.0,91.0,91.0,,,,,,,,,,,,,,,,,,,,,,,,,,,,,,,,,,,,,1339.394786158926,None,1339.394786158926,None,1339.394786158926,None,1.0,4.646879360079765,1339.394786158926,None,1339.394786158926,None,1.0,5.368564571021125,1343.5958728370024,None,1339.394786158926,None,1.0,6.075385209987871,1344.3298520200187,None,1339.394786158926,None,space,1.4183122790418563,6.102156933047809,None,1339.394786158926,None,1339.394786158926,None,,,,,,,,,1,2022_Mar_31_1536,SAR-soap,2021.1.2,60.15914345053484,
97,Trial # 93,Group1-stimuli/group1-block1/fake-group2-b1/encoded_Group2_IMG_0346.jpg,0,encoded_Group2_IMG_0346.jpg,,,,,0.0,92.0,92.0,92.0,,,,,,,,,,,,,,,,,,,,,,,,,,,,,,,,,,,,,1346.9473193059675,None,1346.9473193059675,None,1346.9473193059675,None,1.0,4.233535925042816,1346.9473193059675,None,1346.9473193059675,None,1.0,4.823367455042899,1350.732487207977,None,1346.9473193059675,None,1.0,5.661234087077901,1351.331822106964,None,1346.9473193059675,None,space,0.0518681720132008,5.690553694032133,None,1346.9473193059675,None,1346.9473193059675,None,,,,,,,,,1,2022_Mar_31_1536,SAR-soap,2021.1.2,60.15914345053484,
98,Trial # 94,Group1-stimuli/group1-block1/real-group1-b1/Group1_IMG_4253.jpg,1,Group1_IMG_4253.jpg,,,,,0.0,93.0,93.0,93.0,,,,,,,,,,,,,,,,,,,,,,,,,,,,,,,,,,,,,1352.732284417027,None,1352.732284417027,None,1352.732284417027,None,6.0,9.597383555024862,1352.732284417027,None,1352.732284417027,None,5.0,10.636924994993024,1355.050057317014,None,1352.732284417027,None,6.0,12.209370190044863,1360.8851617479231,None,1352.732284417027,None,space,0.0582891369704157,12.236130994046109,None,1352.732284417027,None,1352.732284417027,None,,,,,,,,,1,2022_Mar_31_1536,SAR-soap,2021.1.2,60.15914345053484,
99,Trial # 95,Group1-stimuli/group1-block1/fake-group2-b1/encoded_Group2_IMG_9280.jpg,0,encoded_Group2_IMG_9280.jpg,,,,,0.0,94.0,94.0,94.0,,,,,,,,,,,,,,,,,,,,,,,,,,,,,,,,,,,,,1365.0369027010163,None,1365.0369027010163,None,1365.0369027010163,None,1.0,2.830843997071497,1365.0369027010163,None,1365.0369027010163,None,1.0,3.2533691480057314,1367.4211621040013,None,1365.0369027010163,None,4.0,4.558170996024273,1367.8536650600145,None,1365.0369027010163,None,space,0.6753628799924627,4.087016594945453,None,1365.0369027010163,None,1365.0369027010163,None,,,,,,,,,1,2022_Mar_31_1536,SAR-soap,2021.1.2,60.15914345053484,
100,Trial # 96,Group1-stimuli/group1-block1/real-group1-b1/Group1_IMG_0417.jpg,1,Group1_IMG_0417.jpg,,,,,0.0,95.0,95.0,95.0,,,,,,,,,,,,,,,,,,,,,,,,,,,,,,,,,,,,,1369.8382655709283,None,1369.8382655709283,None,1369.8382655709283,None,3.0,4.87995322200004,1369.8382655709283,None,1369.8382655709283,None,2.0,80.3769548740238,1371.5379573899554,None,1369.8382655709283,None,4.0,186.8464021270629,1445.6782148130003,None,1369.8382655709283,None,space,0.2354673480149358,186.87480233085807,None,1369.8382655709283,None,1369.8382655709283,None,,,,,,,,,1,2022_Mar_31_1536,SAR-soap,2021.1.2,60.15914345053484,
101,Trial # 97,Group1-stimuli/group1-block1/fake-group2-b1/encoded_Group2_IMG_9695.jpg,0,encoded_Group2_IMG_9695.jpg,,,,,0.0,96.0,96.0,96.0,,,,,,,,,,,,,,,,,,,,,,,,,,,,,,,,,,,,,1557.0280657160329,None,1557.0280657160329,None,1557.0280657160329,None,1.0,2.214041857048869,1557.0280657160329,None,1557.0280657160329,None,1.0,2.803575052996166,1558.7956568989905,None,1557.0280657160329,None,1.0,3.410140895983204,1559.396007764968,None,1557.0280657160329,None,space,0.0522715710103511,3.4379123700782657,None,1557.0280657160329,None,1557.0280657160329,None,,,,,,,,,1,2022_Mar_31_1536,SAR-soap,2021.1.2,60.15914345053484,
102,Trial # 98,Group1-stimuli/group1-block1/real-group1-b1/Group1_IMG_1160.jpg,1,Group1_IMG_1160.jpg,,,,,0.0,97.0,97.0,97.0,,,,,,,,,,,,,,,,,,,,,,,,,,,,,,,,,,,,,1560.5635069599375,None,1560.5635069599375,None,1560.5635069599375,None,4.0,3.327898269984871,1560.5635069599375,None,1560.5635069599375,None,4.0,4.667626567999832,1563.4313363690162,None,1560.5635069599375,None,5.0,5.974142296006903,1564.7815328669967,None,1560.5635069599375,None,space,0.2225042849313467,5.998584791901521,None,1560.5635069599375,None,1560.5635069599375,None,,,,,,,,,1,2022_Mar_31_1536,SAR-soap,2021.1.2,60.15914345053484,
103,Trial # 99,Group1-stimuli/group1-block1/real-group1-b1/Group1_IMG_0448.jpg,1,Group1_IMG_0448.jpg,,,,,0.0,98.0,98.0,98.0,,,,,,,,,,,,,,,,,,,,,,,,,,,,,,,,,,,,,1566.8159159759523,None,1566.8159159759523,None,1566.8159159759523,None,3.0,3.7800956369610494,1566.8159159759523,None,1566.8159159759523,None,2.0,4.635871801059693,1570.132868441986,None,1566.8159159759523,None,3.0,6.574136771028861,1571.000367954024,None,1566.8159159759523,None,space,0.0440669560339301,6.599287900957279,None,1566.8159159759523,None,1566.8159159759523,None,,,,,,,,,1,2022_Mar_31_1536,SAR-soap,2021.1.2,60.15914345053484,
104,Trial # 100,Group1-stimuli/group1-block1/fake-group2-b1/encoded_Group2_IMG_0393.jpg,0,encoded_Group2_IMG_0393.jpg,,,,,0.0,99.0,99.0,99.0,,,,,,,,,,,,,,,,,,,,,,,,,,,,,,,,,,,,,1573.4836162700085,None,1573.4836162700085,None,1573.4836162700085,None,4.0,2.866073954035528,1573.4836162700085,None,1573.4836162700085,None,3.0,3.937523960019462,1575.9021867599804,None,1573.4836162700085,None,2.0,5.109804490930401,1576.9846875260118,None,1573.4836162700085,None,space,-0.9108241179492323,5.139603200019337,None,1573.4836162700085,None,1573.4836162700085,None,,,,,,,,,1,2022_Mar_31_1536,SAR-soap,2021.1.2,60.15914345053484,
105,Trial # 101,Group1-stimuli/group1-block1/real-group1-b1/Group1_IMG_0090.jpg,1,Group1_IMG_0090.jpg,,,,,0.0,100.0,100.0,100.0,,,,,,,,,,,,,,,,,,,,,,,,,,,,,,,,,,,,,1578.651870177011,None,1578.651870177011,None,1578.651870177011,None,1.0,2.7955169320339337,1578.651870177011,None,1578.651870177011,None,1.0,3.468911109026521,1580.98627276998,None,1578.651870177011,None,1.0,4.071788962930441,1581.6697857399704,None,1578.651870177011,None,space,-3.909247449948453,4.09864287590608,None,1578.651870177011,None,1578.651870177011,None,,,,,,,,,1,2022_Mar_31_1536,SAR-soap,2021.1.2,60.15914345053484,
106,Trial # 102,Group1-stimuli/group1-block1/real-group1-b1/Group1_IMG_0310.jpg,1,Group1_IMG_0310.jpg,,,,,0.0,101.0,101.0,101.0,,,,,,,,,,,,,,,,,,,,,,,,,,,,,,,,,,,,,1582.7700838199817,None,1582.7700838199817,None,1582.7700838199817,None,1.0,1.6094149589771405,1582.7700838199817,None,1582.7700838199817,None,1.0,4.367563146050088,1583.9203272670277,None,1582.7700838199817,None,1.0,5.005193078075536,1586.6884268129943,None,1582.7700838199817,None,space,-4.961124320048839,5.031939041800797,None,1582.7700838199817,None,1582.7700838199817,None,,,,,,,,,1,2022_Mar_31_1536,SAR-soap,2021.1.2,60.15914345053484,
107,Trial # 103,Group1-stimuli/group1-block1/fake-group2-b1/encoded_Group2_IMG_0528.jpg,0,encoded_Group2_IMG_0528.jpg,,,,,0.0,102.0,102.0,102.0,,,,,,,,,,,,,,,,,,,,,,,,,,,,,,,,,,,,,1587.8049614309566,None,1587.8049614309566,None,1587.8049614309566,None,2.0,9.182621791027486,1587.8049614309566,None,1587.8049614309566,None,1.0,7.753541309968568,1594.1236640019342,None,1587.8049614309566,None,3.0,12.861078615067528,1595.124911673949,None,1587.8049614309566,None,space,3.737640223000199,11.053847035975195,None,1587.8049614309566,None,1587.8049614309566,None,,,,,,,,,1,2022_Mar_31_1536,SAR-soap,2021.1.2,60.15914345053484,
108,Trial # 104,Group1-stimuli/group1-block1/fake-group2-b1/encoded_Group2_IMG_1975.jpg,0,encoded_Group2_IMG_1975.jpg,,,,,0.0,103.0,103.0,103.0,,,,,,,,,,,,,,,,,,,,,,,,,,,,,,,,,,,,,1602.642444876954,None,1602.642444876954,None,1602.642444876954,None,1.0,1.9146115959156305,1602.642444876954,None,1602.642444876954,None,1.0,2.870350332930684,1604.1103540849872,None,1602.642444876954,None,1.0,3.343799968017265,1605.0770899089985,None,1602.642444876954,None,space,-0.9358248329954222,3.373205792857334,None,1602.642444876954,None,1602.642444876954,None,,,,,,,,,1,2022_Mar_31_1536,SAR-soap,2021.1.2,60.15914345053484,
109,Trial # 105,Group1-stimuli/group1-block1/fake-group2-b1/encoded_Group2_IMG_0052.jpg,0,encoded_Group2_IMG_0052.jpg,,,,,0.0,104.0,104.0,104.0,,,,,,,,,,,,,,,,,,,,,,,,,,,,,,,,,,,,,1606.0278780109948,None,1606.0278780109948,None,1606.0278780109948,None,1.0,2.6461819460382685,1606.0278780109948,None,1606.0278780109948,None,1.0,3.1356501060072333,1608.227695478941,None,1606.0278780109948,None,1.0,3.573347166995518,1608.7280117879857,None,1606.0278780109948,None,space,-1.9205103350104764,3.602534520905465,None,1606.0278780109948,None,1606.0278780109948,None,,,,,,,,,1,2022_Mar_31_1536,SAR-soap,2021.1.2,60.15914345053484,
110,Trial # 106,Group1-stimuli/group1-block1/fake-group2-b1/encoded_Group2_IMG_0225.jpg,0,encoded_Group2_IMG_0225.jpg,,,,,0.0,105.0,105.0,105.0,,,,,,,,,,,,,,,,,,,,,,,,,,,,,,,,,,,,,1609.6448930900078,None,1609.6448930900078,None,1609.6448930900078,None,3.0,1.8657828399445864,1609.6448930900078,None,1609.6448930900078,None,2.0,3.4535933459410444,1611.0471781209344,None,1609.6448930900078,None,4.0,4.991687741014175,1612.1620944889728,None,1609.6448930900078,None,space,-3.666469660005532,5.021846086834557,None,1609.6448930900078,None,1609.6448930900078,None,,,,,,,,,1,2022_Mar_31_1536,SAR-soap,2021.1.2,60.15914345053484,
111,Trial # 107,Group1-stimuli/group1-block1/real-group1-b1/Group1_IMG_2231.jpg,1,Group1_IMG_2231.jpg,,,,,0.0,106.0,106.0,106.0,,,,,,,,,,,,,,,,,,,,,,,,,,,,,,,,,,,,,1614.714067280991,None,1614.714067280991,None,1614.714067280991,None,5.0,2.817523858975619,1614.714067280991,None,1614.714067280991,None,4.0,3.50700986396987,1617.0814223089255,None,1614.714067280991,None,5.0,4.912541202036664,1617.7806224529631,None,1614.714067280991,None,space,-4.315555960056372,4.94222757301759,None,1614.714067280991,None,1614.714067280991,None,,,,,,,,,1,2022_Mar_31_1536,SAR-soap,2021.1.2,60.15914345053484,
112,Trial # 108,Group1-stimuli/group1-block1/real-group1-b1/Group1_IMG_0217.jpg,1,Group1_IMG_0217.jpg,,,,,0.0,107.0,107.0,107.0,,,,,,,,,,,,,,,,,,,,,,,,,,,,,,,,,,,,,1619.6818516049534,None,1619.6818516049534,None,1619.6818516049534,None,4.0,2.8812818959122524,1619.6818516049534,None,1619.6818516049534,None,4.0,4.33642185293138,1622.1154371519806,None,1619.6818516049534,None,5.0,6.677103727008216,1623.015537980944,None,1619.6818516049534,None,space,-5.204010637011379,6.704207190079615,None,1619.6818516049534,None,1619.6818516049534,None,,,,,,,,,1,2022_Mar_31_1536,SAR-soap,2021.1.2,60.15914345053484,
113,Trial # 109,Group1-stimuli/group1-block1/real-group1-b1/Group1_IMG_0264.jpg,1,Group1_IMG_0264.jpg,,,,,0.0,108.0,108.0,108.0,,,,,,,,,,,,,,,,,,,,,,,,,,,,,,,,,,,,,1626.417829904938,None,1626.417829904938,None,1626.417829904938,None,7.0,3.255349274957553,1626.417829904938,None,1626.417829904938,None,7.0,4.111438972991891,1628.567252970999,None,1626.417829904938,None,6.0,6.716985990991816,1630.0854501680003,None,1626.417829904938,None,space,-5.788778356043622,6.737289998913184,None,1626.417829904938,None,1626.417829904938,None,,,,,,,,,1,2022_Mar_31_1536,SAR-soap,2021.1.2,60.15914345053484,
114,Trial # 110,Group1-stimuli/group1-block1/fake-group2-b1/encoded_Group2_IMG_0254.jpg,0,encoded_Group2_IMG_0254.jpg,,,,,0.0,109.0,109.0,109.0,,,,,,,,,,,,,,,,,,,,,,,,,,,,,,,,,,,,,1633.1680997869698,None,1633.1680997869698,None,1633.1680997869698,None,1.0,2.4813926350325346,1633.1680997869698,None,1633.1680997869698,None,1.0,3.6375794280320406,1635.203833276988,None,1633.1680997869698,None,1.0,4.208952590008266,1636.369996445021,None,1633.1680997869698,None,space,-2.93628974002786,4.237518343958072,None,1633.1680997869698,None,1633.1680997869698,None,,,,,,,,,1,2022_Mar_31_1536,SAR-soap,2021.1.2,60.15914345053484,
115,Trial # 111,Group1-stimuli/group1-block1/fake-group2-b1/encoded_Group2_IMG_5433.jpg,0,encoded_Group2_IMG_5433.jpg,,,,,0.0,110.0,110.0,110.0,,,,,,,,,,,,,,,,,,,,,,,,,,,,,,,,,,,,,1637.4368672519922,None,1637.4368672519922,None,1637.4368672519922,None,1.0,2.1663265880197287,1637.4368672519922,None,1637.4368672519922,None,1.0,2.9889821449760348,1639.1540603119647,None,1637.4368672519922,None,1.0,3.827641475945711,1639.9880426399177,None,1637.4368672519922,None,space,-2.2845673579722643,3.859639597008936,None,1637.4368672519922,None,1637.4368672519922,None,,,,,,,,,1,2022_Mar_31_1536,SAR-soap,2021.1.2,60.15914345053484,
116,Trial # 112,Group1-stimuli/group1-block1/real-group1-b1/Group1_IMG_0252.jpg,1,Group1_IMG_0252.jpg,,,,,0.0,111.0,111.0,111.0,,,,,,,,,,,,,,,,,,,,,,,,,,,,,,,,,,,,,1641.3216859059175,None,1641.3216859059175,None,1641.3216859059175,None,2.0,2.783460272010416,1641.3216859059175,None,1641.3216859059175,None,1.0,3.539148760959506,1643.65536384203,None,1641.3216859059175,None,1.0,4.37942887400277,1644.4223764219787,None,1641.3216859059175,None,space,-2.3189462890150025,4.4098041279939935,None,1641.3216859059175,None,1641.3216859059175,None,,,,,,,,,1,2022_Mar_31_1536,SAR-soap,2021.1.2,60.15914345053484,
117,Trial # 113,Group1-stimuli/group1-block1/real-group1-b1/Group1_IMG_9720.jpg,1,Group1_IMG_9720.jpg,,,,,0.0,112.0,112.0,112.0,,,,,,,,,,,,,,,,,,,,,,,,,,,,,,,,,,,,,1645.7566404129611,None,1645.7566404129611,None,1645.7566404129611,None,4.0,8.062232235912234,1645.7566404129611,None,1645.7566404129611,None,4.0,9.601457422948442,1650.8415910209296,None,1645.7566404129611,None,5.0,11.107548919972032,1654.9091182840057,None,1645.7566404129611,None,space,-7.03289285406936,11.131600760971196,None,1645.7566404129611,None,1645.7566404129611,None,,,,,,,,,1,2022_Mar_31_1536,SAR-soap,2021.1.2,60.15914345053484,
118,Trial # 114,Group1-stimuli/group1-block1/fake-group2-b1/encoded_Group2_IMG_0550.jpg,0,encoded_Group2_IMG_0550.jpg,,,,,0.0,113.0,113.0,113.0,,,,,,,,,,,,,,,,,,,,,,,,,,,,,,,,,,,,,1656.909455864923,None,1656.909455864923,None,1656.909455864923,None,1.0,1.91673182498198,1656.909455864923,None,1656.909455864923,None,1.0,2.4736144320340827,1658.376510838978,None,1656.909455864923,None,1.0,3.046725827967748,1658.943350486923,None,1656.909455864923,None,space,-1.6853292979067191,3.07660312904045,None,1656.909455864923,None,1656.909455864923,None,,,,,,,,,1,2022_Mar_31_1536,SAR-soap,2021.1.2,60.15914345053484,
119,Trial # 115,Group1-stimuli/group1-block1/real-group1-b1/Group1_IMG_9915.jpg,1,Group1_IMG_9915.jpg,,,,,0.0,114.0,114.0,114.0,,,,,,,,,,,,,,,,,,,,,,,,,,,,,,,,,,,,,1660.0104652500013,None,1660.0104652500013,None,1660.0104652500013,None,1.0,2.026712825056165,1660.0104652500013,None,1660.0104652500013,None,1.0,2.6988366420846432,1661.5623260040302,None,1660.0104652500013,None,1.0,3.503913485095836,1662.2606004669797,None,1660.0104652500013,None,space,-2.0998354469193146,3.52701268484816,None,1660.0104652500013,None,1660.0104652500013,None,,,,,,,,,1,2022_Mar_31_1536,SAR-soap,2021.1.2,60.15914345053484,
120,Trial # 116,Group1-stimuli/group1-block1/real-group1-b1/Group1_IMG_9850.jpg,1,Group1_IMG_9850.jpg,,,,,0.0,115.0,115.0,115.0,,,,,,,,,,,,,,,,,,,,,,,,,,,,,,,,,,,,,1663.5610176880143,None,1663.5610176880143,None,1663.5610176880143,None,1.0,3.316634444054216,1663.5610176880143,None,1663.5610176880143,None,1.0,4.805434137000702,1666.4301689210115,None,1663.5610176880143,None,1.0,5.47672401892487,1667.9290751490043,None,1663.5610176880143,None,space,-3.786603758926504,5.5062714809319,None,1663.5610176880143,None,1663.5610176880143,None,,,,,,,,,1,2022_Mar_31_1536,SAR-soap,2021.1.2,60.15914345053484,
121,Trial # 117,Group1-stimuli/group1-block1/real-group1-b1/Group1_IMG_3579.jpg,1,Group1_IMG_3579.jpg,,,,,0.0,116.0,116.0,116.0,,,,,,,,,,,,,,,,,,,,,,,,,,,,,,,,,,,,,1669.1795924159233,None,1669.1795924159233,None,1669.1795924159233,None,4.0,6.907086521969177,1669.1795924159233,None,1669.1795924159233,None,3.0,3.4111464549787343,1670.997779572033,None,1669.1795924159233,None,4.0,10.752707156934775,1672.1474434339907,None,1669.1795924159233,None,space,0.1168672599596902,10.771746056852862,None,1669.1795924159233,None,1669.1795924159233,None,,,,,,,,,1,2022_Mar_31_1536,SAR-soap,2021.1.2,60.15914345053484,
122,Trial # 118,Group1-stimuli/group1-block1/fake-group2-b1/encoded_Group2_IMG_0377.jpg,0,encoded_Group2_IMG_0377.jpg,,,,,0.0,117.0,117.0,117.0,,,,,,,,,,,,,,,,,,,,,,,,,,,,,,,,,,,,,1680.1509179139975,None,1680.1509179139975,None,1680.1509179139975,None,1.0,2.292503695935011,1680.1509179139975,None,1680.1509179139975,None,1.0,2.916303322068416,1681.9842756430153,None,1680.1509179139975,None,1.0,4.354182324022986,1682.6176195769804,None,1680.1509179139975,None,space,-3.065981560968794,4.378989054006524,None,1680.1509179139975,None,1680.1509179139975,None,,,,,,,,,1,2022_Mar_31_1536,SAR-soap,2021.1.2,60.15914345053484,
123,Trial # 119,Group1-stimuli/group1-block1/real-group1-b1/Group1_IMG_0469.jpg,1,Group1_IMG_0469.jpg,,,,,0.0,118.0,118.0,118.0,,,,,,,,,,,,,,,,,,,,,,,,,,,,,,,,,,,,,1684.5343913419638,None,1684.5343913419638,None,1684.5343913419638,None,1.0,1.513575679040514,1684.5343913419638,None,1684.5343913419638,None,1.0,1.9360157940536735,1685.601741781924,None,1684.5343913419638,None,1.0,2.408539370051585,1686.035596842994,None,1684.5343913419638,None,space,0.2029362260363996,2.433856129879132,None,1684.5343913419638,None,1684.5343913419638,None,,,,,,,,,1,2022_Mar_31_1536,SAR-soap,2021.1.2,60.15914345053484,
124,Trial # 120,Group1-stimuli/group1-block1/fake-group2-b1/encoded_Group2_IMG_0100.jpg,0,encoded_Group2_IMG_0100.jpg,,,,,0.0,119.0,119.0,119.0,,,,,,,,,,,,,,,,,,,,,,,,,,,,,,,,,,,,,1687.2353406050242,None,1687.2353406050242,None,1687.2353406050242,None,1.0,1.3871338969329372,1687.2353406050242,None,1687.2353406050242,None,1.0,2.6434842890594155,1688.1691941589816,None,1687.2353406050242,None,1.0,3.350832198979333,1689.436701299972,None,1687.2353406050242,None,space,0.4078387670451775,3.368566249962896,None,1687.2353406050242,None,1687.2353406050242,None,,,,,,,,,1,2022_Mar_31_1536,SAR-soap,2021.1.2,60.15914345053484,
125,Trial # 121,Group1-stimuli/group1-block1/real-group1-b1/Group1_IMG_5359.jpg,1,Group1_IMG_5359.jpg,,,,,0.0,120.0,120.0,120.0,,,,,,,,,,,,,,,,,,,,,,,,,,,,,,,,,,,,,1691.070150621934,None,1691.070150621934,None,1691.070150621934,None,2.0,6.528625229955651,1691.070150621934,None,1691.070150621934,None,2.0,5.000299795996398,1692.9204966719262,None,1691.070150621934,None,3.0,7.674122289055958,1694.5546532529406,None,1691.070150621934,None,space,0.2317778749857098,7.699137961957604,None,1691.070150621934,None,1691.070150621934,None,,,,,,,,,1,2022_Mar_31_1536,SAR-soap,2021.1.2,60.15914345053484,
126,Trial # 122,Group1-stimuli/group1-block1/fake-group2-b1/encoded_Group2_IMG_0304.jpg,0,encoded_Group2_IMG_0304.jpg,,,,,0.0,121.0,121.0,121.0,,,,,,,,,,,,,,,,,,,,,,,,,,,,,,,,,,,,,1699.0386200919747,None,1699.0386200919747,None,1699.0386200919747,None,6.0,4.825314867077395,1699.0386200919747,None,1699.0386200919747,None,3.0,6.932275632978417,1700.6407982259989,None,1699.0386200919747,None,4.0,8.803756810026243,1701.7235959899845,None,1699.0386200919747,None,space,0.0177232369314879,8.82682327600196,None,1699.0386200919747,None,1699.0386200919747,None,,,,,,,,,1,2022_Mar_31_1536,SAR-soap,2021.1.2,60.15914345053484,
127,Trial # 123,Group1-stimuli/group1-block1/real-group1-b1/Group1_IMG_0306.jpg,1,Group1_IMG_0306.jpg,,,,,0.0,122.0,122.0,122.0,,,,,,,,,,,,,,,,,,,,,,,,,,,,,,,,,,,,,1707.9253064289223,None,1707.9253064289223,None,1707.9253064289223,None,5.0,3.1835675420006737,1707.9253064289223,None,1707.9253064289223,None,4.0,5.739098716061562,1710.6602568170056,None,1707.9253064289223,None,4.0,8.879551029996946,1711.393117737025,None,1707.9253064289223,None,space,0.4155721110291779,8.909661087905988,None,1707.9253064289223,None,1707.9253064289223,None,,,,,,,,,1,2022_Mar_31_1536,SAR-soap,2021.1.2,60.15914345053484,
128,Trial # 124,Group1-stimuli/group1-block1/real-group1-b1/Group1_IMG_0224.jpg,1,Group1_IMG_0224.jpg,,,,,0.0,123.0,123.0,123.0,,,,,,,,,,,,,,,,,,,,,,,,,,,,,,,,,,,,,1717.2945532100275,None,1717.2945532100275,None,1717.2945532100275,None,4.0,3.752027185983025,1717.2945532100275,None,1717.2945532100275,None,3.0,4.391261214041151,1719.3118921229616,None,1717.2945532100275,None,4.0,6.3301627760520205,1721.246680976008,None,1717.2945532100275,None,space,1.756795626017265,6.362904479028657,None,1717.2945532100275,None,1717.2945532100275,None,,,,,,,,,1,2022_Mar_31_1536,SAR-soap,2021.1.2,60.15914345053484,
129,Trial # 125,Group1-stimuli/group1-block1/real-group1-b1/Group1_IMG_9889.jpg,1,Group1_IMG_9889.jpg,,,,,0.0,124.0,124.0,124.0,,,,,,,,,,,,,,,,,,,,,,,,,,,,,,,,,,,,,1725.430832349928,None,1725.430832349928,None,1725.430832349928,None,1.0,2.761933474917896,1725.430832349928,None,1725.430832349928,None,1.0,3.7844595249043778,1727.747975277016,None,1725.430832349928,None,1.0,4.690485059982166,1728.7809683909873,None,1725.430832349928,None,space,-2.625571095966734,4.717687908909284,None,1725.430832349928,None,1725.430832349928,None,,,,,,,,,1,2022_Mar_31_1536,SAR-soap,2021.1.2,60.15914345053484,
130,Trial # 126,Group1-stimuli/group1-block1/real-group1-b1/Group1_IMG_0293.jpg,1,Group1_IMG_0293.jpg,,,,,0.0,125.0,125.0,125.0,,,,,,,,,,,,,,,,,,,,,,,,,,,,,,,,,,,,,1730.1990956859663,None,1730.1990956859663,None,1730.1990956859663,None,1.0,2.043168424977921,1730.1990956859663,None,1730.1990956859663,None,1.0,2.799401027034037,1731.7837687169667,None,1730.1990956859663,None,1.0,3.605200252961368,1732.5501878790092,None,1730.1990956859663,None,space,-2.468358504935168,3.6299630228895694,None,1730.1990956859663,None,1730.1990956859663,None,,,,,,,,,1,2022_Mar_31_1536,SAR-soap,2021.1.2,60.15914345053484,
131,Trial # 127,Group1-stimuli/group1-block1/fake-group2-b1/encoded_Group2_IMG_0321.jpg,0,encoded_Group2_IMG_0321.jpg,,,,,0.0,126.0,126.0,126.0,,,,,,,,,,,,,,,,,,,,,,,,,,,,,,,,,,,,,1733.8323852400065,None,1733.8323852400065,None,1733.8323852400065,None,2.0,2.3818202950060368,1733.8323852400065,None,1733.8323852400065,None,1.0,3.270017759059556,1735.7674387060106,None,1733.8323852400065,None,1.0,3.9766648471122608,1736.667634614976,None,1733.8323852400065,None,space,-2.366165231913328,4.00330215098802,None,1733.8323852400065,None,1733.8323852400065,None,,,,,,,,,1,2022_Mar_31_1536,SAR-soap,2021.1.2,60.15914345053484,
132,Trial # 128,Group1-stimuli/group1-block1/fake-group2-b1/encoded_Group2_IMG_0400.jpg,0,encoded_Group2_IMG_0400.jpg,,,,,0.0,127.0,127.0,127.0,,,,,,,,,,,,,,,,,,,,,,,,,,,,,,,,,,,,,1737.8503733109685,None,1737.8503733109685,None,1737.8503733109685,None,4.0,3.614313503028825,1737.8503733109685,None,1737.8503733109685,None,3.0,2.620947788003832,1739.034185438999,None,1737.8503733109685,None,4.0,6.124982268083841,1740.0353396249702,None,1737.8503733109685,None,space,2.016651026089676,4.3542149340501055,None,1737.8503733109685,None,1737.8503733109685,None,,,,,,,,,1,2022_Mar_31_1536,SAR-soap,2021.1.2,60.15914345053484,
133,Trial # 129,Group1-stimuli/group1-block1/fake-group2-b1/encoded_Group2_IMG_0443.jpg,0,encoded_Group2_IMG_0443.jpg,,,,,0.0,128.0,128.0,128.0,,,,,,,,,,,,,,,,,,,,,,,,,,,,,,,,,,,,,1744.2689051029738,None,1744.2689051029738,None,1744.2689051029738,None,7.0,3.451578384032473,1744.2689051029738,None,1744.2689051029738,None,7.0,4.190732830087654,1745.954552878975,None,1744.2689051029738,None,7.0,5.999006503960118,1748.0202419200214,None,1744.2689051029738,None,space,1.605108103947714,5.596326018916443,None,1744.2689051029738,None,1744.2689051029738,None,,,,,,,,,1,2022_Mar_31_1536,SAR-soap,2021.1.2,60.15914345053484,
134,Trial # 130,Group1-stimuli/group1-block1/fake-group2-b1/encoded_Group2_IMG_0542.jpg,0,encoded_Group2_IMG_0542.jpg,,,,,0.0,129.0,129.0,129.0,,,,,,,,,,,,,,,,,,,,,,,,,,,,,,,,,,,,,1751.5051611789968,None,1751.5051611789968,None,1751.5051611789968,None,2.0,2.096457466017455,1751.5051611789968,None,1751.5051611789968,None,1.0,2.8857248809654266,1753.1555784249213,None,1751.5051611789968,None,1.0,3.658888409030624,1753.9555274730085,None,1751.5051611789968,None,space,-0.7227467879420146,3.687481014989317,None,1751.5051611789968,None,1751.5051611789968,None,,,,,,,,,1,2022_Mar_31_1536,SAR-soap,2021.1.2,60.15914345053484,
135,Trial # 131,Group1-stimuli/group1-block1/real-group1-b1/Group1_IMG_0885.jpg,1,Group1_IMG_0885.jpg,,,,,0.0,130.0,130.0,130.0,,,,,,,,,,,,,,,,,,,,,,,,,,,,,,,,,,,,,1755.2238157129614,None,1755.2238157129614,None,1755.2238157129614,None,7.0,3.934311287011951,1755.2238157129614,None,1755.2238157129614,None,7.0,4.857367021031678,1758.7083719909424,None,1755.2238157129614,None,7.0,6.0646064770407975,1759.6424949179636,None,1755.2238157129614,None,space,0.6873441770439968,6.09581722097937,None,1755.2238157129614,None,1755.2238157129614,None,,,,,,,,,1,2022_Mar_31_1536,SAR-soap,2021.1.2,60.15914345053484,
136,Trial # 132,Group1-stimuli/group1-block1/real-group1-b1/Group1_IMG_0375.jpg,1,Group1_IMG_0375.jpg,,,,,0.0,131.0,131.0,131.0,,,,,,,,,,,,,,,,,,,,,,,,,,,,,,,,,,,,,1762.0421686270274,None,1762.0421686270274,None,1762.0421686270274,None,1.0,1.9932968859793616,1762.0421686270274,None,1762.0421686270274,None,1.0,2.681486723944545,1763.575562358019,None,1762.0421686270274,None,1.0,3.7229184900643295,1764.2757934760302,None,1762.0421686270274,None,space,0.3303806270705536,3.746471917955205,None,1762.0421686270274,None,1762.0421686270274,None,,,,,,,,,1,2022_Mar_31_1536,SAR-soap,2021.1.2,60.15914345053484,
137,Trial # 133,Group1-stimuli/group1-block1/fake-group2-b1/encoded_Group2_IMG_7351.jpg,0,encoded_Group2_IMG_7351.jpg,,,,,0.0,132.0,132.0,132.0,,,,,,,,,,,,,,,,,,,,,,,,,,,,,,,,,,,,,1766.1270033179317,None,1766.1270033179317,None,1766.1270033179317,None,4.0,4.221017380012199,1766.1270033179317,None,1766.1270033179317,None,3.0,6.143480331986211,1768.8612765079597,None,1766.1270033179317,None,5.0,7.982998564024456,1771.845511663938,None,1766.1270033179317,None,space,0.1698835039278492,8.018514855997637,None,1766.1270033179317,None,1766.1270033179317,None,,,,,,,,,1,2022_Mar_31_1536,SAR-soap,2021.1.2,60.15914345053484,
138,Trial # 134,Group1-stimuli/group1-block1/fake-group2-b1/encoded_Group2_IMG_0416.jpg,0,encoded_Group2_IMG_0416.jpg,,,,,0.0,133.0,133.0,133.0,,,,,,,,,,,,,,,,,,,,,,,,,,,,,,,,,,,,,1774.3620575959794,None,1774.3620575959794,None,1774.3620575959794,None,7.0,4.428854134050198,1774.3620575959794,None,1774.3620575959794,None,7.0,4.918965324060991,1778.347769074957,None,1774.3620575959794,None,1.0,6.091526807984337,1778.8474112229887,None,1774.3620575959794,None,space,0.8019046710105613,6.118774296017364,None,1774.3620575959794,None,1774.3620575959794,None,,,,,,,,,1,2022_Mar_31_1536,SAR-soap,2021.1.2,60.15914345053484,
139,Trial # 135,Group1-stimuli/group1-block1/fake-group2-b1/encoded_Group2_IMG_0139.jpg,0,encoded_Group2_IMG_0139.jpg,,,,,0.0,134.0,134.0,134.0,,,,,,,,,,,,,,,,,,,,,,,,,,,,,,,,,,,,,1781.3487470309483,None,1781.3487470309483,None,1781.3487470309483,None,1.0,2.678361197002232,1781.3487470309483,None,1781.3487470309483,None,1.0,3.300163028994575,1783.5650008799275,None,1781.3487470309483,None,1.0,4.572764451964758,1784.1984035409987,None,1781.3487470309483,None,space,0.4146009699907154,4.600061521981843,None,1781.3487470309483,None,1781.3487470309483,None,,,,,,,,,1,2022_Mar_31_1536,SAR-soap,2021.1.2,60.15914345053484,
140,Trial # 136,Group1-stimuli/group1-block1/real-group1-b1/Group1_IMG_9677.jpg,1,Group1_IMG_9677.jpg,,,,,0.0,135.0,135.0,135.0,,,,,,,,,,,,,,,,,,,,,,,,,,,,,,,,,,,,,1786.3828692919342,None,1786.3828692919342,None,1786.3828692919342,None,2.0,7.0142154939239845,1786.3828692919342,None,1786.3828692919342,None,1.0,3.819180350052193,1787.5993335079402,None,1786.3828692919342,None,2.0,8.76015581493266,1788.3998561949702,None,1786.3828692919342,None,space,0.7913080130238086,8.286210569902323,None,1786.3828692919342,None,1786.3828692919342,None,,,,,,,,,1,2022_Mar_31_1536,SAR-soap,2021.1.2,60.15914345053484,
141,Trial # 137,Group1-stimuli/group1-block1/fake-group2-b1/encoded_Group2_IMG_5982.jpg,0,encoded_Group2_IMG_5982.jpg,,,,,0.0,136.0,136.0,136.0,,,,,,,,,,,,,,,,,,,,,,,,,,,,,,,,,,,,,1795.5191605549771,None,1795.5191605549771,None,1795.5191605549771,None,1.0,1.6442639760207385,1795.5191605549771,None,1795.5191605549771,None,1.0,2.301271731965244,1796.7032353979305,None,1795.5191605549771,None,1.0,2.87176151399035,1797.3698505660286,None,1795.5191605549771,None,space,0.192668374045752,2.8969306270591915,None,1795.5191605549771,None,1795.5191605549771,None,,,,,,,,,1,2022_Mar_31_1536,SAR-soap,2021.1.2,60.15914345053484,
142,Trial # 138,Group1-stimuli/group1-block1/fake-group2-b1/encoded_Group2_IMG_1144.jpg,0,encoded_Group2_IMG_1144.jpg,,,,,0.0,137.0,137.0,137.0,,,,,,,,,,,,,,,,,,,,,,,,,,,,,,,,,,,,,1798.6198465969646,None,1798.6198465969646,None,1798.6198465969646,None,7.0,5.597808502963744,1798.6198465969646,None,1798.6198465969646,None,7.0,6.4385103159584105,1800.2538712680107,None,1798.6198465969646,None,7.0,7.743318001041189,1800.954646455939,None,1798.6198465969646,None,space,0.6215998870320618,7.403968525934033,None,1798.6198465969646,None,1798.6198465969646,None,,,,,,,,,1,2022_Mar_31_1536,SAR-soap,2021.1.2,60.15914345053484,
143,Trial # 139,Group1-stimuli/group1-block1/fake-group2-b1/encoded_Group2_IMG_0315.jpg,0,encoded_Group2_IMG_0315.jpg,,,,,0.0,138.0,138.0,138.0,,,,,,,,,,,,,,,,,,,,,,,,,,,,,,,,,,,,,1806.689181730966,None,1806.689181730966,None,1806.689181730966,None,2.0,6.360666060005315,1806.689181730966,None,1806.689181730966,None,1.0,2.197837807936594,1808.0063997840043,None,1806.689181730966,None,4.0,5.2698799630161375,1808.4389466659632,None,1806.689181730966,None,space,4.0215787179768085,2.7250555648934096,None,1806.689181730966,None,1806.689181730966,None,,,,,,,,,1,2022_Mar_31_1536,SAR-soap,2021.1.2,60.15914345053484,
144,Trial # 140,Group1-stimuli/group1-block1/real-group1-b1/Group1_IMG_130.jpg,1,Group1_IMG_130.jpg,,,,,0.0,139.0,139.0,139.0,,,,,,,,,,,,,,,,,,,,,,,,,,,,,,,,,,,,,1813.4737078560283,None,1813.4737078560283,None,1813.4737078560283,None,7.0,2.861998982029036,1813.4737078560283,None,1813.4737078560283,None,7.0,3.5179150169715285,1815.8760313999371,None,1813.4737078560283,None,2.0,4.524241694016382,1816.543037449941,None,1813.4737078560283,None,space,1.1145202899351716,4.549805309856311,None,1813.4737078560283,None,1813.4737078560283,None,,,,,,,,,1,2022_Mar_31_1536,SAR-soap,2021.1.2,60.15914345053484,
145,Trial # 141,Group1-stimuli/group1-block1/real-group1-b1/Group1_IMG_0024.jpg,1,Group1_IMG_0024.jpg,,,,,0.0,140.0,140.0,140.0,,,,,,,,,,,,,,,,,,,,,,,,,,,,,,,,,,,,,1819.1757590569323,None,1819.1757590569323,None,1819.1757590569323,None,4.0,4.160240147029981,1819.1757590569323,None,1819.1757590569323,None,5.0,5.950801350059919,1822.878101454,None,1819.1757590569323,None,6.0,8.655192369944416,1824.679029978928,None,1819.1757590569323,None,space,0.0304895299486815,8.67871729284525,None,1819.1757590569323,None,1819.1757590569323,None,,,,,,,,,1,2022_Mar_31_1536,SAR-soap,2021.1.2,60.15914345053484,
146,Trial # 142,Group1-stimuli/group1-block1/fake-group2-b1/encoded_Group2_IMG_5012.jpg,0,encoded_Group2_IMG_5012.jpg,,,,,0.0,141.0,141.0,141.0,,,,,,,,,,,,,,,,,,,,,,,,,,,,,,,,,,,,,1827.912175653968,None,1827.912175653968,None,1827.912175653968,None,4.0,3.1703651980496943,1827.912175653968,None,1827.912175653968,None,2.0,4.076110034016892,1829.2122106369352,None,1827.912175653968,None,1.0,5.014155621058308,1831.547175457934,None,1827.912175653968,None,space,0.4484566949540749,5.048152132891119,None,1827.912175653968,None,1827.912175653968,None,,,,,,,,,1,2022_Mar_31_1536,SAR-soap,2021.1.2,60.15914345053484,
147,Trial # 143,Group1-stimuli/group1-block1/fake-group2-b1/encoded_Group2_IMG_0209.jpg,0,encoded_Group2_IMG_0209.jpg,,,,,0.0,142.0,142.0,142.0,,,,,,,,,,,,,,,,,,,,,,,,,,,,,,,,,,,,,1833.430050135008,None,1833.430050135008,None,1833.430050135008,None,1.0,1.4453663940075785,1833.430050135008,None,1833.430050135008,None,1.0,2.317636926076375,1834.415039854008,None,1833.430050135008,None,1.0,2.957587655982934,1835.3144052409332,None,1833.430050135008,None,space,0.1889262730255723,2.982939831912517,None,1833.430050135008,None,1833.430050135008,None,,,,,,,,,1,2022_Mar_31_1536,SAR-soap,2021.1.2,60.15914345053484,
148,Trial # 144,Group1-stimuli/group1-block1/real-group1-b1/Group1_IMG_0373.jpg,1,Group1_IMG_0373.jpg,,,,,0.0,143.0,143.0,143.0,,,,,,,,,,,,,,,,,,,,,,,,,,,,,,,,,,,,,1836.6481861689824,None,1836.6481861689824,None,1836.6481861689824,None,1.0,2.011340158060193,1836.6481861689824,None,1836.6481861689824,None,1.0,2.799706124002114,1838.1994568079244,None,1836.6481861689824,None,1.0,3.305332003044896,1838.998141295975,None,1836.6481861689824,None,space,0.4538521169451996,3.3331022210186347,None,1836.6481861689824,None,1836.6481861689824,None,,,,,,,,,1,2022_Mar_31_1536,SAR-soap,2021.1.2,60.15914345053484,
149,Trial # 145,Group1-stimuli/group1-block1/real-group1-b1/Group1_IMG_5899.jpg,1,Group1_IMG_5899.jpg,,,,,0.0,144.0,144.0,144.0,,,,,,,,,,,,,,,,,,,,,,,,,,,,,,,,,,,,,1840.449887907016,None,1840.449887907016,None,1840.449887907016,None,2.0,2.0292197110829875,1840.449887907016,None,1840.449887907016,None,2.0,4.235757386079058,1842.0339919369435,None,1840.449887907016,None,3.0,6.574905487010256,1844.250063905958,None,1840.449887907016,None,space,-2.967491402057931,6.601715215947479,None,1840.449887907016,None,1840.449887907016,None,,,,,,,,,1,2022_Mar_31_1536,SAR-soap,2021.1.2,60.15914345053484,
150,Trial # 146,Group1-stimuli/group1-block1/real-group1-b1/Group1_IMG_0162.jpg,1,Group1_IMG_0162.jpg,,,,,0.0,145.0,145.0,145.0,,,,,,,,,,,,,,,,,,,,,,,,,,,,,,,,,,,,,1847.0849530040289,None,1847.0849530040289,None,1847.0849530040289,None,6.0,6.3309719930402935,1847.0849530040289,None,1847.0849530040289,None,6.0,8.836469864938408,1849.470717784017,None,1847.0849530040289,None,4.0,10.176390844979323,1854.503996789921,None,1847.0849530040289,None,space,-10.17151724989526,10.201225380878896,None,1847.0849530040289,None,1847.0849530040289,None,,,,,,,,,1,2022_Mar_31_1536,SAR-soap,2021.1.2,60.15914345053484,
151,Trial # 147,Group1-stimuli/group1-block1/real-group1-b1/Group1_IMG_0543.jpg,1,Group1_IMG_0543.jpg,,,,,0.0,146.0,146.0,146.0,,,,,,,,,,,,,,,,,,,,,,,,,,,,,,,,,,,,,1857.2873578559372,None,1857.2873578559372,None,1857.2873578559372,None,1.0,2.26295712008141,1857.2873578559372,None,1857.2873578559372,None,1.0,2.8197828609263524,1859.105036866968,None,1857.2873578559372,None,1.0,3.791249178932048,1859.6720919529907,None,1857.2873578559372,None,space,1.985657606041059,3.8190062849316746,None,1857.2873578559372,None,1857.2873578559372,None,,,,,,,,,1,2022_Mar_31_1536,SAR-soap,2021.1.2,60.15914345053484,
152,Trial # 148,Group1-stimuli/group1-block1/fake-group2-b1/encoded_Group2_IMG_0355.jpg,0,encoded_Group2_IMG_0355.jpg,,,,,0.0,147.0,147.0,147.0,,,,,,,,,,,,,,,,,,,,,,,,,,,,,,,,,,,,,1863.1224066939903,None,1863.1224066939903,None,1863.1224066939903,None,1.0,3.681301395990886,1863.1224066939903,None,1863.1224066939903,None,1.0,4.23701991699636,1866.3581986969805,None,1863.1224066939903,None,3.0,5.242844364023767,1866.924765307922,None,1863.1224066939903,None,space,0.1250259050866589,5.270780907943845,None,1863.1224066939903,None,1863.1224066939903,None,,,,,,,,,1,2022_Mar_31_1536,SAR-soap,2021.1.2,60.15914345053484,
153,Trial # 149,Group1-stimuli/group1-block1/real-group1-b1/Group1_IMG_9765.jpg,1,Group1_IMG_9765.jpg,,,,,0.0,148.0,148.0,148.0,,,,,,,,,,,,,,,,,,,,,,,,,,,,,,,,,,,,,1868.5578102240104,None,1868.5578102240104,None,1868.5578102240104,None,7.0,2.8444215148920198,1868.5578102240104,None,1868.5578102240104,None,7.0,3.667033939971589,1870.94358955801,None,1868.5578102240104,None,7.0,9.34178138198331,1871.775934849982,None,1868.5578102240104,None,space,0.2850081599317491,9.366662707878277,None,1868.5578102240104,None,1868.5578102240104,None,,,,,,,,,1,2022_Mar_31_1536,SAR-soap,2021.1.2,60.15914345053484,
154,Trial # 150,Group1-stimuli/group1-block1/fake-group2-b1/encoded_Group2_IMG_1378.jpg,0,encoded_Group2_IMG_1378.jpg,,,,,0.0,149.0,149.0,149.0,,,,,,,,,,,,,,,,,,,,,,,,,,,,,,,,,,,,,1878.2276035629911,None,1878.2276035629911,None,1878.2276035629911,None,5.0,5.682048483984545,1878.2276035629911,None,1878.2276035629911,None,4.0,7.822117579053156,1881.280511704972,None,1878.2276035629911,None,6.0,9.394558508996852,1885.613536546938,None,1878.2276035629911,None,space,0.0201672780094668,9.42196831991896,None,1878.2276035629911,None,1878.2276035629911,None,,,,,,,,,1,2022_Mar_31_1536,SAR-soap,2021.1.2,60.15914345053484,
155,Trial # 1,Group1-stimuli/group1-block2/fake-group2-b2/encoded_Group2_IMG_0155.jpg,0,encoded_Group2_IMG_0155.jpg,,,,,,,,,0.0,0.0,0.0,0.0,,,,,,,,,,,,,,,,,,,,,,,,,,,,,,,,,2213.348068616935,None,2213.348068616935,None,2213.348068616935,None,5.0,2.5074740439886227,2213.348068616935,None,2213.348068616935,None,4.0,3.096733338898048,2215.398676253972,None,2213.348068616935,None,4.0,5.367648349958472,2215.999419810949,None,2213.348068616935,None,space,0.7596895809983835,5.389217993011698,None,2213.348068616935,None,2213.348068616935,None,2211.2480989720207,None,2211.2480989720207,None,2211.2480989720207,None,1887.1977052310249,None,1,2022_Mar_31_1536,SAR-soap,2021.1.2,60.15914345053484,
156,Trial # 2,Group1-stimuli/group1-block2/real-group1-b2/Group1_IMG_0519.jpg,1,Group1_IMG_0519.jpg,,,,,,,,,0.0,1.0,1.0,1.0,,,,,,,,,,,,,,,,,,,,,,,,,,,,,,,,,2219.53211273998,None,2219.53211273998,None,2219.53211273998,None,2.0,2.6408109520561998,2219.53211273998,None,2219.53211273998,None,2.0,4.429471907904372,2221.7170103410026,None,2219.53211273998,None,4.0,6.269697063020431,2222.6503904389683,None,2219.53211273998,None,space,1.3553285929374397,5.823674830957316,None,2219.53211273998,None,2219.53211273998,None,,,,,,,,,1,2022_Mar_31_1536,SAR-soap,2021.1.2,60.15914345053484,
157,Trial # 3,Group1-stimuli/group1-block2/fake-group2-b2/encoded_Group2_IMG_0135.jpg,0,encoded_Group2_IMG_0135.jpg,,,,,,,,,0.0,2.0,2.0,2.0,,,,,,,,,,,,,,,,,,,,,,,,,,,,,,,,,2226.752635353944,None,2226.752635353944,None,2226.752635353944,None,1.0,1.5940307069104165,2226.752635353944,None,2226.752635353944,None,1.0,2.3825252880342305,2227.886117988033,None,2226.752635353944,None,1.0,2.989008318982087,2228.686287824996,None,2226.752635353944,None,space,0.1077600700082257,3.012744106934406,None,2226.752635353944,None,2226.752635353944,None,,,,,,,,,1,2022_Mar_31_1536,SAR-soap,2021.1.2,60.15914345053484,
158,Trial # 4,Group1-stimuli/group1-block2/real-group1-b2/Group1_IMG_5310.jpg,1,Group1_IMG_5310.jpg,,,,,,,,,0.0,3.0,3.0,3.0,,,,,,,,,,,,,,,,,,,,,,,,,,,,,,,,,2229.920401979005,None,2229.920401979005,None,2229.920401979005,None,3.0,2.392118677031249,2229.920401979005,None,2229.920401979005,None,4.0,5.266254327027127,2231.8532987380167,None,2229.920401979005,None,5.0,6.6376691539771855,2234.738034246024,None,2229.920401979005,None,space,0.2796826290432364,6.659795465879142,None,2229.920401979005,None,2229.920401979005,None,,,,,,,,,1,2022_Mar_31_1536,SAR-soap,2021.1.2,60.15914345053484,
159,Trial # 5,Group1-stimuli/group1-block2/real-group1-b2/Group1_IMG_0522.jpg,1,Group1_IMG_0522.jpg,,,,,,,,,0.0,4.0,4.0,4.0,,,,,,,,,,,,,,,,,,,,,,,,,,,,,,,,,2236.9052693520207,None,2236.9052693520207,None,2236.9052693520207,None,3.0,4.662446954054758,2236.9052693520207,None,2236.9052693520207,None,2.0,15.552922816947104,2239.4385431009578,None,2236.9052693520207,None,3.0,17.092760054045357,2252.009684904944,None,2236.9052693520207,None,space,-12.278427173034288,17.11755236389581,None,2236.9052693520207,None,2236.9052693520207,None,,,,,,,,,1,2022_Mar_31_1536,SAR-soap,2021.1.2,60.15914345053484,
160,Trial # 6,Group1-stimuli/group1-block2/fake-group2-b2/encoded_Group2_IMG_0484.jpg,0,encoded_Group2_IMG_0484.jpg,,,,,,,,,0.0,5.0,5.0,5.0,,,,,,,,,,,,,,,,,,,,,,,,,,,,,,,,,2254.0267319689738,None,2254.0267319689738,None,2254.0267319689738,None,1.0,1.8153174510225651,2254.0267319689738,None,2254.0267319689738,None,1.0,2.370616499101743,2255.394197704969,None,2254.0267319689738,None,1.0,3.309659604099579,2255.961292870925,None,2254.0267319689738,None,space,-1.997863351018168,3.338413986028172,None,2254.0267319689738,None,2254.0267319689738,None,,,,,,,,,1,2022_Mar_31_1536,SAR-soap,2021.1.2,60.15914345053484,
161,Trial # 7,Group1-stimuli/group1-block2/fake-group2-b2/encoded_Group2_IMG_5948.jpg,0,encoded_Group2_IMG_5948.jpg,,,,,,,,,0.0,6.0,6.0,6.0,,,,,,,,,,,,,,,,,,,,,,,,,,,,,,,,,2257.3777436310197,None,2257.3777436310197,None,2257.3777436310197,None,1.0,2.0291439599823207,2257.3777436310197,None,2257.3777436310197,None,1.0,2.7178927259519696,2258.9614023190225,None,2257.3777436310197,None,1.0,3.692374561098404,2259.662332030013,None,2257.3777436310197,None,space,0.5872645339695737,3.718847130076029,None,2257.3777436310197,None,2257.3777436310197,None,,,,,,,,,1,2022_Mar_31_1536,SAR-soap,2021.1.2,60.15914345053484,
162,Trial # 8,Group1-stimuli/group1-block2/fake-group2-b2/encoded_Group2_IMG_3591.jpg,0,encoded_Group2_IMG_3591.jpg,,,,,,,,,0.0,7.0,7.0,7.0,,,,,,,,,,,,,,,,,,,,,,,,,,,,,,,,,2261.71354123496,None,2261.71354123496,None,2261.71354123496,None,1.0,1.980941810994409,2261.71354123496,None,2261.71354123496,None,1.0,2.6038831539917737,2263.246141319978,None,2261.71354123496,None,1.0,3.342683471972123,2263.8794091779278,None,2261.71354123496,None,space,0.3555110929301008,3.372869596001692,None,2261.71354123496,None,2261.71354123496,None,,,,,,,,,1,2022_Mar_31_1536,SAR-soap,2021.1.2,60.15914345053484,
