,Trial_num,image_path,ground_truth,image_name,demos.thisRepN,demos.thisTrialN,demos.thisN,demos.thisIndex,block_1.thisRepN,block_1.thisTrialN,block_1.thisN,block_1.thisIndex,block_2.thisRepN,block_2.thisTrialN,block_2.thisN,block_2.thisIndex,text_3.started,text_3.stopped,Task.started,Task.stopped,text_10.started,text_10.stopped,key_resp.keys,key_resp.rt,key_resp.started,key_resp.stopped,image_2.started,image_2.stopped,text_5.started,text_5.stopped,image_3.started,image_3.stopped,text_6.started,text_6.stopped,translucency.started,translucency.stopped,see_throughness.started,see_throughness.stopped,glow.started,glow.stopped,key_resp_10.keys,key_resp_10.rt,key_resp_10.started,key_resp_10.stopped,instruction.started,instruction.stopped,text_12.started,text_12.stopped,Trial_number.started,Trial_number.stopped,image.started,image.stopped,Instruction.started,Instruction.stopped,translucency_score.response,translucency_score.rt,translucency_score.started,translucency_score.stopped,Translucency.started,Translucency.stopped,seethroughness_score.response,seethroughness_score.rt,seethroughness_score.started,seethroughness_score.stopped,SeeThroughness.started,SeeThroughness.stopped,glow_score.response,glow_score.rt,glow_score.started,glow_score.stopped,Glow.started,Glow.stopped,to_next.keys,to_next.rt,to_next.started,to_next.stopped,grading_label_left.started,grading_label_left.stopped,grading_label_right.started,grading_label_right.stopped,instruct1.started,instruct1.stopped,instruct2.started,instruct2.stopped,text_4.started,text_4.stopped,text_2.started,text_2.stopped,session,date,expName,psychopyVersion,frameRate,Unnamed: 94
0,,,,,,,,,,,,,,,,,33.469060664996505,None,36.06954001891427,None,59.64308533794247,None,space,53.68691904190928,64.6117879759986,None,,,,,,,,,,,,,,,,,,,,,,,,,,,,,,,,,,,,,,,,,,,,,,,,,,,,,,,,,,,,,,,1,2022_Apr_12_1149,SAR-soap,2021.1.2,60.009636433369245,
1,,,,,,,,,,,,,,,,,,,,,,,,,,,118.81156540708616,None,118.81156540708616,None,133.61738697998226,None,133.61738697998226,None,146.6361234819051,None,146.6361234819051,None,146.6361234819051,None,space,38.550588398939,146.6361234819051,None,,,,,,,,,,,,,,,,,,,,,,,,,,,,,,,,,,,,,,,,,,,,,1,2022_Apr_12_1149,SAR-soap,2021.1.2,60.009636433369245,
2,Demo 1,demo/Demo_IMG_0974.jpg,demo,Demo_IMG_0974.jpg,0.0,0.0,0.0,0.0,,,,,,,,,,,,,,,,,,,,,,,,,,,,,,,,,,,,,146.6361234819051,None,185.2198378450703,None,189.51677680690773,None,189.51677680690773,None,189.51677680690773,None,7.0,12.73883140203543,189.51677680690773,None,189.51677680690773,None,6.0,17.463439642218873,201.78737759497017,None,189.51677680690773,None,5.0,21.036783766932786,206.5224769229535,None,189.51677680690773,None,space,2.041588433086872,21.05937800440006,None,189.51677680690773,None,189.51677680690773,None,,,,,,,,,1,2022_Apr_12_1149,SAR-soap,2021.1.2,60.009636433369245,
3,Demo 2,demo/Demo_IMG_1024.jpg,demo,Demo_IMG_1024.jpg,0.0,1.0,1.0,1.0,,,,,,,,,,,,,,,,,,,,,,,,,,,,,,,,,,,,,,,,,212.70790488505736,None,212.70790488505736,None,212.70790488505736,None,1.0,3.0036451250780374,212.70790488505736,None,212.70790488505736,None,1.0,4.1260118540376425,215.2583751711063,None,212.70790488505736,None,1.0,5.099239092087373,216.39161361008885,None,212.70790488505736,None,space,1.0051263740751892,5.117860332131386,None,212.70790488505736,None,212.70790488505736,None,,,,,,,,,1,2022_Apr_12_1149,SAR-soap,2021.1.2,60.009636433369245,
4,Demo 3,demo/Demo_seed_80003.png,demo,Demo_seed_80003.png,0.0,2.0,2.0,2.0,,,,,,,,,,,,,,,,,,,,,,,,,,,,,,,,,,,,,,,,,218.94280727789737,None,218.94280727789737,None,218.94280727789737,None,7.0,8.889280708972365,218.94280727789737,None,218.94280727789737,None,6.0,9.794905190123243,224.6454899390228,None,218.94280727789737,None,6.0,12.599493627203628,228.29609143198468,None,218.94280727789737,None,space,0.8992265521083027,12.63512116461061,None,218.94280727789737,None,218.94280727789737,None,,,,,,,,,1,2022_Apr_12_1149,SAR-soap,2021.1.2,60.009636433369245,
5,Trial # 1,Group1-stimuli/group1-block1/real-group1-b1/Group1_IMG_0022.jpg,1,Group1_IMG_0022.jpg,,,,,0.0,0.0,0.0,0.0,,,,,,,,,,,,,,,,,,,,,,,,,,,,,,,,,,,,,249.6183714880608,None,249.6183714880608,None,249.6183714880608,None,2.0,4.465076508000493,249.6183714880608,None,249.6183714880608,None,1.0,8.770817958051339,252.75437552202493,None,249.6183714880608,None,2.0,10.709171809954569,257.955865788972,None,249.6183714880608,None,space,0.7955055830534548,10.73719935771078,None,249.6183714880608,None,249.6183714880608,None,232.46363540110175,None,232.46363540110175,None,232.46363540110175,None,,,1,2022_Apr_12_1149,SAR-soap,2021.1.2,60.009636433369245,
6,Trial # 2,Group1-stimuli/group1-block1/fake-group2-b1/encoded_Group2_IMG_0386.jpg,0,encoded_Group2_IMG_0386.jpg,,,,,0.0,1.0,1.0,1.0,,,,,,,,,,,,,,,,,,,,,,,,,,,,,,,,,,,,,261.1892129450571,None,261.1892129450571,None,261.1892129450571,None,1.0,5.725108640035614,261.1892129450571,None,261.1892129450571,None,1.0,10.84987364592962,266.4571511000395,None,261.1892129450571,None,1.0,13.85642589093186,271.59174393699504,None,261.1892129450571,None,space,0.6587407388724387,13.87899985583499,None,261.1892129450571,None,261.1892129450571,None,,,,,,,,,1,2022_Apr_12_1149,SAR-soap,2021.1.2,60.009636433369245,
7,Trial # 3,Group1-stimuli/group1-block1/real-group1-b1/Group1_IMG_9704.jpg,1,Group1_IMG_9704.jpg,,,,,0.0,2.0,2.0,2.0,,,,,,,,,,,,,,,,,,,,,,,,,,,,,,,,,,,,,275.7600851689931,None,275.7600851689931,None,275.7600851689931,None,1.0,2.1239744098857045,275.7600851689931,None,275.7600851689931,None,1.0,2.947533993050456,277.42805328103714,None,275.7600851689931,None,1.0,3.718342100037262,278.26125823007897,None,275.7600851689931,None,space,0.4559993632137775,3.739170316839591,None,275.7600851689931,None,275.7600851689931,None,,,,,,,,,1,2022_Apr_12_1149,SAR-soap,2021.1.2,60.009636433369245,
8,Trial # 4,Group1-stimuli/group1-block1/real-group1-b1/Group1_IMG_0406.jpg,1,Group1_IMG_0406.jpg,,,,,0.0,3.0,3.0,3.0,,,,,,,,,,,,,,,,,,,,,,,,,,,,,,,,,,,,,279.9949166090228,None,279.9949166090228,None,279.9949166090228,None,4.0,25.49803162110038,279.9949166090228,None,279.9949166090228,None,1.0,16.50131814694032,285.079841098981,None,279.9949166090228,None,1.0,17.37274491903372,296.05019350210205,None,279.9949166090228,None,space,10.527723500970753,17.39404239365831,None,279.9949166090228,None,279.9949166090228,None,,,,,,,,,1,2022_Apr_12_1149,SAR-soap,2021.1.2,60.009636433369245,
9,Trial # 5,Group1-stimuli/group1-block1/fake-group2-b1/encoded_Group2_IMG_0364.jpg,0,encoded_Group2_IMG_0364.jpg,,,,,0.0,4.0,4.0,4.0,,,,,,,,,,,,,,,,,,,,,,,,,,,,,,,,,,,,,307.9541008360684,None,307.9541008360684,None,307.9541008360684,None,1.0,9.928473610896615,307.9541008360684,None,307.9541008360684,None,1.0,11.117666742997244,317.4245730880648,None,307.9541008360684,None,1.0,12.05533999716863,318.623864301946,None,307.9541008360684,None,space,0.1984050339087844,12.079378914786504,None,307.9541008360684,None,307.9541008360684,None,,,,,,,,,1,2022_Apr_12_1149,SAR-soap,2021.1.2,60.009636433369245,
10,Trial # 6,Group1-stimuli/group1-block1/fake-group2-b1/encoded_Group2_IMG_0407.jpg,0,encoded_Group2_IMG_0407.jpg,,,,,0.0,5.0,5.0,5.0,,,,,,,,,,,,,,,,,,,,,,,,,,,,,,,,,,,,,320.2567264260724,None,320.2567264260724,None,320.2567264260724,None,2.0,5.759689482860267,320.2567264260724,None,320.2567264260724,None,1.0,8.699780988041312,321.924289040966,None,320.2567264260724,None,2.0,10.038560569984838,328.510976386955,None,320.2567264260724,None,space,0.2316829848568886,10.063320816727355,None,320.2567264260724,None,320.2567264260724,None,,,,,,,,,1,2022_Apr_12_1149,SAR-soap,2021.1.2,60.009636433369245,
11,Trial # 7,Group1-stimuli/group1-block1/real-group1-b1/Group1_IMG_0428.jpg,1,Group1_IMG_0428.jpg,,,,,0.0,6.0,6.0,6.0,,,,,,,,,,,,,,,,,,,,,,,,,,,,,,,,,,,,,330.57689638389274,None,330.57689638389274,None,330.57689638389274,None,7.0,4.641613370971754,330.57689638389274,None,330.57689638389274,None,5.0,7.481478814966977,332.34557299199514,None,330.57689638389274,None,4.0,12.687771840021014,337.6131928970572,None,330.57689638389274,None,space,0.2364347039256245,12.710733666550368,None,330.57689638389274,None,330.57689638389274,None,,,,,,,,,1,2022_Apr_12_1149,SAR-soap,2021.1.2,60.009636433369245,
12,Trial # 8,Group1-stimuli/group1-block1/fake-group2-b1/encoded_Group2_IMG_0474.jpg,0,encoded_Group2_IMG_0474.jpg,,,,,0.0,7.0,7.0,7.0,,,,,,,,,,,,,,,,,,,,,,,,,,,,,,,,,,,,,343.5813803479541,None,343.5813803479541,None,343.5813803479541,None,1.0,1.9262945752125236,343.5813803479541,None,343.5813803479541,None,1.0,2.6821013391017914,345.0490594659932,None,343.5813803479541,None,1.0,3.4876777220051736,345.8157465578988,None,343.5813803479541,None,space,0.3887278570327908,3.5111493507865816,None,343.5813803479541,None,343.5813803479541,None,,,,,,,,,1,2022_Apr_12_1149,SAR-soap,2021.1.2,60.009636433369245,
13,Trial # 9,Group1-stimuli/group1-block1/fake-group2-b1/encoded_Group2_IMG_1506.jpg,0,encoded_Group2_IMG_1506.jpg,,,,,0.0,8.0,8.0,8.0,,,,,,,,,,,,,,,,,,,,,,,,,,,,,,,,,,,,,347.51582585508004,None,347.51582585508004,None,347.51582585508004,None,7.0,1.87630507000722,347.51582585508004,None,347.51582585508004,None,7.0,2.8315166051033884,348.9328206279315,None,347.51582585508004,None,4.0,5.638172456994653,349.8994972179644,None,347.51582585508004,None,space,0.2625082950107753,5.662136610597372,None,347.51582585508004,None,347.51582585508004,None,,,,,,,,,1,2022_Apr_12_1149,SAR-soap,2021.1.2,60.009636433369245,
14,Trial # 10,Group1-stimuli/group1-block1/real-group1-b1/Group1_IMG_9789.jpg,1,Group1_IMG_9789.jpg,,,,,0.0,9.0,9.0,9.0,,,,,,,,,,,,,,,,,,,,,,,,,,,,,,,,,,,,,353.4684364160057,None,353.4684364160057,None,353.4684364160057,None,1.0,3.504054961027577,353.4684364160057,None,353.4684364160057,None,1.0,4.528225977905095,356.5185412908904,None,353.4684364160057,None,1.0,5.29973486601375,357.5524291989859,None,353.4684364160057,None,space,0.3477639590855688,5.319314903812483,None,353.4684364160057,None,353.4684364160057,None,,,,,,,,,1,2022_Apr_12_1149,SAR-soap,2021.1.2,60.009636433369245,
15,Trial # 11,Group1-stimuli/group1-block1/real-group1-b1/Group1_IMG_9778.jpg,1,Group1_IMG_9778.jpg,,,,,0.0,10.0,10.0,10.0,,,,,,,,,,,,,,,,,,,,,,,,,,,,,,,,,,,,,359.18639646610245,None,359.18639646610245,None,359.18639646610245,None,7.0,1.6907727839425206,359.18639646610245,None,359.18639646610245,None,5.0,4.431347504956648,360.41973922098987,None,359.18639646610245,None,3.0,17.140260281972587,362.4705884899013,None,359.18639646610245,None,space,7.770037882961333,9.99328939872794,None,359.18639646610245,None,359.18639646610245,None,,,,,,,,,1,2022_Apr_12_1149,SAR-soap,2021.1.2,60.009636433369245,
16,Trial # 12,Group1-stimuli/group1-block1/real-group1-b1/Group1_IMG_9813.jpg,1,Group1_IMG_9813.jpg,,,,,0.0,11.0,11.0,11.0,,,,,,,,,,,,,,,,,,,,,,,,,,,,,,,,,,,,,377.0076104190666,None,377.0076104190666,None,377.0076104190666,None,1.0,2.7073769508861005,377.0076104190666,None,377.0076104190666,None,1.0,3.329244338907301,379.2588997599669,None,377.0076104190666,None,1.0,4.535100512206554,379.8922690649051,None,377.0076104190666,None,space,0.4392253940459341,4.555533863836899,None,377.0076104190666,None,377.0076104190666,None,,,,,,,,,1,2022_Apr_12_1149,SAR-soap,2021.1.2,60.009636433369245,
17,Trial # 13,Group1-stimuli/group1-block1/real-group1-b1/Group1_IMG_0516.jpg,1,Group1_IMG_0516.jpg,,,,,0.0,12.0,12.0,12.0,,,,,,,,,,,,,,,,,,,,,,,,,,,,,,,,,,,,,382.0597658569459,None,382.0597658569459,None,382.0597658569459,None,7.0,3.974983831867576,382.0597658569459,None,382.0597658569459,None,5.0,6.799817128106952,385.5784013180528,None,382.0597658569459,None,7.0,9.10379179683514,387.34523971402086,None,382.0597658569459,None,space,1.950695855077356,7.859399224398658,None,382.0597658569459,None,382.0597658569459,None,,,,,,,,,1,2022_Apr_12_1149,SAR-soap,2021.1.2,60.009636433369245,
18,Trial # 14,Group1-stimuli/group1-block1/fake-group2-b1/encoded_Group2_IMG_0038.jpg,0,encoded_Group2_IMG_0038.jpg,,,,,0.0,13.0,13.0,13.0,,,,,,,,,,,,,,,,,,,,,,,,,,,,,,,,,,,,,391.91310445102863,None,391.91310445102863,None,391.91310445102863,None,5.0,3.7437423961237073,391.91310445102863,None,391.91310445102863,None,1.0,8.251171209849417,395.19689272297546,None,391.91310445102863,None,4.0,12.1913512700703,398.3823022490833,None,391.91310445102863,None,space,0.4012511069886386,12.215248350519689,None,391.91310445102863,None,391.91310445102863,None,,,,,,,,,1,2022_Apr_12_1149,SAR-soap,2021.1.2,60.009636433369245,
19,Trial # 15,Group1-stimuli/group1-block1/real-group1-b1/Group1_IMG_5984.jpg,1,Group1_IMG_5984.jpg,,,,,0.0,14.0,14.0,14.0,,,,,,,,,,,,,,,,,,,,,,,,,,,,,,,,,,,,,404.5831648861058,None,404.5831648861058,None,404.5831648861058,None,1.0,2.1414711580146104,404.5831648861058,None,404.5831648861058,None,1.0,3.2482560169883072,406.2667024710681,None,404.5831648861058,None,3.0,9.02188303694129,407.3846702959854,None,404.5831648861058,None,space,5.050277419853956,4.2765258436556906,None,404.5831648861058,None,404.5831648861058,None,,,,,,,,,1,2022_Apr_12_1149,SAR-soap,2021.1.2,60.009636433369245,
20,Trial # 16,Group1-stimuli/group1-block1/real-group1-b1/Group1_IMG_0383.jpg,1,Group1_IMG_0383.jpg,,,,,0.0,15.0,15.0,15.0,,,,,,,,,,,,,,,,,,,,,,,,,,,,,,,,,,,,,413.9538448499516,None,413.9538448499516,None,413.9538448499516,None,7.0,1.8062091150786728,413.9538448499516,None,413.9538448499516,None,7.0,2.496002690866589,415.30385111807846,None,413.9538448499516,None,7.0,3.233914058189839,416.0032208669,None,413.9538448499516,None,space,0.3476766941603273,3.255424609640613,None,413.9538448499516,None,413.9538448499516,None,,,,,,,,,1,2022_Apr_12_1149,SAR-soap,2021.1.2,60.009636433369245,
21,Trial # 17,Group1-stimuli/group1-block1/fake-group2-b1/encoded_Group2_IMG_0456.jpg,0,encoded_Group2_IMG_0456.jpg,,,,,0.0,16.0,16.0,16.0,,,,,,,,,,,,,,,,,,,,,,,,,,,,,,,,,,,,,417.60402826592326,None,417.60402826592326,None,417.60402826592326,None,7.0,2.6444620930124074,417.60402826592326,None,417.60402826592326,None,5.0,4.467168407980353,419.7880725439172,None,417.60402826592326,None,5.0,7.873274229001254,421.62206233805045,None,417.60402826592326,None,space,1.0045186879578978,7.09753442578949,None,417.60402826592326,None,417.60402826592326,None,,,,,,,,,1,2022_Apr_12_1149,SAR-soap,2021.1.2,60.009636433369245,
22,Trial # 18,Group1-stimuli/group1-block1/fake-group2-b1/encoded_Group2_IMG_8390.jpg,0,encoded_Group2_IMG_8390.jpg,,,,,0.0,17.0,17.0,17.0,,,,,,,,,,,,,,,,,,,,,,,,,,,,,,,,,,,,,425.7731906750705,None,425.7731906750705,None,425.7731906750705,None,6.0,10.706448499811811,425.7731906750705,None,425.7731906750705,None,6.0,23.399381113937125,433.9760011350736,None,425.7731906750705,None,6.0,27.17369661293924,440.2774525489658,None,425.7731906750705,None,space,2.8276585589628667,26.54107592254877,None,425.7731906750705,None,425.7731906750705,None,,,,,,,,,1,2022_Apr_12_1149,SAR-soap,2021.1.2,60.009636433369245,
23,Trial # 19,Group1-stimuli/group1-block1/real-group1-b1/Group1_IMG_0011.jpg,1,Group1_IMG_0011.jpg,,,,,0.0,18.0,18.0,18.0,,,,,,,,,,,,,,,,,,,,,,,,,,,,,,,,,,,,,455.1827013900038,None,455.1827013900038,None,455.1827013900038,None,7.0,4.1745383779052645,455.1827013900038,None,455.1827013900038,None,7.0,8.115706518990919,458.9006092508789,None,455.1827013900038,None,7.0,9.520991947036237,462.8523485399783,None,455.1827013900038,None,space,0.3994987560436129,9.54183529992588,None,455.1827013900038,None,455.1827013900038,None,,,,,,,,,1,2022_Apr_12_1149,SAR-soap,2021.1.2,60.009636433369245,
24,Trial # 20,Group1-stimuli/group1-block1/fake-group2-b1/encoded_Group2_IMG_0328.jpg,0,encoded_Group2_IMG_0328.jpg,,,,,0.0,19.0,19.0,19.0,,,,,,,,,,,,,,,,,,,,,,,,,,,,,,,,,,,,,465.2023267538752,None,465.2023267538752,None,465.2023267538752,None,1.0,2.476767522050068,465.2023267538752,None,465.2023267538752,None,2.0,4.167603233130649,467.2212420240976,None,465.2023267538752,None,1.0,7.206331613939255,468.9199204610195,None,465.2023267538752,None,space,0.4818878669757396,7.231346930842847,None,465.2023267538752,None,465.2023267538752,None,,,,,,,,,1,2022_Apr_12_1149,SAR-soap,2021.1.2,60.009636433369245,
25,Trial # 21,Group1-stimuli/group1-block1/fake-group2-b1/encoded_Group2_IMG_0163.jpg,0,encoded_Group2_IMG_0163.jpg,,,,,0.0,20.0,20.0,20.0,,,,,,,,,,,,,,,,,,,,,,,,,,,,,,,,,,,,,472.9553995509632,None,472.9553995509632,None,472.9553995509632,None,7.0,1.8757923140656203,472.9553995509632,None,472.9553995509632,None,7.0,3.5820435530040413,474.371833687881,None,472.9553995509632,None,2.0,7.222486756974831,476.0891686060932,None,472.9553995509632,None,space,1.129208921920508,7.24573798594065,None,472.9553995509632,None,472.9553995509632,None,,,,,,,,,1,2022_Apr_12_1149,SAR-soap,2021.1.2,60.009636433369245,
26,Trial # 22,Group1-stimuli/group1-block1/real-group1-b1/Group1_IMG_9862.jpg,1,Group1_IMG_9862.jpg,,,,,0.0,21.0,21.0,21.0,,,,,,,,,,,,,,,,,,,,,,,,,,,,,,,,,,,,,481.3567565539852,None,481.3567565539852,None,481.3567565539852,None,1.0,1.7397927870042622,481.3567565539852,None,481.3567565539852,None,1.0,2.294782542157918,482.6421025888994,None,481.3567565539852,None,1.0,2.899900442920625,483.2077811108902,None,481.3567565539852,None,space,0.4917366318404674,2.921107852831483,None,481.3567565539852,None,481.3567565539852,None,,,,,,,,,1,2022_Apr_12_1149,SAR-soap,2021.1.2,60.009636433369245,
27,Trial # 23,Group1-stimuli/group1-block1/fake-group2-b1/encoded_Group2_IMG_0296.jpg,0,encoded_Group2_IMG_0296.jpg,,,,,0.0,22.0,22.0,22.0,,,,,,,,,,,,,,,,,,,,,,,,,,,,,,,,,,,,,484.8088496089913,None,484.8088496089913,None,484.8088496089913,None,7.0,15.71242043399252,484.8088496089913,None,484.8088496089913,None,7.0,17.65239586099051,495.26136472192593,None,484.8088496089913,None,5.0,26.125784534960985,502.0132648500148,None,484.8088496089913,None,space,0.5772613158915192,26.150012912694365,None,484.8088496089913,None,484.8088496089913,None,,,,,,,,,1,2022_Apr_12_1149,SAR-soap,2021.1.2,60.009636433369245,
28,Trial # 24,Group1-stimuli/group1-block1/fake-group2-b1/encoded_Group2_IMG_0503.jpg,0,encoded_Group2_IMG_0503.jpg,,,,,0.0,23.0,23.0,23.0,,,,,,,,,,,,,,,,,,,,,,,,,,,,,,,,,,,,,511.58235846692696,None,511.58235846692696,None,511.58235846692696,None,7.0,8.844358290079981,511.58235846692696,None,511.58235846692696,None,7.0,9.449593058088794,515.1841224080417,None,511.58235846692696,None,7.0,10.95521761314012,520.5862156429794,None,511.58235846692696,None,space,0.3340200600214302,10.979270548559724,None,511.58235846692696,None,511.58235846692696,None,,,,,,,,,1,2022_Apr_12_1149,SAR-soap,2021.1.2,60.009636433369245,
29,Trial # 25,Group1-stimuli/group1-block1/fake-group2-b1/encoded_Group2_IMG_9804.jpg,0,encoded_Group2_IMG_9804.jpg,,,,,0.0,24.0,24.0,24.0,,,,,,,,,,,,,,,,,,,,,,,,,,,,,,,,,,,,,522.9363776568789,None,522.9363776568789,None,522.9363776568789,None,1.0,1.957476757001132,522.9363776568789,None,522.9363776568789,None,1.0,3.546172016998753,524.4369324389845,None,522.9363776568789,None,2.0,17.55626886896789,526.03745544306,None,522.9363776568789,None,space,1.9695939389057455,17.579065077472478,None,522.9363776568789,None,522.9363776568789,None,,,,,,,,,1,2022_Apr_12_1149,SAR-soap,2021.1.2,60.009636433369245,
30,Trial # 26,Group1-stimuli/group1-block1/real-group1-b1/Group1_IMG_0391.jpg,1,Group1_IMG_0391.jpg,,,,,0.0,25.0,25.0,25.0,,,,,,,,,,,,,,,,,,,,,,,,,,,,,,,,,,,,,542.5428370570298,None,542.5428370570298,None,542.5428370570298,None,5.0,70.91185346408747,542.5428370570298,None,542.5428370570298,None,4.0,75.33561730897054,612.9992368409876,None,542.5428370570298,None,4.0,80.34148851898499,617.4337225789204,None,542.5428370570298,None,space,3.160129418130964,78.42714882083237,None,542.5428370570298,None,542.5428370570298,None,,,,,,,,,1,2022_Apr_12_1149,SAR-soap,2021.1.2,60.009636433369245,
31,Trial # 27,Group1-stimuli/group1-block1/fake-group2-b1/encoded_Group2_IMG_3584.jpg,0,encoded_Group2_IMG_3584.jpg,,,,,0.0,26.0,26.0,26.0,,,,,,,,,,,,,,,,,,,,,,,,,,,,,,,,,,,,,624.1676497810986,None,624.1676497810986,None,624.1676497810986,None,7.0,2.999661919893697,624.1676497810986,None,624.1676497810986,None,6.0,9.658760705962775,626.7190354410559,None,624.1676497810986,None,3.0,13.297889723908156,630.486547379056,None,624.1676497810986,None,space,1.8225067381281408,13.327789676841348,None,624.1676497810986,None,624.1676497810986,None,,,,,,,,,1,2022_Apr_12_1149,SAR-soap,2021.1.2,60.009636433369245,
32,Trial # 28,Group1-stimuli/group1-block1/fake-group2-b1/encoded_Group2_IMG_0434.jpg,0,encoded_Group2_IMG_0434.jpg,,,,,0.0,27.0,27.0,27.0,,,,,,,,,,,,,,,,,,,,,,,,,,,,,,,,,,,,,639.3554737758823,None,639.3554737758823,None,639.3554737758823,None,7.0,2.0924250239040703,639.3554737758823,None,639.3554737758823,None,7.0,3.24852755991742,640.9897639970295,None,639.3554737758823,None,7.0,3.9540225190576166,642.156476541888,None,639.3554737758823,None,space,0.4583232370205223,3.979053858667612,None,639.3554737758823,None,639.3554737758823,None,,,,,,,,,1,2022_Apr_12_1149,SAR-soap,2021.1.2,60.009636433369245,
33,Trial # 29,Group1-stimuli/group1-block1/fake-group2-b1/encoded_Group2_IMG_9575.jpg,0,encoded_Group2_IMG_9575.jpg,,,,,0.0,28.0,28.0,28.0,,,,,,,,,,,,,,,,,,,,,,,,,,,,,,,,,,,,,643.8245651419275,None,643.8245651419275,None,643.8245651419275,None,2.0,6.347936374833807,643.8245651419275,None,643.8245651419275,None,2.0,18.539303648052737,649.7270854620729,None,643.8245651419275,None,6.0,27.548759318888187,661.9293997280765,None,643.8245651419275,None,space,4.78365602507256,23.808429803466424,None,643.8245651419275,None,643.8245651419275,None,,,,,,,,,1,2022_Apr_12_1149,SAR-soap,2021.1.2,60.009636433369245,
34,Trial # 30,Group1-stimuli/group1-block1/fake-group2-b1/encoded_Group2_IMG_1025.jpg,0,encoded_Group2_IMG_1025.jpg,,,,,0.0,29.0,29.0,29.0,,,,,,,,,,,,,,,,,,,,,,,,,,,,,,,,,,,,,672.4670262730215,None,672.4670262730215,None,672.4670262730215,None,1.0,1.927270677872002,672.4670262730215,None,672.4670262730215,None,1.0,3.899467410985381,673.9332969279494,None,672.4670262730215,None,1.0,5.338684110203758,675.9172424110584,None,672.4670262730215,None,space,0.5483885249122977,5.363780988613144,None,672.4670262730215,None,672.4670262730215,None,,,,,,,,,1,2022_Apr_12_1149,SAR-soap,2021.1.2,60.009636433369245,
35,Trial # 31,Group1-stimuli/group1-block1/real-group1-b1/Group1_IMG_0502.jpg,1,Group1_IMG_0502.jpg,,,,,0.0,30.0,30.0,30.0,,,,,,,,,,,,,,,,,,,,,,,,,,,,,,,,,,,,,678.4190138829872,None,678.4190138829872,None,678.4190138829872,None,7.0,4.289968658937141,678.4190138829872,None,678.4190138829872,None,7.0,5.279808311024681,682.2539037619717,None,678.4190138829872,None,7.0,6.0500525259412825,683.2539358069189,None,678.4190138829872,None,space,0.6312144070398062,6.071671557612717,None,678.4190138829872,None,678.4190138829872,None,,,,,,,,,1,2022_Apr_12_1149,SAR-soap,2021.1.2,60.009636433369245,
36,Trial # 32,Group1-stimuli/group1-block1/real-group1-b1/Group1_IMG_0182.jpg,1,Group1_IMG_0182.jpg,,,,,0.0,31.0,31.0,31.0,,,,,,,,,,,,,,,,,,,,,,,,,,,,,,,,,,,,,685.1536516349297,None,685.1536516349297,None,685.1536516349297,None,7.0,1.972417022800073,685.1536516349297,None,685.1536516349297,None,7.0,2.528734748950228,686.6707899889443,None,685.1536516349297,None,2.0,3.436165721854195,687.2388222389854,None,685.1536516349297,None,space,0.5691032481845468,3.4555558369029318,None,685.1536516349297,None,685.1536516349297,None,,,,,,,,,1,2022_Apr_12_1149,SAR-soap,2021.1.2,60.009636433369245,
37,Trial # 33,Group1-stimuli/group1-block1/fake-group2-b1/encoded_Group2_IMG_2728.jpg,0,encoded_Group2_IMG_2728.jpg,,,,,0.0,32.0,32.0,32.0,,,,,,,,,,,,,,,,,,,,,,,,,,,,,,,,,,,,,689.2220872060861,None,689.2220872060861,None,689.2220872060861,None,4.0,4.164392048958689,689.2220872060861,None,689.2220872060861,None,2.0,15.207587639102712,692.9396073450334,None,689.2220872060861,None,2.0,21.548064788803455,703.9931469210424,None,689.2220872060861,None,space,1.4946789569221437,20.308970844605938,None,689.2220872060861,None,689.2220872060861,None,,,,,,,,,1,2022_Apr_12_1149,SAR-soap,2021.1.2,60.009636433369245,
38,Trial # 34,Group1-stimuli/group1-block1/fake-group2-b1/encoded_Group2_IMG_4867.jpg,0,encoded_Group2_IMG_4867.jpg,,,,,0.0,33.0,33.0,33.0,,,,,,,,,,,,,,,,,,,,,,,,,,,,,,,,,,,,,711.0447825740557,None,711.0447825740557,None,711.0447825740557,None,7.0,2.079921258147806,711.0447825740557,None,711.0447825740557,None,7.0,3.702847374835983,712.6792222929653,None,711.0447825740557,None,4.0,9.543529401067644,714.3131584739313,None,711.0447825740557,None,space,2.062324129976332,8.805428952677175,None,711.0447825740557,None,711.0447825740557,None,,,,,,,,,1,2022_Apr_12_1149,SAR-soap,2021.1.2,60.009636433369245,
39,Trial # 35,Group1-stimuli/group1-block1/real-group1-b1/Group1_IMG_9894.jpg,1,Group1_IMG_9894.jpg,,,,,0.0,34.0,34.0,34.0,,,,,,,,,,,,,,,,,,,,,,,,,,,,,,,,,,,,,721.9640587549657,None,721.9640587549657,None,721.9640587549657,None,1.0,1.9793709740042689,721.9640587549657,None,721.9640587549657,None,1.0,2.6363284778781235,723.4988594790921,None,721.9640587549657,None,1.0,3.240979155059904,724.165224673925,None,721.9640587549657,None,space,0.3587434629444033,3.2678943146020174,None,721.9640587549657,None,721.9640587549657,None,,,,,,,,,1,2022_Apr_12_1149,SAR-soap,2021.1.2,60.009636433369245,
40,Trial # 36,Group1-stimuli/group1-block1/fake-group2-b1/encoded_Group2_IMG_0444.jpg,0,encoded_Group2_IMG_0444.jpg,,,,,0.0,35.0,35.0,35.0,,,,,,,,,,,,,,,,,,,,,,,,,,,,,,,,,,,,,725.6160856930073,None,725.6160856930073,None,725.6160856930073,None,7.0,2.1477643358521163,725.6160856930073,None,725.6160856930073,None,4.0,8.24003681819886,727.3174117130693,None,725.6160856930073,None,2.0,10.444213901879266,729.9177540210076,None,725.6160856930073,None,space,0.5771772619336843,10.473052037879825,None,725.6160856930073,None,725.6160856930073,None,,,,,,,,,1,2022_Apr_12_1149,SAR-soap,2021.1.2,60.009636433369245,
41,Trial # 37,Group1-stimuli/group1-block1/real-group1-b1/Group1_IMG_2656.jpg,1,Group1_IMG_2656.jpg,,,,,0.0,36.0,36.0,36.0,,,,,,,,,,,,,,,,,,,,,,,,,,,,,,,,,,,,,736.8024710230529,None,736.8024710230529,None,736.8024710230529,None,1.0,2.554348995909095,736.8024710230529,None,736.8024710230529,None,1.0,4.6419417599681765,738.9043187089264,None,736.8024710230529,None,1.0,7.915295768994838,741.0038050499279,None,736.8024710230529,None,space,5.460119821131229,7.950892926426604,None,736.8024710230529,None,736.8024710230529,None,,,,,,,,,1,2022_Apr_12_1149,SAR-soap,2021.1.2,60.009636433369245,
42,Trial # 38,Group1-stimuli/group1-block1/real-group1-b1/Group1_IMG_0207.jpg,1,Group1_IMG_0207.jpg,,,,,0.0,37.0,37.0,37.0,,,,,,,,,,,,,,,,,,,,,,,,,,,,,,,,,,,,,750.2733668310102,None,750.2733668310102,None,750.2733668310102,None,2.0,17.850236672908068,750.2733668310102,None,750.2733668310102,None,2.0,15.95479826303199,751.9076132320333,None,750.2733668310102,None,2.0,14.559471596963704,753.6749150010291,None,750.2733668310102,None,space,5.466108040884137,14.585165487602351,None,750.2733668310102,None,750.2733668310102,None,,,,,,,,,1,2022_Apr_12_1149,SAR-soap,2021.1.2,60.009636433369245,
43,Trial # 39,Group1-stimuli/group1-block1/real-group1-b1/Group1_IMG_9638.jpg,1,Group1_IMG_9638.jpg,,,,,0.0,38.0,38.0,38.0,,,,,,,,,,,,,,,,,,,,,,,,,,,,,,,,,,,,,770.4799475970212,None,770.4799475970212,None,770.4799475970212,None,7.0,2.1684945821762085,770.4799475970212,None,770.4799475970212,None,7.0,3.4587826600763947,772.1969126940239,None,770.4799475970212,None,7.0,7.731220888905227,773.49731191108,None,770.4799475970212,None,space,2.148997147800401,5.831320696976036,None,770.4799475970212,None,770.4799475970212,None,,,,,,,,,1,2022_Apr_12_1149,SAR-soap,2021.1.2,60.009636433369245,
44,Trial # 40,Group1-stimuli/group1-block1/real-group1-b1/Group1_IMG_0148.jpg,1,Group1_IMG_0148.jpg,,,,,0.0,39.0,39.0,39.0,,,,,,,,,,,,,,,,,,,,,,,,,,,,,,,,,,,,,778.4995515530463,None,778.4995515530463,None,778.4995515530463,None,7.0,1.9216625280678272,778.4995515530463,None,778.4995515530463,None,7.0,2.51237477385439,779.9667010500561,None,778.4995515530463,None,6.0,3.4158528689295053,780.5665842620656,None,778.4995515530463,None,space,2.721824797103181,3.436833530664444,None,778.4995515530463,None,778.4995515530463,None,,,,,,,,,1,2022_Apr_12_1149,SAR-soap,2021.1.2,60.009636433369245,
45,Trial # 41,Group1-stimuli/group1-block1/real-group1-b1/Group1_IMG_2891.jpg,1,Group1_IMG_2891.jpg,,,,,0.0,40.0,40.0,40.0,,,,,,,,,,,,,,,,,,,,,,,,,,,,,,,,,,,,,784.7345993719064,None,784.7345993719064,None,784.7345993719064,None,3.0,7.629079866921529,784.7345993719064,None,784.7345993719064,None,3.0,15.70475120190531,787.218031273922,None,784.7345993719064,None,3.0,19.945370322093368,794.9881079848856,None,784.7345993719064,None,space,0.6287001890596002,19.97040363471024,None,784.7345993719064,None,784.7345993719064,None,,,,,,,,,1,2022_Apr_12_1149,SAR-soap,2021.1.2,60.009636433369245,
46,Trial # 42,Group1-stimuli/group1-block1/real-group1-b1/Group1_IMG_0157.jpg,1,Group1_IMG_0157.jpg,,,,,0.0,41.0,41.0,41.0,,,,,,,,,,,,,,,,,,,,,,,,,,,,,,,,,,,,,805.3575387001038,None,805.3575387001038,None,805.3575387001038,None,7.0,1.738049264997244,805.3575387001038,None,805.3575387001038,None,5.0,3.695564843947068,806.6408907750156,None,805.3575387001038,None,6.0,6.234223424922675,808.6091573180165,None,805.3575387001038,None,space,0.4694479829631746,6.255187250673771,None,805.3575387001038,None,805.3575387001038,None,,,,,,,,,1,2022_Apr_12_1149,SAR-soap,2021.1.2,60.009636433369245,
47,Trial # 43,Group1-stimuli/group1-block1/real-group1-b1/Group1_IMG_9833.jpg,1,Group1_IMG_9833.jpg,,,,,0.0,42.0,42.0,42.0,,,,,,,,,,,,,,,,,,,,,,,,,,,,,,,,,,,,,812.1418543050531,None,812.1418543050531,None,812.1418543050531,None,1.0,1.973126738099381,812.1418543050531,None,812.1418543050531,None,1.0,2.929418545914814,813.6602866090834,None,812.1418543050531,None,1.0,4.335413195891306,814.6264466599096,None,812.1418543050531,None,space,0.4334613890387118,4.354931375710294,None,812.1418543050531,None,812.1418543050531,None,,,,,,,,,1,2022_Apr_12_1149,SAR-soap,2021.1.2,60.009636433369245,
48,Trial # 44,Group1-stimuli/group1-block1/fake-group2-b1/encoded_Group2_IMG_2230.jpg,0,encoded_Group2_IMG_2230.jpg,,,,,0.0,43.0,43.0,43.0,,,,,,,,,,,,,,,,,,,,,,,,,,,,,,,,,,,,,816.9767230320722,None,816.9767230320722,None,816.9767230320722,None,7.0,1.9090710119344292,816.9767230320722,None,816.9767230320722,None,7.0,4.381197144044563,818.4291510800831,None,816.9767230320722,None,4.0,6.721384393051267,820.9126050970517,None,816.9767230320722,None,space,0.2608232139609754,6.743951794924215,None,816.9767230320722,None,816.9767230320722,None,,,,,,,,,1,2022_Apr_12_1149,SAR-soap,2021.1.2,60.009636433369245,
49,Trial # 45,Group1-stimuli/group1-block1/real-group1-b1/Group1_IMG_9966.jpg,1,Group1_IMG_9966.jpg,,,,,0.0,44.0,44.0,44.0,,,,,,,,,,,,,,,,,,,,,,,,,,,,,,,,,,,,,824.0296282169875,None,824.0296282169875,None,824.0296282169875,None,7.0,4.029161255108193,824.0296282169875,None,824.0296282169875,None,6.0,7.101435414981097,827.5984500150662,None,824.0296282169875,None,7.0,12.508252311963588,830.6815566821024,None,824.0296282169875,None,space,0.4008997580967843,12.534091875655577,None,824.0296282169875,None,824.0296282169875,None,,,,,,,,,1,2022_Apr_12_1149,SAR-soap,2021.1.2,60.009636433369245,
50,Trial # 46,Group1-stimuli/group1-block1/real-group1-b1/Group1_IMG_0239.jpg,1,Group1_IMG_0239.jpg,,,,,0.0,45.0,45.0,45.0,,,,,,,,,,,,,,,,,,,,,,,,,,,,,,,,,,,,,837.0171061879955,None,837.0171061879955,None,837.0171061879955,None,2.0,4.957017156062648,837.0171061879955,None,837.0171061879955,None,2.0,8.41367320693098,841.5185224649031,None,837.0171061879955,None,2.0,10.3863903649617,843.9867860060185,None,837.0171061879955,None,space,1.3857791270129385,9.440345238661394,None,837.0171061879955,None,837.0171061879955,None,,,,,,,,,1,2022_Apr_12_1149,SAR-soap,2021.1.2,60.009636433369245,
51,Trial # 47,Group1-stimuli/group1-block1/fake-group2-b1/encoded_Group2_IMG_0536.jpg,0,encoded_Group2_IMG_0536.jpg,,,,,0.0,46.0,46.0,46.0,,,,,,,,,,,,,,,,,,,,,,,,,,,,,,,,,,,,,847.8874416600447,None,847.8874416600447,None,847.8874416600447,None,1.0,2.277056572958827,847.8874416600447,None,847.8874416600447,None,1.0,3.5827925079502165,849.7045396859758,None,847.8874416600447,None,1.0,4.48875463497825,851.0210746668745,None,847.8874416600447,None,space,0.5059401378966868,4.514517103787512,None,847.8874416600447,None,847.8874416600447,None,,,,,,,,,1,2022_Apr_12_1149,SAR-soap,2021.1.2,60.009636433369245,
52,Trial # 48,Group1-stimuli/group1-block1/fake-group2-b1/encoded_Group2_IMG_0521.jpg,0,encoded_Group2_IMG_0521.jpg,,,,,0.0,47.0,47.0,47.0,,,,,,,,,,,,,,,,,,,,,,,,,,,,,,,,,,,,,852.9559369159397,None,852.9559369159397,None,852.9559369159397,None,7.0,2.226557749090716,852.9559369159397,None,852.9559369159397,None,7.0,5.316293441923335,854.7228890659753,None,852.9559369159397,None,6.0,7.455074774101376,857.8235959729645,None,852.9559369159397,None,space,0.3348524060565978,7.481115522561595,None,852.9559369159397,None,852.9559369159397,None,,,,,,,,,1,2022_Apr_12_1149,SAR-soap,2021.1.2,60.009636433369245,
53,Trial # 49,Group1-stimuli/group1-block1/fake-group2-b1/encoded_Group2_IMG_9924.jpg,0,encoded_Group2_IMG_9924.jpg,,,,,0.0,48.0,48.0,48.0,,,,,,,,,,,,,,,,,,,,,,,,,,,,,,,,,,,,,860.823896602029,None,860.823896602029,None,860.823896602029,None,1.0,1.893291950924322,860.823896602029,None,860.823896602029,None,1.0,2.5500327800400555,862.2592541659251,None,860.823896602029,None,1.0,3.4217539289966226,862.9249973250553,None,860.823896602029,None,space,0.4122208119370043,3.4462465485557914,None,860.823896602029,None,860.823896602029,None,,,,,,,,,1,2022_Apr_12_1149,SAR-soap,2021.1.2,60.009636433369245,
54,Trial # 50,Group1-stimuli/group1-block1/real-group1-b1/Group1_IMG_9730.jpg,1,Group1_IMG_9730.jpg,,,,,0.0,49.0,49.0,49.0,,,,,,,,,,,,,,,,,,,,,,,,,,,,,,,,,,,,,864.7252884330228,None,864.7252884330228,None,864.7252884330228,None,7.0,1.7569635440595448,864.7252884330228,None,864.7252884330228,None,6.0,3.0466088138055056,866.0254452810623,None,864.7252884330228,None,5.0,21.62299217190593,867.3265583380125,None,864.7252884330228,None,space,20.72160509112291,7.541131541831419,None,864.7252884330228,None,864.7252884330228,None,,,,,,,,,1,2022_Apr_12_1149,SAR-soap,2021.1.2,60.009636433369245,
55,Trial # 51,Group1-stimuli/group1-block1/real-group1-b1/Group1_IMG_0053.jpg,1,Group1_IMG_0053.jpg,,,,,0.0,50.0,50.0,50.0,,,,,,,,,,,,,,,,,,,,,,,,,,,,,,,,,,,,,893.0182350028772,None,893.0182350028772,None,893.0182350028772,None,1.0,5.40401323302649,893.0182350028772,None,893.0182350028772,None,1.0,6.8940769450273365,897.987148270011,None,893.0182350028772,None,1.0,7.69881272315979,899.4873662970494,None,893.0182350028772,None,space,0.2125877449288964,7.735236723674461,None,893.0182350028772,None,893.0182350028772,None,,,,,,,,,1,2022_Apr_12_1149,SAR-soap,2021.1.2,60.009636433369245,
56,Trial # 52,Group1-stimuli/group1-block1/real-group1-b1/Group1_IMG_9698.jpg,1,Group1_IMG_9698.jpg,,,,,0.0,51.0,51.0,51.0,,,,,,,,,,,,,,,,,,,,,,,,,,,,,,,,,,,,,901.01987894997,None,901.01987894997,None,901.01987894997,None,1.0,2.270475853933021,901.01987894997,None,901.01987894997,None,1.0,3.0257265481632203,902.838535863906,None,901.01987894997,None,1.0,3.731073194183409,903.6052348369268,None,901.01987894997,None,space,0.3236745330505073,3.764559786533937,None,901.01987894997,None,901.01987894997,None,,,,,,,,,1,2022_Apr_12_1149,SAR-soap,2021.1.2,60.009636433369245,
57,Trial # 53,Group1-stimuli/group1-block1/fake-group2-b1/encoded_Group2_IMG_0553.jpg,0,encoded_Group2_IMG_0553.jpg,,,,,0.0,52.0,52.0,52.0,,,,,,,,,,,,,,,,,,,,,,,,,,,,,,,,,,,,,905.1382208240684,None,905.1382208240684,None,905.1382208240684,None,1.0,2.0269301091320813,905.1382208240684,None,905.1382208240684,None,1.0,2.9164009590167552,906.7055398239754,None,905.1382208240684,None,1.0,3.5888990741223097,907.605681899935,None,905.1382208240684,None,space,0.6510795690119267,3.6140062466729432,None,905.1382208240684,None,905.1382208240684,None,,,,,,,,,1,2022_Apr_12_1149,SAR-soap,2021.1.2,60.009636433369245,
58,Trial # 54,Group1-stimuli/group1-block1/fake-group2-b1/encoded_Group2_IMG_9758.jpg,0,encoded_Group2_IMG_9758.jpg,,,,,0.0,53.0,53.0,53.0,,,,,,,,,,,,,,,,,,,,,,,,,,,,,,,,,,,,,909.4400771430228,None,909.4400771430228,None,909.4400771430228,None,7.0,1.8758550910279157,909.4400771430228,None,909.4400771430228,None,7.0,2.665072990814224,910.8563521560282,None,909.4400771430228,None,4.0,5.772491856943816,911.6567959371024,None,909.4400771430228,None,space,2.2444980130530894,3.8302781668026,None,909.4400771430228,None,909.4400771430228,None,,,,,,,,,1,2022_Apr_12_1149,SAR-soap,2021.1.2,60.009636433369245,
59,Trial # 55,Group1-stimuli/group1-block1/fake-group2-b1/encoded_Group2_IMG_0339.jpg,0,encoded_Group2_IMG_0339.jpg,,,,,0.0,54.0,54.0,54.0,,,,,,,,,,,,,,,,,,,,,,,,,,,,,,,,,,,,,915.5580084570684,None,915.5580084570684,None,915.5580084570684,None,3.0,3.877026734873653,915.5580084570684,None,915.5580084570684,None,2.0,8.551828026771545,918.9764584670776,None,915.5580084570684,None,2.0,15.824776791967452,923.6609672741032,None,915.5580084570684,None,space,3.4869619901292026,12.548637084662914,None,915.5580084570684,None,915.5580084570684,None,,,,,,,,,1,2022_Apr_12_1149,SAR-soap,2021.1.2,60.009636433369245,
60,Trial # 56,Group1-stimuli/group1-block1/real-group1-b1/Group1_IMG_0314.jpg,1,Group1_IMG_0314.jpg,,,,,0.0,55.0,55.0,55.0,,,,,,,,,,,,,,,,,,,,,,,,,,,,,,,,,,,,,931.6287335529923,None,931.6287335529923,None,931.6287335529923,None,1.0,2.8915482468437403,931.6287335529923,None,931.6287335529923,None,1.0,3.847763126017526,934.0647964898964,None,931.6287335529923,None,1.0,4.51984216296114,935.0313990439754,None,931.6287335529923,None,space,-2.5019412669353187,4.541644364828244,None,931.6287335529923,None,931.6287335529923,None,,,,,,,,,1,2022_Apr_12_1149,SAR-soap,2021.1.2,60.009636433369245,
61,Trial # 57,Group1-stimuli/group1-block1/fake-group2-b1/encoded_Group2_IMG_0532.jpg,0,encoded_Group2_IMG_0532.jpg,,,,,0.0,56.0,56.0,56.0,,,,,,,,,,,,,,,,,,,,,,,,,,,,,,,,,,,,,936.1969892170746,None,936.1969892170746,None,936.1969892170746,None,7.0,3.760469772852957,936.1969892170746,None,936.1969892170746,None,6.0,5.183466327143833,939.5001224430744,None,936.1969892170746,None,4.0,12.725495770107957,940.9324497980996,None,936.1969892170746,None,space,0.6395974059123546,12.74979533883743,None,936.1969892170746,None,936.1969892170746,None,,,,,,,,,1,2022_Apr_12_1149,SAR-soap,2021.1.2,60.009636433369245,
62,Trial # 58,Group1-stimuli/group1-block1/fake-group2-b1/encoded_Group2_IMG_0462.jpg,0,encoded_Group2_IMG_0462.jpg,,,,,0.0,57.0,57.0,57.0,,,,,,,,,,,,,,,,,,,,,,,,,,,,,,,,,,,,,949.6352257370016,None,949.6352257370016,None,949.6352257370016,None,7.0,2.676445026881993,949.6352257370016,None,949.6352257370016,None,7.0,3.399909430881962,951.852356635034,None,949.6352257370016,None,2.0,7.7732243980281055,952.5870079149026,None,949.6352257370016,None,space,4.271396088879556,4.864337515551597,None,949.6352257370016,None,949.6352257370016,None,,,,,,,,,1,2022_Apr_12_1149,SAR-soap,2021.1.2,60.009636433369245,
63,Trial # 59,Group1-stimuli/group1-block1/real-group1-b1/Group1_IMG_0172.jpg,1,Group1_IMG_0172.jpg,,,,,0.0,58.0,58.0,58.0,,,,,,,,,,,,,,,,,,,,,,,,,,,,,,,,,,,,,958.8215005749372,None,958.8215005749372,None,958.8215005749372,None,1.0,2.222867756849155,958.8215005749372,None,958.8215005749372,None,1.0,3.04567005392164,960.589127000887,None,958.8215005749372,None,1.0,3.650563878007233,961.4225772640202,None,958.8215005749372,None,space,0.4613657100126147,3.672286157961935,None,958.8215005749372,None,958.8215005749372,None,,,,,,,,,1,2022_Apr_12_1149,SAR-soap,2021.1.2,60.009636433369245,
64,Trial # 60,Group1-stimuli/group1-block1/real-group1-b1/Group1_IMG_4841.jpg,1,Group1_IMG_4841.jpg,,,,,0.0,59.0,59.0,59.0,,,,,,,,,,,,,,,,,,,,,,,,,,,,,,,,,,,,,962.9901116900146,None,962.9901116900146,None,962.9901116900146,None,7.0,6.675401147920638,962.9901116900146,None,962.9901116900146,None,7.0,7.348300877027214,964.6730538499542,None,962.9901116900146,None,7.0,8.653328626882285,966.1233175289816,None,962.9901116900146,None,space,0.4763028889428824,8.675420699641109,None,962.9901116900146,None,962.9901116900146,None,,,,,,,,,1,2022_Apr_12_1149,SAR-soap,2021.1.2,60.009636433369245,
65,Trial # 61,Group1-stimuli/group1-block1/fake-group2-b1/encoded_Group2_IMG_0352.jpg,0,encoded_Group2_IMG_0352.jpg,,,,,0.0,60.0,60.0,60.0,,,,,,,,,,,,,,,,,,,,,,,,,,,,,,,,,,,,,972.1920916270464,None,972.1920916270464,None,972.1920916270464,None,1.0,1.7290102681145072,972.1920916270464,None,972.1920916270464,None,1.0,2.6173009739723057,973.45932496991,None,972.1920916270464,None,1.0,4.223351906053722,974.3599035360384,None,972.1920916270464,None,space,0.4039922452066093,4.248275080695748,None,972.1920916270464,None,972.1920916270464,None,,,,,,,,,1,2022_Apr_12_1149,SAR-soap,2021.1.2,60.009636433369245,
66,Trial # 62,Group1-stimuli/group1-block1/fake-group2-b1/encoded_Group2_IMG_9726.jpg,0,encoded_Group2_IMG_9726.jpg,,,,,0.0,61.0,61.0,61.0,,,,,,,,,,,,,,,,,,,,,,,,,,,,,,,,,,,,,976.8929606159218,None,976.8929606159218,None,976.8929606159218,None,7.0,2.1278975838795304,976.8929606159218,None,976.8929606159218,None,7.0,2.817600775975734,978.5612992099486,None,976.8929606159218,None,3.0,7.489259254885837,979.2609426660928,None,976.8929606159218,None,space,2.1953559999819845,5.914463672786951,None,976.8929606159218,None,976.8929606159218,None,,,,,,,,,1,2022_Apr_12_1149,SAR-soap,2021.1.2,60.009636433369245,
67,Trial # 63,Group1-stimuli/group1-block1/fake-group2-b1/encoded_Group2_IMG_9785.jpg,0,encoded_Group2_IMG_9785.jpg,,,,,0.0,62.0,62.0,62.0,,,,,,,,,,,,,,,,,,,,,,,,,,,,,,,,,,,,,985.0289300789592,None,985.0289300789592,None,985.0289300789592,None,5.0,2.893747504102066,985.0289300789592,None,985.0289300789592,None,4.0,6.415548419114202,986.6133203180508,None,985.0289300789592,None,4.0,9.155640854034573,990.99728520005,None,985.0289300789592,None,space,1.7863163088914007,8.513353690737858,None,985.0289300789592,None,985.0289300789592,None,,,,,,,,,1,2022_Apr_12_1149,SAR-soap,2021.1.2,60.009636433369245,
68,Trial # 64,Group1-stimuli/group1-block1/fake-group2-b1/encoded_Group2_IMG_0440.jpg,0,encoded_Group2_IMG_0440.jpg,,,,,0.0,63.0,63.0,63.0,,,,,,,,,,,,,,,,,,,,,,,,,,,,,,,,,,,,,995.3652699131052,None,995.3652699131052,None,995.3652699131052,None,7.0,1.90913114300929,995.3652699131052,None,995.3652699131052,None,7.0,3.2816366949118674,996.817086453084,None,995.3652699131052,None,2.0,4.520586964208633,998.2009231168776,None,995.3652699131052,None,space,0.569692824035883,4.544485792750493,None,995.3652699131052,None,995.3652699131052,None,,,,,,,,,1,2022_Apr_12_1149,SAR-soap,2021.1.2,60.009636433369245,
69,Trial # 65,Group1-stimuli/group1-block1/fake-group2-b1/encoded_Group2_IMG_1695.jpg,0,encoded_Group2_IMG_1695.jpg,,,,,0.0,64.0,64.0,64.0,,,,,,,,,,,,,,,,,,,,,,,,,,,,,,,,,,,,,1000.53455003188,None,1000.53455003188,None,1000.53455003188,None,1.0,2.010416187113151,1000.53455003188,None,1000.53455003188,None,1.0,2.900032510980964,1002.0845772449392,None,1000.53455003188,None,1.0,3.6719651389867063,1002.98597836704,None,1000.53455003188,None,space,0.8915441920980811,3.697103542741388,None,1000.53455003188,None,1000.53455003188,None,,,,,,,,,1,2022_Apr_12_1149,SAR-soap,2021.1.2,60.009636433369245,
70,Trial # 66,Group1-stimuli/group1-block1/real-group1-b1/Group1_IMG_0552.jpg,1,Group1_IMG_0552.jpg,,,,,0.0,65.0,65.0,65.0,,,,,,,,,,,,,,,,,,,,,,,,,,,,,,,,,,,,,1005.1526299959514,None,1005.1526299959514,None,1005.1526299959514,None,1.0,1.723951819818467,1005.1526299959514,None,1005.1526299959514,None,1.0,2.313788440078497,1006.419592648046,None,1005.1526299959514,None,1.0,2.9865940602030605,1007.0193435500842,None,1005.1526299959514,None,space,0.4773290799930691,3.008359275525436,None,1005.1526299959514,None,1005.1526299959514,None,,,,,,,,,1,2022_Apr_12_1149,SAR-soap,2021.1.2,60.009636433369245,
71,Trial # 67,Group1-stimuli/group1-block1/real-group1-b1/Group1_IMG_1029.jpg,1,Group1_IMG_1029.jpg,,,,,0.0,66.0,66.0,66.0,,,,,,,,,,,,,,,,,,,,,,,,,,,,,,,,,,,,,1008.6877569940408,None,1008.6877569940408,None,1008.6877569940408,None,7.0,2.223372797947377,1008.6877569940408,None,1008.6877569940408,None,5.0,3.379684831947088,1010.4539272158872,None,1008.6877569940408,None,3.0,8.519183435011655,1011.6214549390132,None,1008.6877569940408,None,space,0.5118390270508826,8.541947462596,None,1008.6877569940408,None,1008.6877569940408,None,,,,,,,,,1,2022_Apr_12_1149,SAR-soap,2021.1.2,60.009636433369245,
72,Trial # 68,Group1-stimuli/group1-block1/fake-group2-b1/encoded_Group2_IMG_6517.jpg,0,encoded_Group2_IMG_6517.jpg,,,,,0.0,67.0,67.0,67.0,,,,,,,,,,,,,,,,,,,,,,,,,,,,,,,,,,,,,1017.7894591290968,None,1017.7894591290968,None,1017.7894591290968,None,1.0,1.8108269860967996,1017.7894591290968,None,1017.7894591290968,None,1.0,2.333471667021513,1019.1403584210202,None,1017.7894591290968,None,1.0,3.0050996590871364,1019.67373615806,None,1017.7894591290968,None,space,0.3919371969532221,3.0291186696849763,None,1017.7894591290968,None,1017.7894591290968,None,,,,,,,,,1,2022_Apr_12_1149,SAR-soap,2021.1.2,60.009636433369245,
73,Trial # 69,Group1-stimuli/group1-block1/fake-group2-b1/encoded_Group2_IMG_0002.jpg,0,encoded_Group2_IMG_0002.jpg,,,,,0.0,68.0,68.0,68.0,,,,,,,,,,,,,,,,,,,,,,,,,,,,,,,,,,,,,1021.2400878509508,None,1021.2400878509508,None,1021.2400878509508,None,5.0,9.5284334809985,1021.2400878509508,None,1021.2400878509508,None,5.0,8.46789404307492,1022.5758614779916,None,1021.2400878509508,None,3.0,12.60644417302683,1029.2595278930385,None,1021.2400878509508,None,space,0.6656218371354043,12.63131799455732,None,1021.2400878509508,None,1021.2400878509508,None,,,,,,,,,1,2022_Apr_12_1149,SAR-soap,2021.1.2,60.009636433369245,
74,Trial # 70,Group1-stimuli/group1-block1/real-group1-b1/Group1_IMG_0495.jpg,1,Group1_IMG_0495.jpg,,,,,0.0,69.0,69.0,69.0,,,,,,,,,,,,,,,,,,,,,,,,,,,,,,,,,,,,,1034.5618970710784,None,1034.5618970710784,None,1034.5618970710784,None,1.0,2.07502955198288,1034.5618970710784,None,1034.5618970710784,None,1.0,2.7629992209840566,1036.1790993709585,None,1034.5618970710784,None,1.0,3.436760862125084,1036.878689477919,None,1034.5618970710784,None,space,0.4900501638185233,3.45941557479091,None,1034.5618970710784,None,1034.5618970710784,None,,,,,,,,,1,2022_Apr_12_1149,SAR-soap,2021.1.2,60.009636433369245,
75,Trial # 71,Group1-stimuli/group1-block1/real-group1-b1/Group1_IMG_1391.jpg,1,Group1_IMG_1391.jpg,,,,,0.0,70.0,70.0,70.0,,,,,,,,,,,,,,,,,,,,,,,,,,,,,,,,,,,,,1038.5466433570257,None,1038.5466433570257,None,1038.5466433570257,None,5.0,3.824578450992704,1038.5466433570257,None,1038.5466433570257,None,5.0,6.264574573840946,1040.9304434200749,None,1038.5466433570257,None,2.0,10.604039198020471,1044.3642955240794,None,1038.5466433570257,None,space,0.5680720158852637,10.626447395654395,None,1038.5466433570257,None,1038.5466433570257,None,,,,,,,,,1,2022_Apr_12_1149,SAR-soap,2021.1.2,60.009636433369245,
76,Trial # 72,Group1-stimuli/group1-block1/real-group1-b1/Group1_IMG_0343.jpg,1,Group1_IMG_0343.jpg,,,,,0.0,71.0,71.0,71.0,,,,,,,,,,,,,,,,,,,,,,,,,,,,,,,,,,,,,1049.7994648949243,None,1049.7994648949243,None,1049.7994648949243,None,1.0,27.030605658888817,1049.7994648949243,None,1049.7994648949243,None,1.0,27.769486263860017,1067.522246547043,None,1049.7994648949243,None,1.0,23.6416079478804,1070.8890570239164,None,1049.7994648949243,None,space,5.05320052197203,23.66285962145776,None,1049.7994648949243,None,1049.7994648949243,None,,,,,,,,,1,2022_Apr_12_1149,SAR-soap,2021.1.2,60.009636433369245,
77,Trial # 73,Group1-stimuli/group1-block1/fake-group2-b1/encoded_Group2_IMG_9810.jpg,0,encoded_Group2_IMG_9810.jpg,,,,,0.0,72.0,72.0,72.0,,,,,,,,,,,,,,,,,,,,,,,,,,,,,,,,,,,,,1078.5583947079722,None,1078.5583947079722,None,1078.5583947079722,None,1.0,2.2103485099505638,1078.5583947079722,None,1078.5583947079722,None,1.0,3.031729768961668,1080.3090387410484,None,1078.5583947079722,None,1.0,3.671264057047665,1081.1426927729044,None,1078.5583947079722,None,space,0.6202110578306019,3.6960070005152375,None,1078.5583947079722,None,1078.5583947079722,None,,,,,,,,,1,2022_Apr_12_1149,SAR-soap,2021.1.2,60.009636433369245,
78,Trial # 74,Group1-stimuli/group1-block1/fake-group2-b1/encoded_Group2_IMG_5900.jpg,0,encoded_Group2_IMG_5900.jpg,,,,,0.0,73.0,73.0,73.0,,,,,,,,,,,,,,,,,,,,,,,,,,,,,,,,,,,,,1082.9103630310856,None,1082.9103630310856,None,1082.9103630310856,None,3.0,5.677637159125879,1082.9103630310856,None,1082.9103630310856,None,2.0,14.601285113953054,1088.129108981928,None,1082.9103630310856,None,3.0,18.876334560103714,1093.0965075280983,None,1082.9103630310856,None,space,7.346226246096194,11.897722313879058,None,1082.9103630310856,None,1082.9103630310856,None,,,,,,,,,1,2022_Apr_12_1149,SAR-soap,2021.1.2,60.009636433369245,
79,Trial # 75,Group1-stimuli/group1-block1/real-group1-b1/Group1_IMG_9679.jpg,1,Group1_IMG_9679.jpg,,,,,0.0,74.0,74.0,74.0,,,,,,,,,,,,,,,,,,,,,,,,,,,,,,,,,,,,,1102.1986964570824,None,1102.1986964570824,None,1102.1986964570824,None,1.0,2.2761096078902483,1102.1986964570824,None,1102.1986964570824,None,1.0,2.9652738159056757,1104.0173751849215,None,1102.1986964570824,None,1.0,3.7048943310510367,1104.717240172904,None,1102.1986964570824,None,space,0.7540680228266865,3.72776813688688,None,1102.1986964570824,None,1102.1986964570824,None,,,,,,,,,1,2022_Apr_12_1149,SAR-soap,2021.1.2,60.009636433369245,
80,Trial # 76,Group1-stimuli/group1-block1/fake-group2-b1/encoded_Group2_IMG_4249.jpg,0,encoded_Group2_IMG_4249.jpg,,,,,0.0,75.0,75.0,75.0,,,,,,,,,,,,,,,,,,,,,,,,,,,,,,,,,,,,,1106.7170604169369,None,1106.7170604169369,None,1106.7170604169369,None,7.0,2.411552748177201,1106.7170604169369,None,1106.7170604169369,None,6.0,6.984276601113379,1108.6680156819057,None,1106.7170604169369,None,2.0,11.790725140133873,1113.2536384069826,None,1106.7170604169369,None,space,1.2608794400002807,11.816449391655624,None,1106.7170604169369,None,1106.7170604169369,None,,,,,,,,,1,2022_Apr_12_1149,SAR-soap,2021.1.2,60.009636433369245,
81,Trial # 77,Group1-stimuli/group1-block1/fake-group2-b1/encoded_Group2_IMG_0174.jpg,0,encoded_Group2_IMG_0174.jpg,,,,,0.0,76.0,76.0,76.0,,,,,,,,,,,,,,,,,,,,,,,,,,,,,,,,,,,,,1119.8049718448892,None,1119.8049718448892,None,1119.8049718448892,None,2.0,5.482138657942414,1119.8049718448892,None,1119.8049718448892,None,2.0,8.571615932974964,1124.8398980919735,None,1119.8049718448892,None,5.0,12.445212254999204,1127.9411514620297,None,1119.8049718448892,None,space,11.147758024046198,9.873677544761447,None,1119.8049718448892,None,1119.8049718448892,None,,,,,,,,,1,2022_Apr_12_1149,SAR-soap,2021.1.2,60.009636433369245,
82,Trial # 78,Group1-stimuli/group1-block1/fake-group2-b1/encoded_Group2_IMG_0475.jpg,0,encoded_Group2_IMG_0475.jpg,,,,,0.0,77.0,77.0,77.0,,,,,,,,,,,,,,,,,,,,,,,,,,,,,,,,,,,,,1140.8771953219548,None,1140.8771953219548,None,1140.8771953219548,None,1.0,1.7268534831237048,1140.8771953219548,None,1140.8771953219548,None,1.0,2.283946020063013,1142.145122860093,None,1140.8771953219548,None,1.0,2.8558024470694363,1142.7115712598898,None,1140.8771953219548,None,space,0.3653119599912315,2.879908065777272,None,1140.8771953219548,None,1140.8771953219548,None,,,,,,,,,1,2022_Apr_12_1149,SAR-soap,2021.1.2,60.009636433369245,
83,Trial # 79,Group1-stimuli/group1-block1/fake-group2-b1/encoded_Group2_IMG_9751.jpg,0,encoded_Group2_IMG_9751.jpg,,,,,0.0,78.0,78.0,78.0,,,,,,,,,,,,,,,,,,,,,,,,,,,,,,,,,,,,,1144.145483417902,None,1144.145483417902,None,1144.145483417902,None,7.0,3.526981094153598,1144.145483417902,None,1144.145483417902,None,7.0,4.249968964140862,1147.213249933906,None,1144.145483417902,None,6.0,6.189614882925525,1147.9472605069168,None,1144.145483417902,None,space,0.9319111539516598,6.212738438509405,None,1144.145483417902,None,1144.145483417902,None,,,,,,,,,1,2022_Apr_12_1149,SAR-soap,2021.1.2,60.009636433369245,
84,Trial # 80,Group1-stimuli/group1-block1/fake-group2-b1/encoded_Group2_IMG_0492.jpg,0,encoded_Group2_IMG_0492.jpg,,,,,0.0,79.0,79.0,79.0,,,,,,,,,,,,,,,,,,,,,,,,,,,,,,,,,,,,,1151.31376871909,None,1151.31376871909,None,1151.31376871909,None,1.0,7.760813541011885,1151.31376871909,None,1151.31376871909,None,1.0,8.65049054287374,1158.6174283609726,None,1151.31376871909,None,1.0,9.822454188019035,1159.5172452940606,None,1151.31376871909,None,space,1.4885111870244143,9.846983588533476,None,1151.31376871909,None,1151.31376871909,None,,,,,,,,,1,2022_Apr_12_1149,SAR-soap,2021.1.2,60.009636433369245,
85,Trial # 81,Group1-stimuli/group1-block1/real-group1-b1/Group1_IMG_0535.jpg,1,Group1_IMG_0535.jpg,,,,,0.0,80.0,80.0,80.0,,,,,,,,,,,,,,,,,,,,,,,,,,,,,,,,,,,,,1162.6844520200975,None,1162.6844520200975,None,1162.6844520200975,None,2.0,5.425659478874877,1162.6844520200975,None,1162.6844520200975,None,2.0,8.81433071801439,1165.3687246579211,None,1162.6844520200975,None,2.0,10.355146861169487,1171.0533770979382,None,1162.6844520200975,None,space,0.3441507779061794,10.37698044255376,None,1162.6844520200975,None,1162.6844520200975,None,,,,,,,,,1,2022_Apr_12_1149,SAR-soap,2021.1.2,60.009636433369245,
86,Trial # 82,Group1-stimuli/group1-block1/real-group1-b1/Group1_IMG_0077.jpg,1,Group1_IMG_0077.jpg,,,,,0.0,81.0,81.0,81.0,,,,,,,,,,,,,,,,,,,,,,,,,,,,,,,,,,,,,1173.454791466007,None,1173.454791466007,None,1173.454791466007,None,7.0,2.088020784081891,1173.454791466007,None,1173.454791466007,None,7.0,4.211250938009471,1175.0878841280935,None,1173.454791466007,None,6.0,6.784942472120747,1177.2213912629522,None,1173.454791466007,None,space,0.3737138588912785,6.805612480966374,None,1173.454791466007,None,1173.454791466007,None,,,,,,,,,1,2022_Apr_12_1149,SAR-soap,2021.1.2,60.009636433369245,
87,Trial # 83,Group1-stimuli/group1-block1/fake-group2-b1/encoded_Group2_IMG_9702.jpg,0,encoded_Group2_IMG_9702.jpg,,,,,0.0,82.0,82.0,82.0,,,,,,,,,,,,,,,,,,,,,,,,,,,,,,,,,,,,,1180.6898433389142,None,1180.6898433389142,None,1180.6898433389142,None,1.0,1.9594489459414035,1180.6898433389142,None,1180.6898433389142,None,1.0,2.6841629878617823,1182.189920885954,None,1180.6898433389142,None,2.0,3.822424218058586,1182.9243965530768,None,1180.6898433389142,None,space,0.3301434691529721,3.8471565085928887,None,1180.6898433389142,None,1180.6898433389142,None,,,,,,,,,1,2022_Apr_12_1149,SAR-soap,2021.1.2,60.009636433369245,
88,Trial # 84,Group1-stimuli/group1-block1/real-group1-b1/Group1_IMG_0357.jpg,1,Group1_IMG_0357.jpg,,,,,0.0,83.0,83.0,83.0,,,,,,,,,,,,,,,,,,,,,,,,,,,,,,,,,,,,,1184.8910611520987,None,1184.8910611520987,None,1184.8910611520987,None,2.0,7.5099082191009074,1184.8910611520987,None,1184.8910611520987,None,1.0,13.384178970940413,1188.7926139109768,None,1184.8910611520987,None,1.0,6.553625334054232,1189.7264162718784,None,1184.8910611520987,None,space,7.771247200900689,6.575507033849135,None,1184.8910611520987,None,1184.8910611520987,None,,,,,,,,,1,2022_Apr_12_1149,SAR-soap,2021.1.2,60.009636433369245,
89,Trial # 85,Group1-stimuli/group1-block1/real-group1-b1/Group1_IMG_9772.jpg,1,Group1_IMG_9772.jpg,,,,,0.0,84.0,84.0,84.0,,,,,,,,,,,,,,,,,,,,,,,,,,,,,,,,,,,,,1199.2957083459478,None,1199.2957083459478,None,1199.2957083459478,None,7.0,1.8559649281669408,1199.2957083459478,None,1199.2957083459478,None,7.0,2.412006343016401,1200.6957184220664,None,1199.2957083459478,None,3.0,5.818733896128833,1201.2626734660007,None,1199.2957083459478,None,space,1.7835772798862308,4.541411744663492,None,1199.2957083459478,None,1199.2957083459478,None,,,,,,,,,1,2022_Apr_12_1149,SAR-soap,2021.1.2,60.009636433369245,
90,Trial # 86,Group1-stimuli/group1-block1/real-group1-b1/Group1_IMG_0482.jpg,1,Group1_IMG_0482.jpg,,,,,0.0,85.0,85.0,85.0,,,,,,,,,,,,,,,,,,,,,,,,,,,,,,,,,,,,,1205.664644591976,None,1205.664644591976,None,1205.664644591976,None,1.0,3.0076330590527505,1205.664644591976,None,1205.664644591976,None,1.0,4.3976386960130185,1208.2164877681062,None,1205.664644591976,None,1.0,5.437455584993586,1209.6161813579963,None,1205.664644591976,None,space,0.3065402570646256,5.458214069716632,None,1205.664644591976,None,1205.664644591976,None,,,,,,,,,1,2022_Apr_12_1149,SAR-soap,2021.1.2,60.009636433369245,
91,Trial # 87,Group1-stimuli/group1-block1/real-group1-b1/Group1_IMG_0299.jpg,1,Group1_IMG_0299.jpg,,,,,0.0,86.0,86.0,86.0,,,,,,,,,,,,,,,,,,,,,,,,,,,,,,,,,,,,,1211.4829517060425,None,1211.4829517060425,None,1211.4829517060425,None,7.0,1.873093482106924,1211.4829517060425,None,1211.4829517060425,None,7.0,2.797540141968057,1212.9002434869765,None,1211.4829517060425,None,5.0,7.035156972007826,1213.8345962460153,None,1211.4829517060425,None,space,0.4720185988117009,7.056755849625915,None,1211.4829517060425,None,1211.4829517060425,None,,,,,,,,,1,2022_Apr_12_1149,SAR-soap,2021.1.2,60.009636433369245,
92,Trial # 88,Group1-stimuli/group1-block1/fake-group2-b1/encoded_Group2_IMG_0301.jpg,0,encoded_Group2_IMG_0301.jpg,,,,,0.0,87.0,87.0,87.0,,,,,,,,,,,,,,,,,,,,,,,,,,,,,,,,,,,,,1219.06824433594,None,1219.06824433594,None,1219.06824433594,None,7.0,1.8257330819033089,1219.06824433594,None,1219.06824433594,None,7.0,2.6650255501735955,1220.4352887750138,None,1219.06824433594,None,7.0,3.3707048781216145,1221.2856902929489,None,1219.06824433594,None,space,0.7218745050486177,3.394973795861006,None,1219.06824433594,None,1219.06824433594,None,,,,,,,,,1,2022_Apr_12_1149,SAR-soap,2021.1.2,60.009636433369245,
93,Trial # 89,Group1-stimuli/group1-block1/fake-group2-b1/encoded_Group2_IMG_5136.jpg,0,encoded_Group2_IMG_5136.jpg,,,,,0.0,88.0,88.0,88.0,,,,,,,,,,,,,,,,,,,,,,,,,,,,,,,,,,,,,1223.2206782130525,None,1223.2206782130525,None,1223.2206782130525,None,7.0,2.1772165310103446,1223.2206782130525,None,1223.2206782130525,None,7.0,4.400058323983103,1224.9371140319854,None,1223.2206782130525,None,6.0,6.305536473169923,1226.27054463909,None,1223.2206782130525,None,space,0.3559851599857211,6.331043016863987,None,1223.2206782130525,None,1223.2206782130525,None,,,,,,,,,1,2022_Apr_12_1149,SAR-soap,2021.1.2,60.009636433369245,
94,Trial # 90,Group1-stimuli/group1-block1/real-group1-b1/Group1_IMG_0460.jpg,1,Group1_IMG_0460.jpg,,,,,0.0,89.0,89.0,89.0,,,,,,,,,,,,,,,,,,,,,,,,,,,,,,,,,,,,,1229.938867371995,None,1229.938867371995,None,1229.938867371995,None,7.0,2.4565552670974284,1229.938867371995,None,1229.938867371995,None,7.0,3.163169379811734,1231.9383175710682,None,1229.938867371995,None,2.0,13.172302039107308,1232.6570083459374,None,1229.938867371995,None,space,9.26214584405534,4.322958092438057,None,1229.938867371995,None,1229.938867371995,None,,,,,,,,,1,2022_Apr_12_1149,SAR-soap,2021.1.2,60.009636433369245,
95,Trial # 91,Group1-stimuli/group1-block1/fake-group2-b1/encoded_Group2_IMG_0068.jpg,0,encoded_Group2_IMG_0068.jpg,,,,,0.0,90.0,90.0,90.0,,,,,,,,,,,,,,,,,,,,,,,,,,,,,,,,,,,,,1243.559009303106,None,1243.559009303106,None,1243.559009303106,None,7.0,1.6760189009364694,1243.559009303106,None,1243.559009303106,None,7.0,2.2995532869827,1244.7774522399995,None,1243.559009303106,None,6.0,3.938543338095769,1245.4098150481004,None,1243.559009303106,None,space,1.0645941961556673,3.1620078736450523,None,1243.559009303106,None,1243.559009303106,None,,,,,,,,,1,2022_Apr_12_1149,SAR-soap,2021.1.2,60.009636433369245,
96,Trial # 92,Group1-stimuli/group1-block1/real-group1-b1/Group1_IMG_0337.jpg,1,Group1_IMG_0337.jpg,,,,,0.0,91.0,91.0,91.0,,,,,,,,,,,,,,,,,,,,,,,,,,,,,,,,,,,,,1247.8110180720687,None,1247.8110180720687,None,1247.8110180720687,None,2.0,3.05761466990225,1247.8110180720687,None,1247.8110180720687,None,2.0,4.847715022973716,1250.4122694830876,None,1247.8110180720687,None,3.0,9.387872053077444,1252.211827750085,None,1247.8110180720687,None,space,2.8690326251089573,8.109946288634092,None,1247.8110180720687,None,1247.8110180720687,None,,,,,,,,,1,2022_Apr_12_1149,SAR-soap,2021.1.2,60.009636433369245,
97,Trial # 93,Group1-stimuli/group1-block1/fake-group2-b1/encoded_Group2_IMG_0346.jpg,0,encoded_Group2_IMG_0346.jpg,,,,,0.0,92.0,92.0,92.0,,,,,,,,,,,,,,,,,,,,,,,,,,,,,,,,,,,,,1258.8482973719947,None,1258.8482973719947,None,1258.8482973719947,None,3.0,7.844653842039406,1258.8482973719947,None,1258.8482973719947,None,2.0,3.582427663961425,1260.7475417389069,None,1258.8482973719947,None,2.0,9.923612297978252,1261.9813280720264,None,1258.8482973719947,None,space,5.430191536899656,5.3795116087421775,None,1258.8482973719947,None,1258.8482973719947,None,,,,,,,,,1,2022_Apr_12_1149,SAR-soap,2021.1.2,60.009636433369245,
98,Trial # 94,Group1-stimuli/group1-block1/real-group1-b1/Group1_IMG_4253.jpg,1,Group1_IMG_4253.jpg,,,,,0.0,93.0,93.0,93.0,,,,,,,,,,,,,,,,,,,,,,,,,,,,,,,,,,,,,1269.684121316997,None,1269.684121316997,None,1269.684121316997,None,7.0,1.9399193730205295,1269.684121316997,None,1269.684121316997,None,7.0,2.562847237102688,1271.1682371399363,None,1269.684121316997,None,3.0,4.168782826047391,1271.8006574569736,None,1269.684121316997,None,space,1.0740896209608763,4.190105751622468,None,1269.684121316997,None,1269.684121316997,None,,,,,,,,,1,2022_Apr_12_1149,SAR-soap,2021.1.2,60.009636433369245,
99,Trial # 95,Group1-stimuli/group1-block1/fake-group2-b1/encoded_Group2_IMG_9280.jpg,0,encoded_Group2_IMG_9280.jpg,,,,,0.0,94.0,94.0,94.0,,,,,,,,,,,,,,,,,,,,,,,,,,,,,,,,,,,,,1275.0021549900994,None,1275.0021549900994,None,1275.0021549900994,None,7.0,2.5766626060940325,1275.0021549900994,None,1275.0021549900994,None,7.0,4.067562839947641,1277.120294003049,None,1275.0021549900994,None,6.0,7.773198298877105,1278.6212952479254,None,1275.0021549900994,None,space,1.616175726056099,7.063800330739468,None,1275.0021549900994,None,1275.0021549900994,None,,,,,,,,,1,2022_Apr_12_1149,SAR-soap,2021.1.2,60.009636433369245,
100,Trial # 96,Group1-stimuli/group1-block1/real-group1-b1/Group1_IMG_0417.jpg,1,Group1_IMG_0417.jpg,,,,,0.0,95.0,95.0,95.0,,,,,,,,,,,,,,,,,,,,,,,,,,,,,,,,,,,,,1283.7224491660018,None,1283.7224491660018,None,1283.7224491660018,None,6.0,6.10941325686872,1283.7224491660018,None,1283.7224491660018,None,6.0,9.33123177383095,1285.4557508579455,None,1283.7224491660018,None,2.0,12.370501663070172,1292.6086383669171,None,1283.7224491660018,None,space,0.8262464900035411,12.392910599708555,None,1283.7224491660018,None,1283.7224491660018,None,,,,,,,,,1,2022_Apr_12_1149,SAR-soap,2021.1.2,60.009636433369245,
101,Trial # 97,Group1-stimuli/group1-block1/fake-group2-b1/encoded_Group2_IMG_9695.jpg,0,encoded_Group2_IMG_9695.jpg,,,,,0.0,96.0,96.0,96.0,,,,,,,,,,,,,,,,,,,,,,,,,,,,,,,,,,,,,1296.9593716158995,None,1296.9593716158995,None,1296.9593716158995,None,1.0,1.6301685229409486,1296.9593716158995,None,1296.9593716158995,None,1.0,2.0857755350880325,1298.1441812769044,None,1296.9593716158995,None,1.0,2.5922861818689853,1298.6099391290918,None,1296.9593716158995,None,space,0.5819819879252464,2.6188086145557463,None,1296.9593716158995,None,1296.9593716158995,None,,,,,,,,,1,2022_Apr_12_1149,SAR-soap,2021.1.2,60.009636433369245,
102,Trial # 98,Group1-stimuli/group1-block1/real-group1-b1/Group1_IMG_1160.jpg,1,Group1_IMG_1160.jpg,,,,,0.0,97.0,97.0,97.0,,,,,,,,,,,,,,,,,,,,,,,,,,,,,,,,,,,,,1300.2100116899237,None,1300.2100116899237,None,1300.2100116899237,None,7.0,2.973824026994407,1300.2100116899237,None,1300.2100116899237,None,6.0,7.246161110000685,1301.8108016529586,None,1300.2100116899237,None,6.0,17.552743199979886,1307.0125258190092,None,1300.2100116899237,None,space,8.465582414064556,9.60632071364671,None,1300.2100116899237,None,1300.2100116899237,None,,,,,,,,,1,2022_Apr_12_1149,SAR-soap,2021.1.2,60.009636433369245,
103,Trial # 99,Group1-stimuli/group1-block1/real-group1-b1/Group1_IMG_0448.jpg,1,Group1_IMG_0448.jpg,,,,,0.0,98.0,98.0,98.0,,,,,,,,,,,,,,,,,,,,,,,,,,,,,,,,,,,,,1318.3166422198992,None,1318.3166422198992,None,1318.3166422198992,None,7.0,24.012926934985444,1318.3166422198992,None,1318.3166422198992,None,5.0,49.15867571695708,1323.6007830728777,None,1318.3166422198992,None,3.0,62.70314687816426,1327.8860917720012,None,1318.3166422198992,None,space,7.398199088172987,55.68898947094567,None,1318.3166422198992,None,1318.3166422198992,None,,,,,,,,,1,2022_Apr_12_1149,SAR-soap,2021.1.2,60.009636433369245,
104,Trial # 100,Group1-stimuli/group1-block1/fake-group2-b1/encoded_Group2_IMG_0393.jpg,0,encoded_Group2_IMG_0393.jpg,,,,,0.0,99.0,99.0,99.0,,,,,,,,,,,,,,,,,,,,,,,,,,,,,,,,,,,,,1381.434567183023,None,1381.434567183023,None,1381.434567183023,None,7.0,2.277700952952728,1381.434567183023,None,1381.434567183023,None,6.0,3.7670719078741968,1383.253893707879,None,1381.434567183023,None,5.0,6.706424175994471,1384.7532643429004,None,1381.434567183023,None,space,0.5796519978903234,6.7314587235450745,None,1381.434567183023,None,1381.434567183023,None,,,,,,,,,1,2022_Apr_12_1149,SAR-soap,2021.1.2,60.009636433369245,
105,Trial # 101,Group1-stimuli/group1-block1/real-group1-b1/Group1_IMG_0090.jpg,1,Group1_IMG_0090.jpg,,,,,0.0,100.0,100.0,100.0,,,,,,,,,,,,,,,,,,,,,,,,,,,,,,,,,,,,,1388.7884763369802,None,1388.7884763369802,None,1388.7884763369802,None,1.0,6.457925267983228,1388.7884763369802,None,1388.7884763369802,None,1.0,7.546241013100371,1394.790340194013,None,1388.7884763369802,None,1.0,12.352449687197804,1395.8891933290288,None,1388.7884763369802,None,space,2.625152893131599,12.374796215910465,None,1388.7884763369802,None,1388.7884763369802,None,,,,,,,,,1,2022_Apr_12_1149,SAR-soap,2021.1.2,60.009636433369245,
106,Trial # 102,Group1-stimuli/group1-block1/real-group1-b1/Group1_IMG_0310.jpg,1,Group1_IMG_0310.jpg,,,,,0.0,101.0,101.0,101.0,,,,,,,,,,,,,,,,,,,,,,,,,,,,,,,,,,,,,1403.8258946689311,None,1403.8258946689311,None,1403.8258946689311,None,2.0,1.9241166249848904,1403.8258946689311,None,1403.8258946689311,None,2.0,4.363737142877653,1405.2928029459435,None,1403.8258946689311,None,1.0,6.93680578796193,1407.7435331039596,None,1403.8258946689311,None,space,0.5731563558802009,6.958186652511358,None,1403.8258946689311,None,1403.8258946689311,None,,,,,,,,,1,2022_Apr_12_1149,SAR-soap,2021.1.2,60.009636433369245,
107,Trial # 103,Group1-stimuli/group1-block1/fake-group2-b1/encoded_Group2_IMG_0528.jpg,0,encoded_Group2_IMG_0528.jpg,,,,,0.0,102.0,102.0,102.0,,,,,,,,,,,,,,,,,,,,,,,,,,,,,,,,,,,,,1411.4109943329822,None,1411.4109943329822,None,1411.4109943329822,None,6.0,3.72626539808698,1411.4109943329822,None,1411.4109943329822,None,5.0,12.38505132496357,1413.5955581339076,None,1411.4109943329822,None,4.0,9.556317768059673,1416.1456709168851,None,1411.4109943329822,None,space,8.181078353198245,7.512290456565097,None,1411.4109943329822,None,1411.4109943329822,None,,,,,,,,,1,2022_Apr_12_1149,SAR-soap,2021.1.2,60.009636433369245,
108,Trial # 104,Group1-stimuli/group1-block1/fake-group2-b1/encoded_Group2_IMG_1975.jpg,0,encoded_Group2_IMG_1975.jpg,,,,,0.0,103.0,103.0,103.0,,,,,,,,,,,,,,,,,,,,,,,,,,,,,,,,,,,,,1427.1485556249972,None,1427.1485556249972,None,1427.1485556249972,None,4.0,14.997674964135513,1427.1485556249972,None,1427.1485556249972,None,2.0,19.837965255137533,1430.733511897968,None,1427.1485556249972,None,3.0,23.478249994805083,1431.3010301908944,None,1427.1485556249972,None,space,1.2071779749821872,23.50268460577354,None,1427.1485556249972,None,1427.1485556249972,None,,,,,,,,,1,2022_Apr_12_1149,SAR-soap,2021.1.2,60.009636433369245,
109,Trial # 105,Group1-stimuli/group1-block1/fake-group2-b1/encoded_Group2_IMG_0052.jpg,0,encoded_Group2_IMG_0052.jpg,,,,,0.0,104.0,104.0,104.0,,,,,,,,,,,,,,,,,,,,,,,,,,,,,,,,,,,,,1451.9062399480026,None,1451.9062399480026,None,1451.9062399480026,None,1.0,2.024880276992917,1451.9062399480026,None,1451.9062399480026,None,1.0,2.814713038969785,1453.475186112104,None,1451.9062399480026,None,1.0,4.08703782199882,1454.274936076952,None,1451.9062399480026,None,space,2.862994610099122,4.1093498365953565,None,1451.9062399480026,None,1451.9062399480026,None,,,,,,,,,1,2022_Apr_12_1149,SAR-soap,2021.1.2,60.009636433369245,
110,Trial # 106,Group1-stimuli/group1-block1/fake-group2-b1/encoded_Group2_IMG_0225.jpg,0,encoded_Group2_IMG_0225.jpg,,,,,0.0,105.0,105.0,105.0,,,,,,,,,,,,,,,,,,,,,,,,,,,,,,,,,,,,,1458.9094995530322,None,1458.9094995530322,None,1458.9094995530322,None,7.0,1.77593877306208,1458.9094995530322,None,1458.9094995530322,None,6.0,3.4659366300329566,1460.2263926579617,None,1458.9094995530322,None,4.0,8.63894882495515,1461.9267917089164,None,1458.9094995530322,None,space,1.1960009029135108,7.896649230737239,None,1458.9094995530322,None,1458.9094995530322,None,,,,,,,,,1,2022_Apr_12_1149,SAR-soap,2021.1.2,60.009636433369245,
111,Trial # 107,Group1-stimuli/group1-block1/real-group1-b1/Group1_IMG_2231.jpg,1,Group1_IMG_2231.jpg,,,,,0.0,106.0,106.0,106.0,,,,,,,,,,,,,,,,,,,,,,,,,,,,,,,,,,,,,1468.0291812568903,None,1468.0291812568903,None,1468.0291812568903,None,7.0,1.6238495230209082,1468.0291812568903,None,1468.0291812568903,None,7.0,2.2459101339336485,1469.195543349022,None,1468.0291812568903,None,5.0,7.752763705095276,1469.8287496250125,None,1468.0291812568903,None,space,3.6086177360266447,4.407161442795768,None,1468.0291812568903,None,1468.0291812568903,None,,,,,,,,,1,2022_Apr_12_1149,SAR-soap,2021.1.2,60.009636433369245,
112,Trial # 108,Group1-stimuli/group1-block1/real-group1-b1/Group1_IMG_0217.jpg,1,Group1_IMG_0217.jpg,,,,,0.0,107.0,107.0,107.0,,,,,,,,,,,,,,,,,,,,,,,,,,,,,,,,,,,,,1476.096985565964,None,1476.096985565964,None,1476.096985565964,None,7.0,2.033278026152402,1476.096985565964,None,1476.096985565964,None,6.0,5.123886523768306,1477.6825603609905,None,1476.096985565964,None,4.0,8.664376600179821,1480.7823684120085,None,1476.096985565964,None,space,1.0753466729074717,8.161029264563695,None,1476.096985565964,None,1476.096985565964,None,,,,,,,,,1,2022_Apr_12_1149,SAR-soap,2021.1.2,60.009636433369245,
113,Trial # 109,Group1-stimuli/group1-block1/real-group1-b1/Group1_IMG_0264.jpg,1,Group1_IMG_0264.jpg,,,,,0.0,108.0,108.0,108.0,,,,,,,,,,,,,,,,,,,,,,,,,,,,,,,,,,,,,1485.401000760961,None,1485.401000760961,None,1485.401000760961,None,7.0,1.4742160530295223,1485.401000760961,None,1485.401000760961,None,7.0,2.0311592819634825,1486.4171884679236,None,1485.401000760961,None,5.0,4.23861149395816,1486.9839323889464,None,1485.401000760961,None,space,0.3786336791235953,4.259637257317081,None,1485.401000760961,None,1485.401000760961,None,,,,,,,,,1,2022_Apr_12_1149,SAR-soap,2021.1.2,60.009636433369245,
114,Trial # 110,Group1-stimuli/group1-block1/fake-group2-b1/encoded_Group2_IMG_0254.jpg,0,encoded_Group2_IMG_0254.jpg,,,,,0.0,109.0,109.0,109.0,,,,,,,,,,,,,,,,,,,,,,,,,,,,,,,,,,,,,1490.069041599054,None,1490.069041599054,None,1490.069041599054,None,3.0,6.197006033034995,1490.069041599054,None,1490.069041599054,None,2.0,13.17300452105701,1491.435657324968,None,1490.069041599054,None,2.0,18.447015224955976,1492.0354760740884,None,1490.069041599054,None,space,15.79263552906923,3.0017644348554318,None,1490.069041599054,None,1490.069041599054,None,,,,,,,,,1,2022_Apr_12_1149,SAR-soap,2021.1.2,60.009636433369245,
115,Trial # 111,Group1-stimuli/group1-block1/fake-group2-b1/encoded_Group2_IMG_5433.jpg,0,encoded_Group2_IMG_5433.jpg,,,,,0.0,110.0,110.0,110.0,,,,,,,,,,,,,,,,,,,,,,,,,,,,,,,,,,,,,1508.9244788340293,None,1508.9244788340293,None,1508.9244788340293,None,1.0,3.246085325954482,1508.9244788340293,None,1508.9244788340293,None,1.0,5.137001199880615,1511.724897088017,None,1508.9244788340293,None,1.0,6.176196787972003,1513.6260251509957,None,1508.9244788340293,None,space,0.2886739908717572,6.203777284594253,None,1508.9244788340293,None,1508.9244788340293,None,,,,,,,,,1,2022_Apr_12_1149,SAR-soap,2021.1.2,60.009636433369245,
116,Trial # 112,Group1-stimuli/group1-block1/real-group1-b1/Group1_IMG_0252.jpg,1,Group1_IMG_0252.jpg,,,,,0.0,111.0,111.0,111.0,,,,,,,,,,,,,,,,,,,,,,,,,,,,,,,,,,,,,1515.4602217169013,None,1515.4602217169013,None,1515.4602217169013,None,3.0,1.914202420972288,1515.4602217169013,None,1515.4602217169013,None,3.0,6.436924567911774,1516.926654051058,None,1515.4602217169013,None,2.0,8.910937784938142,1518.3943389500491,None,1515.4602217169013,None,space,0.4669812610372901,8.939104940742254,None,1515.4602217169013,None,1515.4602217169013,None,,,,,,,,,1,2022_Apr_12_1149,SAR-soap,2021.1.2,60.009636433369245,
117,Trial # 113,Group1-stimuli/group1-block1/real-group1-b1/Group1_IMG_9720.jpg,1,Group1_IMG_9720.jpg,,,,,0.0,112.0,112.0,112.0,,,,,,,,,,,,,,,,,,,,,,,,,,,,,,,,,,,,,1524.8963328329846,None,1524.8963328329846,None,1524.8963328329846,None,7.0,1.7092394488863647,1524.8963328329846,None,1524.8963328329846,None,7.0,2.2326534839812666,1526.1471295780502,None,1524.8963328329846,None,6.0,3.972429297864437,1526.6803563588765,None,1524.8963328329846,None,space,0.902339207008481,3.3634219008963555,None,1524.8963328329846,None,1524.8963328329846,None,,,,,,,,,1,2022_Apr_12_1149,SAR-soap,2021.1.2,60.009636433369245,
118,Trial # 114,Group1-stimuli/group1-block1/fake-group2-b1/encoded_Group2_IMG_0550.jpg,0,encoded_Group2_IMG_0550.jpg,,,,,0.0,113.0,113.0,113.0,,,,,,,,,,,,,,,,,,,,,,,,,,,,,,,,,,,,,1529.214753895998,None,1529.214753895998,None,1529.214753895998,None,1.0,1.8424109620973468,1529.214753895998,None,1529.214753895998,None,1.0,2.3651778039056808,1530.598881019978,None,1529.214753895998,None,1.0,3.3027458370197564,1531.1309442820493,None,1529.214753895998,None,space,0.4826218229718506,3.3284359246026725,None,1529.214753895998,None,1529.214753895998,None,,,,,,,,,1,2022_Apr_12_1149,SAR-soap,2021.1.2,60.009636433369245,
119,Trial # 115,Group1-stimuli/group1-block1/real-group1-b1/Group1_IMG_9915.jpg,1,Group1_IMG_9915.jpg,,,,,0.0,114.0,114.0,114.0,,,,,,,,,,,,,,,,,,,,,,,,,,,,,,,,,,,,,1533.0660750730897,None,1533.0660750730897,None,1533.0660750730897,None,1.0,1.9756814041174948,1533.0660750730897,None,1533.0660750730897,None,1.0,2.598034830065444,1534.5827931740787,None,1533.0660750730897,None,1.0,3.70234397915192,1535.215847621905,None,1533.0660750730897,None,space,0.5991282679606229,3.7280286725144833,None,1533.0660750730897,None,1533.0660750730897,None,,,,,,,,,1,2022_Apr_12_1149,SAR-soap,2021.1.2,60.009636433369245,
120,Trial # 116,Group1-stimuli/group1-block1/real-group1-b1/Group1_IMG_9850.jpg,1,Group1_IMG_9850.jpg,,,,,0.0,115.0,115.0,115.0,,,,,,,,,,,,,,,,,,,,,,,,,,,,,,,,,,,,,1537.4166414150968,None,1537.4166414150968,None,1537.4166414150968,None,1.0,1.5461342190392315,1537.4166414150968,None,1537.4166414150968,None,1.0,2.136476255953312,1538.517143585021,None,1537.4166414150968,None,1.0,2.708095185225829,1539.1171586520504,None,1537.4166414150968,None,space,0.440061961999163,2.734254780923948,None,1537.4166414150968,None,1537.4166414150968,None,,,,,,,,,1,2022_Apr_12_1149,SAR-soap,2021.1.2,60.009636433369245,
121,Trial # 117,Group1-stimuli/group1-block1/real-group1-b1/Group1_IMG_3579.jpg,1,Group1_IMG_3579.jpg,,,,,0.0,116.0,116.0,116.0,,,,,,,,,,,,,,,,,,,,,,,,,,,,,,,,,,,,,1540.6842530150898,None,1540.6842530150898,None,1540.6842530150898,None,5.0,2.2603352880105376,1540.6842530150898,None,1540.6842530150898,None,6.0,5.449913537828252,1542.4851881810464,None,1540.6842530150898,None,4.0,7.990827233996242,1545.6857066228986,None,1540.6842530150898,None,space,0.5596761549822986,8.015020715538412,None,1540.6842530150898,None,1540.6842530150898,None,,,,,,,,,1,2022_Apr_12_1149,SAR-soap,2021.1.2,60.009636433369245,
122,Trial # 118,Group1-stimuli/group1-block1/fake-group2-b1/encoded_Group2_IMG_0377.jpg,0,encoded_Group2_IMG_0377.jpg,,,,,0.0,117.0,117.0,117.0,,,,,,,,,,,,,,,,,,,,,,,,,,,,,,,,,,,,,1549.2873793959152,None,1549.2873793959152,None,1549.2873793959152,None,1.0,6.742601474979892,1549.2873793959152,None,1549.2873793959152,None,1.0,5.9827847220003605,1550.721113007981,None,1549.2873793959152,None,1.0,5.488713000901043,1552.1878060728775,None,1549.2873793959152,None,space,2.730217467993498,4.708892899798229,None,1549.2873793959152,None,1549.2873793959152,None,,,,,,,,,1,2022_Apr_12_1149,SAR-soap,2021.1.2,60.009636433369245,
123,Trial # 119,Group1-stimuli/group1-block1/real-group1-b1/Group1_IMG_0469.jpg,1,Group1_IMG_0469.jpg,,,,,0.0,118.0,118.0,118.0,,,,,,,,,,,,,,,,,,,,,,,,,,,,,,,,,,,,,1556.755903413985,None,1556.755903413985,None,1556.755903413985,None,1.0,1.840307792183012,1556.755903413985,None,1556.755903413985,None,1.0,2.3963233190588653,1558.140737442067,None,1556.755903413985,None,1.0,3.001183371990919,1558.7073470288888,None,1556.755903413985,None,space,0.5212159268558025,3.022187259513885,None,1556.755903413985,None,1556.755903413985,None,,,,,,,,,1,2022_Apr_12_1149,SAR-soap,2021.1.2,60.009636433369245,
124,Trial # 120,Group1-stimuli/group1-block1/fake-group2-b1/encoded_Group2_IMG_0100.jpg,0,encoded_Group2_IMG_0100.jpg,,,,,0.0,119.0,119.0,119.0,,,,,,,,,,,,,,,,,,,,,,,,,,,,,,,,,,,,,1560.3406153290998,None,1560.3406153290998,None,1560.3406153290998,None,3.0,29.778178544016555,1560.3406153290998,None,1560.3406153290998,None,2.0,26.449029671028256,1574.0460865530183,None,1560.3406153290998,None,2.0,24.320270012132823,1582.1797823510133,None,1560.3406153290998,None,space,8.380091266008094,23.587362425867468,None,1560.3406153290998,None,1560.3406153290998,None,,,,,,,,,1,2022_Apr_12_1149,SAR-soap,2021.1.2,60.009636433369245,
125,Trial # 121,Group1-stimuli/group1-block1/real-group1-b1/Group1_IMG_5359.jpg,1,Group1_IMG_5359.jpg,,,,,0.0,120.0,120.0,120.0,,,,,,,,,,,,,,,,,,,,,,,,,,,,,,,,,,,,,1592.3827874579,None,1592.3827874579,None,1592.3827874579,None,7.0,3.872992583084852,1592.3827874579,None,1592.3827874579,None,6.0,4.912258087890223,1594.8179548599292,None,1592.3827874579,None,2.0,9.784975514980031,1596.8515182400588,None,1592.3827874579,None,space,2.594104578020051,8.871468001743779,None,1592.3827874579,None,1592.3827874579,None,,,,,,,,,1,2022_Apr_12_1149,SAR-soap,2021.1.2,60.009636433369245,
126,Trial # 122,Group1-stimuli/group1-block1/fake-group2-b1/encoded_Group2_IMG_0304.jpg,0,encoded_Group2_IMG_0304.jpg,,,,,0.0,121.0,121.0,121.0,,,,,,,,,,,,,,,,,,,,,,,,,,,,,,,,,,,,,1603.8709488830063,None,1603.8709488830063,None,1603.8709488830063,None,6.0,3.730073715094477,1603.8709488830063,None,1603.8709488830063,None,5.0,6.620476647047326,1607.1547203490045,None,1603.8709488830063,None,5.0,16.395913355983794,1610.0556336599402,None,1603.8709488830063,None,space,5.988987239077687,13.189865166554227,None,1603.8709488830063,None,1603.8709488830063,None,,,,,,,,,1,2022_Apr_12_1149,SAR-soap,2021.1.2,60.009636433369245,
127,Trial # 123,Group1-stimuli/group1-block1/real-group1-b1/Group1_IMG_0306.jpg,1,Group1_IMG_0306.jpg,,,,,0.0,122.0,122.0,122.0,,,,,,,,,,,,,,,,,,,,,,,,,,,,,,,,,,,,,1623.127467433922,None,1623.127467433922,None,1623.127467433922,None,7.0,1.9604678319301456,1623.127467433922,None,1623.127467433922,None,7.0,2.649801766034216,1624.6272925559897,None,1623.127467433922,None,6.0,3.28948035906069,1625.3271337829065,None,1623.127467433922,None,space,4.427891080034897,3.31399265374057,None,1623.127467433922,None,1623.127467433922,None,,,,,,,,,1,2022_Apr_12_1149,SAR-soap,2021.1.2,60.009636433369245,
128,Trial # 124,Group1-stimuli/group1-block1/real-group1-b1/Group1_IMG_0224.jpg,1,Group1_IMG_0224.jpg,,,,,0.0,123.0,123.0,123.0,,,,,,,,,,,,,,,,,,,,,,,,,,,,,,,,,,,,,1630.8959277409597,None,1630.8959277409597,None,1630.8959277409597,None,6.0,2.5538395459298044,1630.8959277409597,None,1630.8959277409597,None,6.0,5.209514988819137,1632.9966377608944,None,1630.8959277409597,None,5.0,6.448812980204821,1635.6630957720336,None,1630.8959277409597,None,space,0.5470687958877534,6.482068998506293,None,1630.8959277409597,None,1630.8959277409597,None,,,,,,,,,1,2022_Apr_12_1149,SAR-soap,2021.1.2,60.009636433369245,
129,Trial # 125,Group1-stimuli/group1-block1/real-group1-b1/Group1_IMG_9889.jpg,1,Group1_IMG_9889.jpg,,,,,0.0,124.0,124.0,124.0,,,,,,,,,,,,,,,,,,,,,,,,,,,,,,,,,,,,,1637.9651038860902,None,1637.9651038860902,None,1637.9651038860902,None,1.0,1.927928633056581,1637.9651038860902,None,1637.9651038860902,None,1.0,2.5834382369648665,1639.4329130789265,None,1637.9651038860902,None,1.0,3.2550950550939888,1640.098247531103,None,1637.9651038860902,None,space,0.430468033067882,3.2807952899020165,None,1637.9651038860902,None,1637.9651038860902,None,,,,,,,,,1,2022_Apr_12_1149,SAR-soap,2021.1.2,60.009636433369245,
130,Trial # 126,Group1-stimuli/group1-block1/real-group1-b1/Group1_IMG_0293.jpg,1,Group1_IMG_0293.jpg,,,,,0.0,125.0,125.0,125.0,,,,,,,,,,,,,,,,,,,,,,,,,,,,,,,,,,,,,1641.6981163639575,None,1641.6981163639575,None,1641.6981163639575,None,1.0,47.97724319715053,1641.6981163639575,None,1641.6981163639575,None,1.0,48.5334422220476,1689.2309451359324,None,1641.6981163639575,None,1.0,49.17137501598336,1689.796955768019,None,1641.6981163639575,None,space,0.3892776560969651,49.19888789090328,None,1641.6981163639575,None,1641.6981163639575,None,,,,,,,,,1,2022_Apr_12_1149,SAR-soap,2021.1.2,60.009636433369245,
131,Trial # 127,Group1-stimuli/group1-block1/fake-group2-b1/encoded_Group2_IMG_0321.jpg,0,encoded_Group2_IMG_0321.jpg,,,,,0.0,126.0,126.0,126.0,,,,,,,,,,,,,,,,,,,,,,,,,,,,,,,,,,,,,1691.3470985079184,None,1691.3470985079184,None,1691.3470985079184,None,2.0,1.948154977988452,1691.3470985079184,None,1691.3470985079184,None,2.0,3.4042487260885537,1692.848266337067,None,1691.3470985079184,None,2.0,5.676626482047141,1694.3152926580517,None,1691.3470985079184,None,space,0.2132379119284451,5.705366591690108,None,1691.3470985079184,None,1691.3470985079184,None,,,,,,,,,1,2022_Apr_12_1149,SAR-soap,2021.1.2,60.009636433369245,
132,Trial # 128,Group1-stimuli/group1-block1/fake-group2-b1/encoded_Group2_IMG_0400.jpg,0,encoded_Group2_IMG_0400.jpg,,,,,0.0,127.0,127.0,127.0,,,,,,,,,,,,,,,,,,,,,,,,,,,,,,,,,,,,,1697.3152192600537,None,1697.3152192600537,None,1697.3152192600537,None,5.0,3.778010881040245,1697.3152192600537,None,1697.3152192600537,None,6.0,5.249550902051851,1700.166612190893,None,1697.3152192600537,None,4.0,9.791057366179302,1702.1174585809931,None,1697.3152192600537,None,space,2.3491472830064595,7.6814207977149636,None,1697.3152192600537,None,1697.3152192600537,None,,,,,,,,,1,2022_Apr_12_1149,SAR-soap,2021.1.2,60.009636433369245,
133,Trial # 129,Group1-stimuli/group1-block1/fake-group2-b1/encoded_Group2_IMG_0443.jpg,0,encoded_Group2_IMG_0443.jpg,,,,,0.0,128.0,128.0,128.0,,,,,,,,,,,,,,,,,,,,,,,,,,,,,,,,,,,,,1707.4020406890197,None,1707.4020406890197,None,1707.4020406890197,None,7.0,1.859872735105455,1707.4020406890197,None,1707.4020406890197,None,7.0,12.234187961090356,1708.803457231028,None,1707.4020406890197,None,5.0,15.207039578119293,1713.0885551020035,None,1707.4020406890197,None,space,0.4953216281719506,15.22929750266485,None,1707.4020406890197,None,1707.4020406890197,None,,,,,,,,,1,2022_Apr_12_1149,SAR-soap,2021.1.2,60.009636433369245,
134,Trial # 130,Group1-stimuli/group1-block1/fake-group2-b1/encoded_Group2_IMG_0542.jpg,0,encoded_Group2_IMG_0542.jpg,,,,,0.0,129.0,129.0,129.0,,,,,,,,,,,,,,,,,,,,,,,,,,,,,,,,,,,,,1723.1573088339064,None,1723.1573088339064,None,1723.1573088339064,None,1.0,6.498323019128293,1723.1573088339064,None,1723.1573088339064,None,1.0,8.571559709031135,1727.659622712992,None,1723.1573088339064,None,1.0,9.243798996089026,1731.2930125710554,None,1723.1573088339064,None,space,1.3395892530679705,9.272608452709392,None,1723.1573088339064,None,1723.1573088339064,None,,,,,,,,,1,2022_Apr_12_1149,SAR-soap,2021.1.2,60.009636433369245,
135,Trial # 131,Group1-stimuli/group1-block1/real-group1-b1/Group1_IMG_0885.jpg,1,Group1_IMG_0885.jpg,,,,,0.0,130.0,130.0,130.0,,,,,,,,,,,,,,,,,,,,,,,,,,,,,,,,,,,,,1733.8277006780263,None,1733.8277006780263,None,1733.8277006780263,None,7.0,1.7023644521832466,1733.8277006780263,None,1733.8277006780263,None,7.0,2.1917575041297823,1735.0775549130049,None,1733.8277006780263,None,7.0,3.7299211379140615,1735.5778111401014,None,1733.8277006780263,None,space,0.3489182109478861,3.7637719907797873,None,1733.8277006780263,None,1733.8277006780263,None,,,,,,,,,1,2022_Apr_12_1149,SAR-soap,2021.1.2,60.009636433369245,
136,Trial # 132,Group1-stimuli/group1-block1/real-group1-b1/Group1_IMG_0375.jpg,1,Group1_IMG_0375.jpg,,,,,0.0,131.0,131.0,131.0,,,,,,,,,,,,,,,,,,,,,,,,,,,,,,,,,,,,,1737.97959488607,None,1737.97959488607,None,1737.97959488607,None,1.0,1.8611098129767925,1737.97959488607,None,1737.97959488607,None,1.0,2.383187072817236,1739.380519238999,None,1737.97959488607,None,1.0,3.1219558170996606,1739.912867038045,None,1737.97959488607,None,space,0.7170167560689151,3.1468906777445227,None,1737.97959488607,None,1737.97959488607,None,,,,,,,,,1,2022_Apr_12_1149,SAR-soap,2021.1.2,60.009636433369245,
137,Trial # 133,Group1-stimuli/group1-block1/fake-group2-b1/encoded_Group2_IMG_7351.jpg,0,encoded_Group2_IMG_7351.jpg,,,,,0.0,132.0,132.0,132.0,,,,,,,,,,,,,,,,,,,,,,,,,,,,,,,,,,,,,1741.8629756509326,None,1741.8629756509326,None,1741.8629756509326,None,6.0,11.63285272778012,1741.8629756509326,None,1741.8629756509326,None,5.0,22.859414870850745,1753.050339117879,None,1741.8629756509326,None,5.0,25.39790191501379,1756.2174140370917,None,1741.8629756509326,None,space,0.6965810598339885,24.99217658559792,None,1741.8629756509326,None,1741.8629756509326,None,,,,,,,,,1,2022_Apr_12_1149,SAR-soap,2021.1.2,60.009636433369245,
138,Trial # 134,Group1-stimuli/group1-block1/fake-group2-b1/encoded_Group2_IMG_0416.jpg,0,encoded_Group2_IMG_0416.jpg,,,,,0.0,133.0,133.0,133.0,,,,,,,,,,,,,,,,,,,,,,,,,,,,,,,,,,,,,1767.588462115964,None,1767.588462115964,None,1767.588462115964,None,7.0,6.052160100080073,1767.588462115964,None,1767.588462115964,None,6.0,6.690317549975589,1770.0387754479889,None,1767.588462115964,None,2.0,15.165071848779917,1771.6383200900164,None,1767.588462115964,None,space,7.587728642858565,7.928582014748827,None,1767.588462115964,None,1767.588462115964,None,,,,,,,,,1,2022_Apr_12_1149,SAR-soap,2021.1.2,60.009636433369245,
139,Trial # 135,Group1-stimuli/group1-block1/fake-group2-b1/encoded_Group2_IMG_0139.jpg,0,encoded_Group2_IMG_0139.jpg,,,,,0.0,134.0,134.0,134.0,,,,,,,,,,,,,,,,,,,,,,,,,,,,,,,,,,,,,1783.1258827920535,None,1783.1258827920535,None,1783.1258827920535,None,1.0,3.2956892498768866,1783.1258827920535,None,1783.1258827920535,None,1.0,3.9852057571988553,1785.9772273399867,None,1783.1258827920535,None,1.0,4.623534138081595,1786.677023212891,None,1783.1258827920535,None,space,0.3253884620498866,4.651490485528484,None,1783.1258827920535,None,1783.1258827920535,None,,,,,,,,,1,2022_Apr_12_1149,SAR-soap,2021.1.2,60.009636433369245,
140,Trial # 136,Group1-stimuli/group1-block1/real-group1-b1/Group1_IMG_9677.jpg,1,Group1_IMG_9677.jpg,,,,,0.0,135.0,135.0,135.0,,,,,,,,,,,,,,,,,,,,,,,,,,,,,,,,,,,,,1788.1447957449127,None,1788.1447957449127,None,1788.1447957449127,None,3.0,3.089372643036768,1788.1447957449127,None,1788.1447957449127,None,3.0,10.332451852038504,1789.9284778030124,None,1788.1447957449127,None,3.0,8.869278201134875,1792.6632297378965,None,1788.1447957449127,None,space,3.110001850873232,8.55718973861076,None,1788.1447957449127,None,1788.1447957449127,None,,,,,,,,,1,2022_Apr_12_1149,SAR-soap,2021.1.2,60.009636433369245,
141,Trial # 137,Group1-stimuli/group1-block1/fake-group2-b1/encoded_Group2_IMG_5982.jpg,0,encoded_Group2_IMG_5982.jpg,,,,,0.0,136.0,136.0,136.0,,,,,,,,,,,,,,,,,,,,,,,,,,,,,,,,,,,,,1799.8474326229189,None,1799.8474326229189,None,1799.8474326229189,None,2.0,2.7463258178904653,1799.8474326229189,None,1799.8474326229189,None,2.0,4.436812212923542,1802.14877824788,None,1799.8474326229189,None,2.0,5.575722152134404,1803.849661095068,None,1799.8474326229189,None,space,0.5410850569605827,5.604788268683478,None,1799.8474326229189,None,1799.8474326229189,None,,,,,,,,,1,2022_Apr_12_1149,SAR-soap,2021.1.2,60.009636433369245,
142,Trial # 138,Group1-stimuli/group1-block1/fake-group2-b1/encoded_Group2_IMG_1144.jpg,0,encoded_Group2_IMG_1144.jpg,,,,,0.0,137.0,137.0,137.0,,,,,,,,,,,,,,,,,,,,,,,,,,,,,,,,,,,,,1806.0496726480776,None,1806.0496726480776,None,1806.0496726480776,None,7.0,1.7259480389766395,1806.0496726480776,None,1806.0496726480776,None,7.0,2.41587026999332,1807.3165685129352,None,1806.0496726480776,None,7.0,4.054312827065587,1808.0172810219228,None,1806.0496726480776,None,space,0.2645054580643773,4.079617926618084,None,1806.0496726480776,None,1806.0496726480776,None,,,,,,,,,1,2022_Apr_12_1149,SAR-soap,2021.1.2,60.009636433369245,
143,Trial # 139,Group1-stimuli/group1-block1/fake-group2-b1/encoded_Group2_IMG_0315.jpg,0,encoded_Group2_IMG_0315.jpg,,,,,0.0,138.0,138.0,138.0,,,,,,,,,,,,,,,,,,,,,,,,,,,,,,,,,,,,,1810.418173108017,None,1810.418173108017,None,1810.418173108017,None,3.0,5.783839701907709,1810.418173108017,None,1810.418173108017,None,2.0,6.839307449990884,1811.9174341480248,None,1810.418173108017,None,2.0,8.97872636304237,1816.8193584340625,None,1810.418173108017,None,space,0.4413321278989315,9.01094316598028,None,1810.418173108017,None,1810.418173108017,None,,,,,,,,,1,2022_Apr_12_1149,SAR-soap,2021.1.2,60.009636433369245,
144,Trial # 140,Group1-stimuli/group1-block1/real-group1-b1/Group1_IMG_130.jpg,1,Group1_IMG_130.jpg,,,,,0.0,139.0,139.0,139.0,,,,,,,,,,,,,,,,,,,,,,,,,,,,,,,,,,,,,1819.920803745976,None,1819.920803745976,None,1819.920803745976,None,7.0,1.8890754338353872,1819.920803745976,None,1819.920803745976,None,7.0,2.44502716884017,1821.3544092550876,None,1819.920803745976,None,4.0,4.1854996820911765,1821.9208601689895,None,1819.920803745976,None,space,4.081888572080061,3.105003846809268,None,1819.920803745976,None,1819.920803745976,None,,,,,,,,,1,2022_Apr_12_1149,SAR-soap,2021.1.2,60.009636433369245,
145,Trial # 141,Group1-stimuli/group1-block1/real-group1-b1/Group1_IMG_0024.jpg,1,Group1_IMG_0024.jpg,,,,,0.0,140.0,140.0,140.0,,,,,,,,,,,,,,,,,,,,,,,,,,,,,,,,,,,,,1827.1559634599837,None,1827.1559634599837,None,1827.1559634599837,None,7.0,1.6762778430711478,1827.1559634599837,None,1827.1559634599837,None,7.0,8.64992477116175,1828.373107854044,None,1827.1559634599837,None,6.0,6.953328267903999,1829.0238860188983,None,1827.1559634599837,None,space,5.132111751008779,4.542837055632845,None,1827.1559634599837,None,1827.1559634599837,None,,,,,,,,,1,2022_Apr_12_1149,SAR-soap,2021.1.2,60.009636433369245,
146,Trial # 142,Group1-stimuli/group1-block1/fake-group2-b1/encoded_Group2_IMG_5012.jpg,0,encoded_Group2_IMG_5012.jpg,,,,,0.0,141.0,141.0,141.0,,,,,,,,,,,,,,,,,,,,,,,,,,,,,,,,,,,,,1836.8586264869664,None,1836.8586264869664,None,1836.8586264869664,None,5.0,5.583455984015018,1836.8586264869664,None,1836.8586264869664,None,4.0,7.65676286094822,1838.3779040249065,None,1836.8586264869664,None,1.0,9.530126418918371,1844.0788600430824,None,1836.8586264869664,None,space,0.234453255077824,9.559899728512391,None,1836.8586264869664,None,1836.8586264869664,None,,,,,,,,,1,2022_Apr_12_1149,SAR-soap,2021.1.2,60.009636433369245,
147,Trial # 143,Group1-stimuli/group1-block1/fake-group2-b1/encoded_Group2_IMG_0209.jpg,0,encoded_Group2_IMG_0209.jpg,,,,,0.0,142.0,142.0,142.0,,,,,,,,,,,,,,,,,,,,,,,,,,,,,,,,,,,,,1846.695690545952,None,1846.695690545952,None,1846.695690545952,None,1.0,6.998347181128338,1846.695690545952,None,1846.695690545952,None,1.0,6.236903721932322,1848.029406928923,None,1846.695690545952,None,1.0,3.408529878826812,1848.9298888319167,None,1846.695690545952,None,space,3.892911626957357,3.4340079477988183,None,1846.695690545952,None,1846.695690545952,None,,,,,,,,,1,2022_Apr_12_1149,SAR-soap,2021.1.2,60.009636433369245,
148,Trial # 144,Group1-stimuli/group1-block1/real-group1-b1/Group1_IMG_0373.jpg,1,Group1_IMG_0373.jpg,,,,,0.0,143.0,143.0,143.0,,,,,,,,,,,,,,,,,,,,,,,,,,,,,,,,,,,,,1854.0644094990569,None,1854.0644094990569,None,1854.0644094990569,None,3.0,4.926324852975085,1854.0644094990569,None,1854.0644094990569,None,2.0,3.7648087767884135,1856.51577510708,None,1854.0644094990569,None,2.0,5.569775050971657,1857.3813772080464,None,1854.0644094990569,None,space,0.3165648900903761,5.592611427651718,None,1854.0644094990569,None,1854.0644094990569,None,,,,,,,,,1,2022_Apr_12_1149,SAR-soap,2021.1.2,60.009636433369245,
149,Trial # 145,Group1-stimuli/group1-block1/real-group1-b1/Group1_IMG_5899.jpg,1,Group1_IMG_5899.jpg,,,,,0.0,144.0,144.0,144.0,,,,,,,,,,,,,,,,,,,,,,,,,,,,,,,,,,,,,1860.0170162820723,None,1860.0170162820723,None,1860.0170162820723,None,4.0,7.508497139904648,1860.0170162820723,None,1860.0170162820723,None,3.0,7.013723206007853,1862.0331818189009,None,1860.0170162820723,None,3.0,5.952673141146079,1863.385176483076,None,1860.0170162820723,None,space,1.9021317870356145,5.974602014524862,None,1860.0170162820723,None,1860.0170162820723,None,,,,,,,,,1,2022_Apr_12_1149,SAR-soap,2021.1.2,60.009636433369245,
150,Trial # 146,Group1-stimuli/group1-block1/real-group1-b1/Group1_IMG_0162.jpg,1,Group1_IMG_0162.jpg,,,,,0.0,145.0,145.0,145.0,,,,,,,,,,,,,,,,,,,,,,,,,,,,,,,,,,,,,1867.9526935440956,None,1867.9526935440956,None,1867.9526935440956,None,7.0,1.6063668101560324,1867.9526935440956,None,1867.9526935440956,None,7.0,2.095422737998888,1869.102459373884,None,1867.9526935440956,None,7.0,3.634352319873869,1869.6026469860224,None,1867.9526935440956,None,space,0.2994358758442104,3.654195160605013,None,1867.9526935440956,None,1867.9526935440956,None,,,,,,,,,1,2022_Apr_12_1149,SAR-soap,2021.1.2,60.009636433369245,
151,Trial # 147,Group1-stimuli/group1-block1/real-group1-b1/Group1_IMG_0543.jpg,1,Group1_IMG_0543.jpg,,,,,0.0,146.0,146.0,146.0,,,,,,,,,,,,,,,,,,,,,,,,,,,,,,,,,,,,,1871.969290420879,None,1871.969290420879,None,1871.969290420879,None,2.0,1.8074352520052344,1871.969290420879,None,1871.969290420879,None,2.0,3.8645461450796574,1873.3206708859648,None,1871.969290420879,None,1.0,5.8367082320619375,1875.3873682739213,None,1871.969290420879,None,space,0.4013183899223804,5.857578066876158,None,1871.969290420879,None,1871.969290420879,None,,,,,,,,,1,2022_Apr_12_1149,SAR-soap,2021.1.2,60.009636433369245,
152,Trial # 148,Group1-stimuli/group1-block1/fake-group2-b1/encoded_Group2_IMG_0355.jpg,0,encoded_Group2_IMG_0355.jpg,,,,,0.0,147.0,147.0,147.0,,,,,,,,,,,,,,,,,,,,,,,,,,,,,,,,,,,,,1878.289155089995,None,1878.289155089995,None,1878.289155089995,None,3.0,1.7935231230221689,1878.289155089995,None,1878.289155089995,None,2.0,5.950482878834009,1879.6223875929136,None,1878.289155089995,None,3.0,7.888863704865798,1883.791100834962,None,1878.289155089995,None,space,0.3757247989997268,7.913558513624594,None,1878.289155089995,None,1878.289155089995,None,,,,,,,,,1,2022_Apr_12_1149,SAR-soap,2021.1.2,60.009636433369245,
153,Trial # 149,Group1-stimuli/group1-block1/real-group1-b1/Group1_IMG_9765.jpg,1,Group1_IMG_9765.jpg,,,,,0.0,148.0,148.0,148.0,,,,,,,,,,,,,,,,,,,,,,,,,,,,,,,,,,,,,1886.6243291380813,None,1886.6243291380813,None,1886.6243291380813,None,7.0,1.9421861690934747,1886.6243291380813,None,1886.6243291380813,None,7.0,2.930387201020494,1888.10870486591,None,1886.6243291380813,None,6.0,5.169395555974916,1889.1088871399409,None,1886.6243291380813,None,space,0.4371492429636419,5.192227537976578,None,1886.6243291380813,None,1886.6243291380813,None,,,,,,,,,1,2022_Apr_12_1149,SAR-soap,2021.1.2,60.009636433369245,
154,Trial # 150,Group1-stimuli/group1-block1/fake-group2-b1/encoded_Group2_IMG_1378.jpg,0,encoded_Group2_IMG_1378.jpg,,,,,0.0,149.0,149.0,149.0,,,,,,,,,,,,,,,,,,,,,,,,,,,,,,,,,,,,,1892.3088371409103,None,1892.3088371409103,None,1892.3088371409103,None,7.0,3.110692326910794,1892.3088371409103,None,1892.3088371409103,None,6.0,5.633258674060926,1894.959780836012,None,1892.3088371409103,None,6.0,10.173143310006708,1897.494299927028,None,1892.3088371409103,None,space,2.606883266940713,10.19843653566204,None,1892.3088371409103,None,1892.3088371409103,None,,,,,,,,,1,2022_Apr_12_1149,SAR-soap,2021.1.2,60.009636433369245,
155,Trial # 1,Group1-stimuli/group1-block2/fake-group2-b2/encoded_Group2_IMG_0155.jpg,0,encoded_Group2_IMG_0155.jpg,,,,,,,,,0.0,0.0,0.0,0.0,,,,,,,,,,,,,,,,,,,,,,,,,,,,,,,,,2031.6356208811048,None,2031.6356208811048,None,2031.6356208811048,None,7.0,3.6619229200296095,2031.6356208811048,None,2031.6356208811048,None,6.0,4.351402026833966,2034.8371639410036,None,2031.6356208811048,None,5.0,6.191004906082526,2035.5373153020628,None,2031.6356208811048,None,space,5.057059901067987,6.216818481916562,None,2031.6356208811048,None,2031.6356208811048,None,2028.9527200679292,None,2028.9527200679292,None,2028.9527200679292,None,1904.6473478870464,None,1,2022_Apr_12_1149,SAR-soap,2021.1.2,60.009636433369245,
156,Trial # 2,Group1-stimuli/group1-block2/real-group1-b2/Group1_IMG_0519.jpg,1,Group1_IMG_0519.jpg,,,,,,,,,0.0,1.0,1.0,1.0,,,,,,,,,,,,,,,,,,,,,,,,,,,,,,,,,2042.9397929599509,None,2042.9397929599509,None,2042.9397929599509,None,7.0,2.071442025946453,2042.9397929599509,None,2042.9397929599509,None,5.0,3.959307373035699,2044.556490310002,None,2042.9397929599509,None,3.0,10.065928847063333,2046.456815759884,None,2042.9397929599509,None,space,3.485965672880411,7.300448038615286,None,2042.9397929599509,None,2042.9397929599509,None,,,,,,,,,1,2022_Apr_12_1149,SAR-soap,2021.1.2,60.009636433369245,
157,Trial # 3,Group1-stimuli/group1-block2/fake-group2-b2/encoded_Group2_IMG_0135.jpg,0,encoded_Group2_IMG_0135.jpg,,,,,,,,,0.0,2.0,2.0,2.0,,,,,,,,,,,,,,,,,,,,,,,,,,,,,,,,,2053.760193141876,None,2053.760193141876,None,2053.760193141876,None,1.0,1.7093871079850942,2053.760193141876,None,2053.760193141876,None,1.0,2.1991019370034337,2055.0104192278814,None,2053.760193141876,None,1.0,2.704407079843804,2055.5095566369127,None,2053.760193141876,None,space,0.4655859509948641,2.729394720634445,None,2053.760193141876,None,2053.760193141876,None,,,,,,,,,1,2022_Apr_12_1149,SAR-soap,2021.1.2,60.009636433369245,
158,Trial # 4,Group1-stimuli/group1-block2/real-group1-b2/Group1_IMG_5310.jpg,1,Group1_IMG_5310.jpg,,,,,,,,,0.0,3.0,3.0,3.0,,,,,,,,,,,,,,,,,,,,,,,,,,,,,,,,,2056.9764481959864,None,2056.9764481959864,None,2056.9764481959864,None,7.0,1.8737905439920723,2056.9764481959864,None,2056.9764481959864,None,7.0,6.096463349182159,2058.395043370081,None,2056.9764481959864,None,7.0,5.368068563984707,2060.1947168710176,None,2056.9764481959864,None,space,1.1004707510583105,5.389483649516478,None,2056.9764481959864,None,2056.9764481959864,None,,,,,,,,,1,2022_Apr_12_1149,SAR-soap,2021.1.2,60.009636433369245,
159,Trial # 5,Group1-stimuli/group1-block2/real-group1-b2/Group1_IMG_0522.jpg,1,Group1_IMG_0522.jpg,,,,,,,,,0.0,4.0,4.0,4.0,,,,,,,,,,,,,,,,,,,,,,,,,,,,,,,,,2063.4960901779123,None,2063.4960901779123,None,2063.4960901779123,None,6.0,3.374219555873424,2063.4960901779123,None,2063.4960901779123,None,6.0,4.9464943241328,2065.330180086894,None,2063.4960901779123,None,7.0,8.152800502022728,2067.9976957899053,None,2063.4960901779123,None,space,2.6425457820296288,7.472971752751619,None,2063.4960901779123,None,2063.4960901779123,None,,,,,,,,,1,2022_Apr_12_1149,SAR-soap,2021.1.2,60.009636433369245,
160,Trial # 6,Group1-stimuli/group1-block2/fake-group2-b2/encoded_Group2_IMG_0484.jpg,0,encoded_Group2_IMG_0484.jpg,,,,,,,,,0.0,5.0,5.0,5.0,,,,,,,,,,,,,,,,,,,,,,,,,,,,,,,,,2073.666507177986,None,2073.666507177986,None,2073.666507177986,None,1.0,1.893762147054076,2073.666507177986,None,2073.666507177986,None,1.0,2.8156880140304565,2075.100545040099,None,2073.666507177986,None,1.0,3.920218612998724,2076.0327881199773,None,2073.666507177986,None,space,0.6226156312040985,3.945897507714108,None,2073.666507177986,None,2073.666507177986,None,,,,,,,,,1,2022_Apr_12_1149,SAR-soap,2021.1.2,60.009636433369245,
161,Trial # 7,Group1-stimuli/group1-block2/fake-group2-b2/encoded_Group2_IMG_5948.jpg,0,encoded_Group2_IMG_5948.jpg,,,,,,,,,0.0,6.0,6.0,6.0,,,,,,,,,,,,,,,,,,,,,,,,,,,,,,,,,2078.267084863968,None,2078.267084863968,None,2078.267084863968,None,2.0,3.4932325419504195,2078.267084863968,None,2078.267084863968,None,2.0,4.332151807146147,2080.233836903004,None,2078.267084863968,None,2.0,5.105426541995257,2082.1507772309706,None,2078.267084863968,None,space,0.2042937781661749,5.129891082644463,None,2078.267084863968,None,2078.267084863968,None,,,,,,,,,1,2022_Apr_12_1149,SAR-soap,2021.1.2,60.009636433369245,
162,Trial # 8,Group1-stimuli/group1-block2/fake-group2-b2/encoded_Group2_IMG_3591.jpg,0,encoded_Group2_IMG_3591.jpg,,,,,,,,,0.0,7.0,7.0,7.0,,,,,,,,,,,,,,,,,,,,,,,,,,,,,,,,,2083.652886441909,None,2083.652886441909,None,2083.652886441909,None,2.0,3.025041935034096,2083.652886441909,None,2083.652886441909,None,2.0,5.817084891954437,2086.2194983260706,None,2083.652886441909,None,2.0,8.588366567157209,2089.0205311959144,None,2083.652886441909,None,space,1.545932024018839,7.779662043787539,None,2083.652886441909,None,2083.652886441909,None,,,,,,,,,1,2022_Apr_12_1149,SAR-soap,2021.1.2,60.009636433369245,
