,Trial_num,image_path,ground_truth,image_name,demos.thisRepN,demos.thisTrialN,demos.thisN,demos.thisIndex,block_1.thisRepN,block_1.thisTrialN,block_1.thisN,block_1.thisIndex,block_2.thisRepN,block_2.thisTrialN,block_2.thisN,block_2.thisIndex,text_3.started,text_3.stopped,Task.started,Task.stopped,text_10.started,text_10.stopped,key_resp.keys,key_resp.rt,key_resp.started,key_resp.stopped,image_2.started,image_2.stopped,text_5.started,text_5.stopped,image_3.started,image_3.stopped,text_6.started,text_6.stopped,translucency.started,translucency.stopped,see_throughness.started,see_throughness.stopped,glow.started,glow.stopped,key_resp_10.keys,key_resp_10.rt,key_resp_10.started,key_resp_10.stopped,instruction.started,instruction.stopped,text_12.started,text_12.stopped,Trial_number.started,Trial_number.stopped,image.started,image.stopped,Instruction.started,Instruction.stopped,translucency_score.response,translucency_score.rt,translucency_score.started,translucency_score.stopped,Translucency.started,Translucency.stopped,seethroughness_score.response,seethroughness_score.rt,seethroughness_score.started,seethroughness_score.stopped,SeeThroughness.started,SeeThroughness.stopped,glow_score.response,glow_score.rt,glow_score.started,glow_score.stopped,Glow.started,Glow.stopped,to_next.keys,to_next.rt,to_next.started,to_next.stopped,grading_label_left.started,grading_label_left.stopped,grading_label_right.started,grading_label_right.stopped,instruct1.started,instruct1.stopped,instruct2.started,instruct2.stopped,text_4.started,text_4.stopped,text_2.started,text_2.stopped,session,date,expName,psychopyVersion,frameRate,Unnamed: 94
0,,,,,,,,,,,,,,,,,12.504266823991202,None,36.6325698789442,None,42.43431256501936,None,space,13.608120578923264,47.40241486602463,None,,,,,,,,,,,,,,,,,,,,,,,,,,,,,,,,,,,,,,,,,,,,,,,,,,,,,,,,,,,,,,,1,2022_Apr_01_1022,SAR-soap,2021.1.2,60.111076514205664,
1,,,,,,,,,,,,,,,,,,,,,,,,,,,61.50647835293785,None,61.50647835293785,None,67.95870506099891,None,67.95870506099891,None,79.3633465769235,None,79.3633465769235,None,79.3633465769235,None,space,26.55912832100876,79.3633465769235,None,,,,,,,,,,,,,,,,,,,,,,,,,,,,,,,,,,,,,,,,,,,,,1,2022_Apr_01_1022,SAR-soap,2021.1.2,60.111076514205664,
2,Demo 1,demo/Demo_IMG_0974.jpg,demo,Demo_IMG_0974.jpg,0.0,0.0,0.0,0.0,,,,,,,,,,,,,,,,,,,,,,,,,,,,,,,,,,,,,79.3633465769235,None,105.9536697579315,None,108.50539504596964,None,108.50539504596964,None,108.50539504596964,None,6.0,28.11923612200189,108.50539504596964,None,108.50539504596964,None,3.0,36.97709101100918,130.89460080093704,None,108.50539504596964,None,5.0,41.11833778792061,142.01452901901212,None,108.50539504596964,None,space,2.445019213948399,41.14289929904044,None,108.50539504596964,None,108.50539504596964,None,,,,,,,,,1,2022_Apr_01_1022,SAR-soap,2021.1.2,60.111076514205664,
3,Demo 2,demo/Demo_IMG_1024.jpg,demo,Demo_IMG_1024.jpg,0.0,1.0,1.0,1.0,,,,,,,,,,,,,,,,,,,,,,,,,,,,,,,,,,,,,,,,,152.18443686596584,None,152.18443686596584,None,152.18443686596584,None,1.0,4.855378123000264,152.18443686596584,None,152.18443686596584,None,1.0,7.945353843038902,156.6025558729889,None,152.18443686596584,None,1.0,10.18400925397873,159.70374341798015,None,152.18443686596584,None,space,2.2340940419817343,10.218917351099662,None,152.18443686596584,None,152.18443686596584,None,,,,,,,,,1,2022_Apr_01_1022,SAR-soap,2021.1.2,60.111076514205664,
4,Demo 3,demo/Demo_seed_80003.png,demo,Demo_seed_80003.png,0.0,2.0,2.0,2.0,,,,,,,,,,,,,,,,,,,,,,,,,,,,,,,,,,,,,,,,,164.72180839802604,None,164.72180839802604,None,164.72180839802604,None,6.0,6.058112193015404,164.72180839802604,None,164.72180839802604,None,5.0,7.913607725990005,170.3246678399155,None,164.72180839802604,None,4.0,12.120830597006716,172.19056490797084,None,164.72180839802604,None,space,0.8268723839428276,12.141474688542075,None,164.72180839802604,None,164.72180839802604,None,,,,,,,,,1,2022_Apr_01_1022,SAR-soap,2021.1.2,60.111076514205664,
5,Trial # 1,Group1-stimuli/group1-block1/real-group1-b1/Group1_IMG_0022.jpg,1,Group1_IMG_0022.jpg,,,,,0.0,0.0,0.0,0.0,,,,,,,,,,,,,,,,,,,,,,,,,,,,,,,,,,,,,188.09551548294257,None,188.09551548294257,None,188.09551548294257,None,4.0,10.010661153006367,188.09551548294257,None,188.09551548294257,None,3.0,14.11811656295322,194.33243150194176,None,188.09551548294257,None,4.0,16.758053878089413,201.76728491997343,None,188.09551548294257,None,space,0.7701479709940031,16.780793231911957,None,188.09551548294257,None,188.09551548294257,None,177.69320300791878,None,177.69320300791878,None,177.69320300791878,None,,,1,2022_Apr_01_1022,SAR-soap,2021.1.2,60.111076514205664,
6,Trial # 2,Group1-stimuli/group1-block1/fake-group2-b1/encoded_Group2_IMG_0386.jpg,0,encoded_Group2_IMG_0386.jpg,,,,,0.0,1.0,1.0,1.0,,,,,,,,,,,,,,,,,,,,,,,,,,,,,,,,,,,,,205.73535535403065,None,205.73535535403065,None,205.73535535403065,None,4.0,23.6751236730488,205.73535535403065,None,205.73535535403065,None,2.0,27.76429919700604,228.95965950598475,None,205.73535535403065,None,4.0,33.03881253302097,230.32555707299616,None,205.73535535403065,None,space,0.9482358499662952,33.070130293490365,None,205.73535535403065,None,205.73535535403065,None,,,,,,,,,1,2022_Apr_01_1022,SAR-soap,2021.1.2,60.111076514205664,
7,Trial # 3,Group1-stimuli/group1-block1/real-group1-b1/Group1_IMG_9704.jpg,1,Group1_IMG_9704.jpg,,,,,0.0,2.0,2.0,2.0,,,,,,,,,,,,,,,,,,,,,,,,,,,,,,,,,,,,,239.79615903599188,None,239.79615903599188,None,239.79615903599188,None,2.0,7.138917085016146,239.79615903599188,None,239.79615903599188,None,1.0,4.610616434016265,242.5462721990189,None,239.79615903599188,None,1.0,11.952644050936216,243.98090623901223,None,239.79615903599188,None,space,-3.111280637094751,11.986237345961854,None,239.79615903599188,None,239.79615903599188,None,,,,,,,,,1,2022_Apr_01_1022,SAR-soap,2021.1.2,60.111076514205664,
8,Trial # 4,Group1-stimuli/group1-block1/real-group1-b1/Group1_IMG_0406.jpg,1,Group1_IMG_0406.jpg,,,,,0.0,3.0,3.0,3.0,,,,,,,,,,,,,,,,,,,,,,,,,,,,,,,,,,,,,251.83247358794324,None,251.83247358794324,None,251.83247358794324,None,5.0,8.829302700003609,251.83247358794324,None,251.83247358794324,None,2.0,12.685253317002209,260.2029164119158,None,251.83247358794324,None,4.0,15.826156926923431,264.06928320997395,None,251.83247358794324,None,space,1.191868473077193,15.84839341044426,None,251.83247358794324,None,251.83247358794324,None,,,,,,,,,1,2022_Apr_01_1022,SAR-soap,2021.1.2,60.111076514205664,
9,Trial # 5,Group1-stimuli/group1-block1/fake-group2-b1/encoded_Group2_IMG_0364.jpg,0,encoded_Group2_IMG_0364.jpg,,,,,0.0,4.0,4.0,4.0,,,,,,,,,,,,,,,,,,,,,,,,,,,,,,,,,,,,,268.9214247229975,None,268.9214247229975,None,268.9214247229975,None,2.0,5.404635215993039,268.9214247229975,None,268.9214247229975,None,1.0,8.276873964001425,273.87252116191667,None,268.9214247229975,None,1.0,9.648584370967,276.7563361800276,None,268.9214247229975,None,space,2.624100929009728,9.682935165823435,None,268.9214247229975,None,268.9214247229975,None,,,,,,,,,1,2022_Apr_01_1022,SAR-soap,2021.1.2,60.111076514205664,
10,Trial # 6,Group1-stimuli/group1-block1/fake-group2-b1/encoded_Group2_IMG_0407.jpg,0,encoded_Group2_IMG_0407.jpg,,,,,0.0,5.0,5.0,5.0,,,,,,,,,,,,,,,,,,,,,,,,,,,,,,,,,,,,,281.2740423650248,None,281.2740423650248,None,281.2740423650248,None,5.0,3.0765782829839736,281.2740423650248,None,281.2740423650248,None,3.0,4.834395061945543,283.89281915395986,None,281.2740423650248,None,3.0,6.972808341961354,285.65914134297054,None,281.2740423650248,None,space,1.1862857970409095,6.997849100618623,None,281.2740423650248,None,281.2740423650248,None,,,,,,,,,1,2022_Apr_01_1022,SAR-soap,2021.1.2,60.111076514205664,
11,Trial # 7,Group1-stimuli/group1-block1/real-group1-b1/Group1_IMG_0428.jpg,1,Group1_IMG_0428.jpg,,,,,0.0,6.0,6.0,6.0,,,,,,,,,,,,,,,,,,,,,,,,,,,,,,,,,,,,,289.51016071997583,None,289.51016071997583,None,289.51016071997583,None,6.0,3.95827993308194,289.51016071997583,None,289.51016071997583,None,5.0,12.36671651294455,293.0120557799237,None,289.51016071997583,None,5.0,18.27255909703672,301.430705124978,None,289.51016071997583,None,space,4.115923073026352,14.593932307558134,None,289.51016071997583,None,289.51016071997583,None,,,,,,,,,1,2022_Apr_01_1022,SAR-soap,2021.1.2,60.111076514205664,
12,Trial # 8,Group1-stimuli/group1-block1/fake-group2-b1/encoded_Group2_IMG_0474.jpg,0,encoded_Group2_IMG_0474.jpg,,,,,0.0,7.0,7.0,7.0,,,,,,,,,,,,,,,,,,,,,,,,,,,,,,,,,,,,,308.26574436796363,None,308.26574436796363,None,308.26574436796363,None,2.0,8.860922768013552,308.26574436796363,None,308.26574436796363,None,1.0,5.232226955005899,312.0505618599709,None,308.26574436796363,None,1.0,7.572961571044289,313.05083071195986,None,308.26574436796363,None,space,2.401874926057644,7.595809484948404,None,308.26574436796363,None,308.26574436796363,None,,,,,,,,,1,2022_Apr_01_1022,SAR-soap,2021.1.2,60.111076514205664,
13,Trial # 9,Group1-stimuli/group1-block1/fake-group2-b1/encoded_Group2_IMG_1506.jpg,0,encoded_Group2_IMG_1506.jpg,,,,,0.0,8.0,8.0,8.0,,,,,,,,,,,,,,,,,,,,,,,,,,,,,,,,,,,,,318.3192016889807,None,318.3192016889807,None,318.3192016889807,None,7.0,4.980250934022479,318.3192016889807,None,318.3192016889807,None,6.0,14.039824743987992,322.8540754669812,None,318.3192016889807,None,4.0,21.314311770023775,331.92440135695506,None,318.3192016889807,None,space,0.6271375770447776,21.34144582645968,None,318.3192016889807,None,318.3192016889807,None,,,,,,,,,1,2022_Apr_01_1022,SAR-soap,2021.1.2,60.111076514205664,
14,Trial # 10,Group1-stimuli/group1-block1/real-group1-b1/Group1_IMG_9789.jpg,1,Group1_IMG_9789.jpg,,,,,0.0,9.0,9.0,9.0,,,,,,,,,,,,,,,,,,,,,,,,,,,,,,,,,,,,,340.3437332289759,None,340.3437332289759,None,340.3437332289759,None,2.0,3.560081274015829,340.3437332289759,None,340.3437332289759,None,1.0,4.266793831018731,342.1601838970091,None,340.3437332289759,None,1.0,5.505954258027487,344.1617666509701,None,340.3437332289759,None,space,0.5131162860197946,5.529100381419994,None,340.3437332289759,None,340.3437332289759,None,,,,,,,,,1,2022_Apr_01_1022,SAR-soap,2021.1.2,60.111076514205664,
15,Trial # 11,Group1-stimuli/group1-block1/real-group1-b1/Group1_IMG_9778.jpg,1,Group1_IMG_9778.jpg,,,,,0.0,10.0,10.0,10.0,,,,,,,,,,,,,,,,,,,,,,,,,,,,,,,,,,,,,346.44557845802046,None,346.44557845802046,None,346.44557845802046,None,5.0,3.3618929570075125,346.44557845802046,None,346.44557845802046,None,4.0,8.18678181397263,349.3457962269895,None,346.44557845802046,None,5.0,12.660261687007733,354.1814506460214,None,346.44557845802046,None,space,4.810720597975887,10.31826863239985,None,346.44557845802046,None,346.44557845802046,None,,,,,,,,,1,2022_Apr_01_1022,SAR-soap,2021.1.2,60.111076514205664,
16,Trial # 12,Group1-stimuli/group1-block1/real-group1-b1/Group1_IMG_9813.jpg,1,Group1_IMG_9813.jpg,,,,,0.0,11.0,11.0,11.0,,,,,,,,,,,,,,,,,,,,,,,,,,,,,,,,,,,,,361.63306100294,None,361.63306100294,None,361.63306100294,None,2.0,4.715130235999823,361.63306100294,None,361.63306100294,None,1.0,5.653115216991864,365.4180392170092,None,361.63306100294,None,1.0,6.692144791944884,366.8509315709816,None,361.63306100294,None,space,0.4706759040709585,6.718857615021989,None,361.63306100294,None,361.63306100294,None,,,,,,,,,1,2022_Apr_01_1022,SAR-soap,2021.1.2,60.111076514205664,
17,Trial # 13,Group1-stimuli/group1-block1/real-group1-b1/Group1_IMG_0516.jpg,1,Group1_IMG_0516.jpg,,,,,0.0,12.0,12.0,12.0,,,,,,,,,,,,,,,,,,,,,,,,,,,,,,,,,,,,,368.8861113289604,None,368.8861113289604,None,368.8861113289604,None,7.0,4.168315683025867,368.8861113289604,None,368.8861113289604,None,4.0,6.557385741965845,372.60241171193775,None,368.8861113289604,None,7.0,8.66357000300195,375.0044862629147,None,368.8861113289604,None,space,1.3558804329950362,8.69323418138083,None,368.8861113289604,None,368.8861113289604,None,,,,,,,,,1,2022_Apr_01_1022,SAR-soap,2021.1.2,60.111076514205664,
18,Trial # 14,Group1-stimuli/group1-block1/fake-group2-b1/encoded_Group2_IMG_0038.jpg,0,encoded_Group2_IMG_0038.jpg,,,,,0.0,13.0,13.0,13.0,,,,,,,,,,,,,,,,,,,,,,,,,,,,,,,,,,,,,378.9720073529752,None,378.9720073529752,None,378.9720073529752,None,5.0,10.317661107052118,378.9720073529752,None,378.9720073529752,None,3.0,13.756723974947818,385.1242695539258,None,378.9720073529752,None,4.0,16.330598863074556,392.29233743296936,None,378.9720073529752,None,space,0.5840060700429603,16.35829895536881,None,378.9720073529752,None,378.9720073529752,None,,,,,,,,,1,2022_Apr_01_1022,SAR-soap,2021.1.2,60.111076514205664,
19,Trial # 15,Group1-stimuli/group1-block1/real-group1-b1/Group1_IMG_5984.jpg,1,Group1_IMG_5984.jpg,,,,,0.0,14.0,14.0,14.0,,,,,,,,,,,,,,,,,,,,,,,,,,,,,,,,,,,,,395.9603172990028,None,395.9603172990028,None,395.9603172990028,None,2.0,4.027262911084108,395.9603172990028,None,395.9603172990028,None,1.0,4.717372198938392,399.5287462299457,None,395.9603172990028,None,1.0,5.623116528033279,400.2279866039753,None,395.9603172990028,None,space,0.4513745539588853,5.646400582976639,None,395.9603172990028,None,395.9603172990028,None,,,,,,,,,1,2022_Apr_01_1022,SAR-soap,2021.1.2,60.111076514205664,
20,Trial # 16,Group1-stimuli/group1-block1/real-group1-b1/Group1_IMG_0383.jpg,1,Group1_IMG_0383.jpg,,,,,0.0,15.0,15.0,15.0,,,,,,,,,,,,,,,,,,,,,,,,,,,,,,,,,,,,,402.0953074449208,None,402.0953074449208,None,402.0953074449208,None,6.0,6.061127578024752,402.0953074449208,None,402.0953074449208,None,4.0,9.317452810006216,407.6972674760036,None,402.0953074449208,None,7.0,12.091025157948025,410.9646734279813,None,402.0953074449208,None,space,0.5673215839779004,12.114533944870344,None,402.0953074449208,None,402.0953074449208,None,,,,,,,,,1,2022_Apr_01_1022,SAR-soap,2021.1.2,60.111076514205664,
21,Trial # 17,Group1-stimuli/group1-block1/fake-group2-b1/encoded_Group2_IMG_0456.jpg,0,encoded_Group2_IMG_0456.jpg,,,,,0.0,16.0,16.0,16.0,,,,,,,,,,,,,,,,,,,,,,,,,,,,,,,,,,,,,414.8491539970273,None,414.8491539970273,None,414.8491539970273,None,6.0,3.513269459013827,414.8491539970273,None,414.8491539970273,None,4.0,5.036799047957175,417.9163905059686,None,414.8491539970273,None,5.0,7.142627350054681,419.4508544140263,None,414.8491539970273,None,space,0.1959174029761925,7.168830351904035,None,414.8491539970273,None,414.8491539970273,None,,,,,,,,,1,2022_Apr_01_1022,SAR-soap,2021.1.2,60.111076514205664,
22,Trial # 18,Group1-stimuli/group1-block1/fake-group2-b1/encoded_Group2_IMG_8390.jpg,0,encoded_Group2_IMG_8390.jpg,,,,,0.0,17.0,17.0,17.0,,,,,,,,,,,,,,,,,,,,,,,,,,,,,,,,,,,,,422.2513869079994,None,422.2513869079994,None,422.2513869079994,None,5.0,4.404116685967892,422.2513869079994,None,422.2513869079994,None,3.0,6.693107420927845,426.2026656989474,None,422.2513869079994,None,7.0,9.431499785045162,428.5032091109315,None,422.2513869079994,None,space,0.2855431149946525,9.466231171507388,None,422.2513869079994,None,422.2513869079994,None,,,,,,,,,1,2022_Apr_01_1022,SAR-soap,2021.1.2,60.111076514205664,
23,Trial # 19,Group1-stimuli/group1-block1/real-group1-b1/Group1_IMG_0011.jpg,1,Group1_IMG_0011.jpg,,,,,0.0,18.0,18.0,18.0,,,,,,,,,,,,,,,,,,,,,,,,,,,,,,,,,,,,,432.8545976879541,None,432.8545976879541,None,432.8545976879541,None,6.0,5.505241942009889,432.8545976879541,None,432.8545976879541,None,4.0,7.29549438401591,437.9063136449549,None,432.8545976879541,None,6.0,9.333646744955333,439.7071898749564,None,432.8545976879541,None,space,1.4059969239169732,8.597897604922764,None,432.8545976879541,None,432.8545976879541,None,,,,,,,,,1,2022_Apr_01_1022,SAR-soap,2021.1.2,60.111076514205664,
24,Trial # 20,Group1-stimuli/group1-block1/fake-group2-b1/encoded_Group2_IMG_0328.jpg,0,encoded_Group2_IMG_0328.jpg,,,,,0.0,19.0,19.0,19.0,,,,,,,,,,,,,,,,,,,,,,,,,,,,,,,,,,,,,442.9076189650223,None,442.9076189650223,None,442.9076189650223,None,2.0,3.233140219002962,442.9076189650223,None,442.9076189650223,None,1.0,4.18911284499336,445.6929244259373,None,442.9076189650223,None,2.0,5.62713649799116,446.65941526694223,None,442.9076189650223,None,space,4.470781589043327,5.656371767399833,None,442.9076189650223,None,442.9076189650223,None,,,,,,,,,1,2022_Apr_01_1022,SAR-soap,2021.1.2,60.111076514205664,
25,Trial # 21,Group1-stimuli/group1-block1/fake-group2-b1/encoded_Group2_IMG_0163.jpg,0,encoded_Group2_IMG_0163.jpg,,,,,0.0,20.0,20.0,20.0,,,,,,,,,,,,,,,,,,,,,,,,,,,,,,,,,,,,,453.0935492749559,None,453.0935492749559,None,453.0935492749559,None,7.0,2.646155857015401,453.0935492749559,None,453.0935492749559,None,6.0,7.170071093016304,455.2784533270169,None,453.0935492749559,None,7.0,8.708798228995875,459.81295467796735,None,453.0935492749559,None,space,0.2326898749452084,8.735531233949587,None,453.0935492749559,None,453.0935492749559,None,,,,,,,,,1,2022_Apr_01_1022,SAR-soap,2021.1.2,60.111076514205664,
26,Trial # 22,Group1-stimuli/group1-block1/real-group1-b1/Group1_IMG_9862.jpg,1,Group1_IMG_9862.jpg,,,,,0.0,21.0,21.0,21.0,,,,,,,,,,,,,,,,,,,,,,,,,,,,,,,,,,,,,462.0796104869805,None,462.0796104869805,None,462.0796104869805,None,2.0,2.998828712035902,462.0796104869805,None,462.0796104869805,None,1.0,6.021773772896268,464.631242838921,None,462.0796104869805,None,2.0,6.725976497982629,467.6658261729172,None,462.0796104869805,None,space,5.646818969049491,6.753310640458949,None,462.0796104869805,None,462.0796104869805,None,,,,,,,,,1,2022_Apr_01_1022,SAR-soap,2021.1.2,60.111076514205664,
27,Trial # 23,Group1-stimuli/group1-block1/fake-group2-b1/encoded_Group2_IMG_0296.jpg,0,encoded_Group2_IMG_0296.jpg,,,,,0.0,22.0,22.0,22.0,,,,,,,,,,,,,,,,,,,,,,,,,,,,,,,,,,,,,474.5515740439296,None,474.5515740439296,None,474.5515740439296,None,6.0,3.4585331159178168,474.5515740439296,None,474.5515740439296,None,5.0,4.1986781699815765,476.8017400229583,None,474.5515740439296,None,5.0,5.7048325159121305,478.301550754928,None,474.5515740439296,None,space,1.456798460916616,5.727905313367955,None,474.5515740439296,None,474.5515740439296,None,,,,,,,,,1,2022_Apr_01_1022,SAR-soap,2021.1.2,60.111076514205664,
28,Trial # 24,Group1-stimuli/group1-block1/fake-group2-b1/encoded_Group2_IMG_0503.jpg,0,encoded_Group2_IMG_0503.jpg,,,,,0.0,23.0,23.0,23.0,,,,,,,,,,,,,,,,,,,,,,,,,,,,,,,,,,,,,481.7693878209684,None,481.7693878209684,None,481.7693878209684,None,5.0,2.849322156049311,481.7693878209684,None,481.7693878209684,None,5.0,4.105640253983438,484.1717400490306,None,481.7693878209684,None,6.0,5.411108936998062,485.438483217964,None,481.7693878209684,None,space,0.7967476720223203,4.971760730375536,None,481.7693878209684,None,481.7693878209684,None,,,,,,,,,1,2022_Apr_01_1022,SAR-soap,2021.1.2,60.111076514205664,
29,Trial # 25,Group1-stimuli/group1-block1/fake-group2-b1/encoded_Group2_IMG_9804.jpg,0,encoded_Group2_IMG_9804.jpg,,,,,0.0,24.0,24.0,24.0,,,,,,,,,,,,,,,,,,,,,,,,,,,,,,,,,,,,,487.55470361502375,None,487.55470361502375,None,487.55470361502375,None,2.0,1.9812212749384344,487.55470361502375,None,487.55470361502375,None,1.0,3.27030100801494,489.0894355819328,None,487.55470361502375,None,1.0,5.042209136998281,490.38949301396497,None,487.55470361502375,None,space,0.2306296130409464,5.070258286083117,None,487.55470361502375,None,487.55470361502375,None,,,,,,,,,1,2022_Apr_01_1022,SAR-soap,2021.1.2,60.111076514205664,
30,Trial # 26,Group1-stimuli/group1-block1/real-group1-b1/Group1_IMG_0391.jpg,1,Group1_IMG_0391.jpg,,,,,0.0,25.0,25.0,25.0,,,,,,,,,,,,,,,,,,,,,,,,,,,,,,,,,,,,,492.906419106992,None,492.906419106992,None,492.906419106992,None,4.0,11.366448175976984,492.906419106992,None,492.906419106992,None,1.0,18.2067866519792,495.3585413609399,None,492.906419106992,None,3.0,22.979118685005236,505.8270876979223,None,492.906419106992,None,space,0.6289400339592248,23.006469975574877,None,492.906419106992,None,492.906419106992,None,,,,,,,,,1,2022_Apr_01_1022,SAR-soap,2021.1.2,60.111076514205664,
31,Trial # 27,Group1-stimuli/group1-block1/fake-group2-b1/encoded_Group2_IMG_3584.jpg,0,encoded_Group2_IMG_3584.jpg,,,,,0.0,26.0,26.0,26.0,,,,,,,,,,,,,,,,,,,,,,,,,,,,,,,,,,,,,516.5633353829617,None,516.5633353829617,None,516.5633353829617,None,5.0,4.13135213998612,516.5633353829617,None,516.5633353829617,None,2.0,7.255118109053001,520.2492070459994,None,516.5633353829617,None,4.0,12.86387801298406,523.3821427340154,None,516.5633353829617,None,space,2.3647208590991795,10.857546969433317,None,516.5633353829617,None,516.5633353829617,None,,,,,,,,,1,2022_Apr_01_1022,SAR-soap,2021.1.2,60.111076514205664,
32,Trial # 28,Group1-stimuli/group1-block1/fake-group2-b1/encoded_Group2_IMG_0434.jpg,0,encoded_Group2_IMG_0434.jpg,,,,,0.0,27.0,27.0,27.0,,,,,,,,,,,,,,,,,,,,,,,,,,,,,,,,,,,,,529.8523215309251,None,529.8523215309251,None,529.8523215309251,None,6.0,3.277020683977753,529.8523215309251,None,529.8523215309251,None,5.0,6.367081786040217,532.6681382509414,None,529.8523215309251,None,7.0,10.973174051963724,535.7694594740169,None,529.8523215309251,None,space,0.2957134570460766,10.999182861996816,None,529.8523215309251,None,529.8523215309251,None,,,,,,,,,1,2022_Apr_01_1022,SAR-soap,2021.1.2,60.111076514205664,
33,Trial # 29,Group1-stimuli/group1-block1/fake-group2-b1/encoded_Group2_IMG_9575.jpg,0,encoded_Group2_IMG_9575.jpg,,,,,0.0,28.0,28.0,28.0,,,,,,,,,,,,,,,,,,,,,,,,,,,,,,,,,,,,,541.1876203259453,None,541.1876203259453,None,541.1876203259453,None,3.0,6.9798463539918885,541.1876203259453,None,541.1876203259453,None,2.0,11.353210213012062,544.5898857290158,None,541.1876203259453,None,2.0,14.12737154494971,552.0914863669313,None,541.1876203259453,None,space,0.3679322690004483,14.152527147438375,None,541.1876203259453,None,541.1876203259453,None,,,,,,,,,1,2022_Apr_01_1022,SAR-soap,2021.1.2,60.111076514205664,
34,Trial # 30,Group1-stimuli/group1-block1/fake-group2-b1/encoded_Group2_IMG_1025.jpg,0,encoded_Group2_IMG_1025.jpg,,,,,0.0,29.0,29.0,29.0,,,,,,,,,,,,,,,,,,,,,,,,,,,,,,,,,,,,,555.7423473589588,None,555.7423473589588,None,555.7423473589588,None,2.0,4.347697893041186,555.7423473589588,None,555.7423473589588,None,1.0,4.969395755906589,559.6445764499949,None,555.7423473589588,None,1.0,5.941431193030439,560.2771360529587,None,555.7423473589588,None,space,0.4473335919901728,5.968998689088039,None,555.7423473589588,None,555.7423473589588,None,,,,,,,,,1,2022_Apr_01_1022,SAR-soap,2021.1.2,60.111076514205664,
35,Trial # 31,Group1-stimuli/group1-block1/real-group1-b1/Group1_IMG_0502.jpg,1,Group1_IMG_0502.jpg,,,,,0.0,30.0,30.0,30.0,,,,,,,,,,,,,,,,,,,,,,,,,,,,,,,,,,,,,562.2280242979759,None,562.2280242979759,None,562.2280242979759,None,6.0,4.861792145064101,562.2280242979759,None,562.2280242979759,None,6.0,8.369195855106227,566.6293023119215,None,562.2280242979759,None,7.0,9.808768657967448,570.1467842879938,None,562.2280242979759,None,space,0.3743836740031838,9.834510380518624,None,562.2280242979759,None,562.2280242979759,None,,,,,,,,,1,2022_Apr_01_1022,SAR-soap,2021.1.2,60.111076514205664,
36,Trial # 32,Group1-stimuli/group1-block1/real-group1-b1/Group1_IMG_0182.jpg,1,Group1_IMG_0182.jpg,,,,,0.0,31.0,31.0,31.0,,,,,,,,,,,,,,,,,,,,,,,,,,,,,,,,,,,,,572.5813486080151,None,572.5813486080151,None,572.5813486080151,None,6.0,8.409048734931275,572.5813486080151,None,572.5813486080151,None,6.0,9.431797257973813,575.3657698850147,None,572.5813486080151,None,7.0,10.569866842008196,581.5670348990243,None,572.5813486080151,None,space,1.303361171972938,10.590171454008669,None,572.5813486080151,None,572.5813486080151,None,,,,,,,,,1,2022_Apr_01_1022,SAR-soap,2021.1.2,60.111076514205664,
37,Trial # 33,Group1-stimuli/group1-block1/fake-group2-b1/encoded_Group2_IMG_2728.jpg,0,encoded_Group2_IMG_2728.jpg,,,,,0.0,32.0,32.0,32.0,,,,,,,,,,,,,,,,,,,,,,,,,,,,,,,,,,,,,584.5344367920188,None,584.5344367920188,None,584.5344367920188,None,2.0,8.327216043020599,584.5344367920188,None,584.5344367920188,None,1.0,10.283623830997383,592.4038727419684,None,584.5344367920188,None,2.0,11.023169466061518,594.3710186339449,None,584.5344367920188,None,space,0.3708829039242118,11.046181123005226,None,584.5344367920188,None,584.5344367920188,None,,,,,,,,,1,2022_Apr_01_1022,SAR-soap,2021.1.2,60.111076514205664,
38,Trial # 34,Group1-stimuli/group1-block1/fake-group2-b1/encoded_Group2_IMG_4867.jpg,0,encoded_Group2_IMG_4867.jpg,,,,,0.0,33.0,33.0,33.0,,,,,,,,,,,,,,,,,,,,,,,,,,,,,,,,,,,,,596.0055965780048,None,596.0055965780048,None,596.0055965780048,None,7.0,6.182925363071263,596.0055965780048,None,596.0055965780048,None,4.0,9.556537947966715,599.4069043790223,None,596.0055965780048,None,7.0,11.66316726594232,605.1247231779853,None,596.0055965780048,None,space,0.3304346629884094,11.690968828392217,None,596.0055965780048,None,596.0055965780048,None,,,,,,,,,1,2022_Apr_01_1022,SAR-soap,2021.1.2,60.111076514205664,
39,Trial # 35,Group1-stimuli/group1-block1/real-group1-b1/Group1_IMG_9894.jpg,1,Group1_IMG_9894.jpg,,,,,0.0,34.0,34.0,34.0,,,,,,,,,,,,,,,,,,,,,,,,,,,,,,,,,,,,,608.0588053480024,None,608.0588053480024,None,608.0588053480024,None,1.0,5.591622448991984,608.0588053480024,None,608.0588053480024,None,1.0,5.9647777249338105,612.1429454939207,None,608.0588053480024,None,1.0,6.8705885340459645,613.5767475200118,None,608.0588053480024,None,space,0.893551548011601,6.890875278040767,None,608.0588053480024,None,608.0588053480024,None,,,,,,,,,1,2022_Apr_01_1022,SAR-soap,2021.1.2,60.111076514205664,
40,Trial # 36,Group1-stimuli/group1-block1/fake-group2-b1/encoded_Group2_IMG_0444.jpg,0,encoded_Group2_IMG_0444.jpg,,,,,0.0,35.0,35.0,35.0,,,,,,,,,,,,,,,,,,,,,,,,,,,,,,,,,,,,,615.8618706170237,None,615.8618706170237,None,615.8618706170237,None,5.0,3.4305707920575514,615.8618706170237,None,615.8618706170237,None,3.0,4.421062265988439,618.8467381970258,None,615.8618706170237,None,4.0,6.227977996924892,619.8454974310007,None,615.8618706170237,None,space,0.461940663983114,6.253211051924154,None,615.8618706170237,None,615.8618706170237,None,,,,,,,,,1,2022_Apr_01_1022,SAR-soap,2021.1.2,60.111076514205664,
41,Trial # 37,Group1-stimuli/group1-block1/real-group1-b1/Group1_IMG_2656.jpg,1,Group1_IMG_2656.jpg,,,,,0.0,36.0,36.0,36.0,,,,,,,,,,,,,,,,,,,,,,,,,,,,,,,,,,,,,622.6129542699782,None,622.6129542699782,None,622.6129542699782,None,2.0,5.294868643977679,622.6129542699782,None,622.6129542699782,None,1.0,6.352181643014774,627.4477421219926,None,622.6129542699782,None,2.0,9.224558347952552,628.5149142299779,None,622.6129542699782,None,space,0.7760016119573265,8.783138131955639,None,622.6129542699782,None,622.6129542699782,None,,,,,,,,,1,2022_Apr_01_1022,SAR-soap,2021.1.2,60.111076514205664,
42,Trial # 38,Group1-stimuli/group1-block1/real-group1-b1/Group1_IMG_0207.jpg,1,Group1_IMG_0207.jpg,,,,,0.0,37.0,37.0,37.0,,,,,,,,,,,,,,,,,,,,,,,,,,,,,,,,,,,,,632.215663373936,None,632.215663373936,None,632.215663373936,None,3.0,3.5904178399359807,632.215663373936,None,632.215663373936,None,1.0,4.513970447005704,635.3510082960129,None,632.215663373936,None,2.0,5.818547793081962,636.2847782919416,None,632.215663373936,None,space,0.2596978479996323,5.83927804895211,None,632.215663373936,None,632.215663373936,None,,,,,,,,,1,2022_Apr_01_1022,SAR-soap,2021.1.2,60.111076514205664,
43,Trial # 39,Group1-stimuli/group1-block1/real-group1-b1/Group1_IMG_9638.jpg,1,Group1_IMG_9638.jpg,,,,,0.0,38.0,38.0,38.0,,,,,,,,,,,,,,,,,,,,,,,,,,,,,,,,,,,,,638.3679685229436,None,638.3679685229436,None,638.3679685229436,None,6.0,2.9960619780467823,638.3679685229436,None,638.3679685229436,None,4.0,7.886777400039136,640.902853474021,None,638.3679685229436,None,7.0,9.592126119998284,643.7038947379915,None,638.3679685229436,None,space,0.4999619360314682,9.617478310596198,None,638.3679685229436,None,638.3679685229436,None,,,,,,,,,1,2022_Apr_01_1022,SAR-soap,2021.1.2,60.111076514205664,
44,Trial # 40,Group1-stimuli/group1-block1/real-group1-b1/Group1_IMG_0148.jpg,1,Group1_IMG_0148.jpg,,,,,0.0,39.0,39.0,39.0,,,,,,,,,,,,,,,,,,,,,,,,,,,,,,,,,,,,,648.5039492149372,None,648.5039492149372,None,648.5039492149372,None,7.0,3.406428754911758,648.5039492149372,None,648.5039492149372,None,6.0,4.995536468923092,651.4555396729847,None,648.5039492149372,None,7.0,7.269344856031239,653.0562142829876,None,648.5039492149372,None,space,0.3036554030841216,7.288769342005253,None,648.5039492149372,None,648.5039492149372,None,,,,,,,,,1,2022_Apr_01_1022,SAR-soap,2021.1.2,60.111076514205664,
45,Trial # 41,Group1-stimuli/group1-block1/real-group1-b1/Group1_IMG_2891.jpg,1,Group1_IMG_2891.jpg,,,,,0.0,40.0,40.0,40.0,,,,,,,,,,,,,,,,,,,,,,,,,,,,,,,,,,,,,656.1572070010006,None,656.1572070010006,None,656.1572070010006,None,4.0,7.045642344048247,656.1572070010006,None,656.1572070010006,None,1.0,9.11936903197784,658.1743099449668,None,656.1572070010006,None,3.0,11.69069279707037,664.8273810929386,None,656.1572070010006,None,space,0.4982502480270341,11.7145224789856,None,656.1572070010006,None,656.1572070010006,None,,,,,,,,,1,2022_Apr_01_1022,SAR-soap,2021.1.2,60.111076514205664,
46,Trial # 42,Group1-stimuli/group1-block1/real-group1-b1/Group1_IMG_0157.jpg,1,Group1_IMG_0157.jpg,,,,,0.0,41.0,41.0,41.0,,,,,,,,,,,,,,,,,,,,,,,,,,,,,,,,,,,,,668.3935841720086,None,668.3935841720086,None,668.3935841720086,None,6.0,3.684315814054571,668.3935841720086,None,668.3935841720086,None,5.0,6.140972594963387,671.6290221379604,None,668.3935841720086,None,6.0,13.08080934593454,674.0965286609717,None,668.3935841720086,None,space,4.038966589025222,9.675789718399756,None,668.3935841720086,None,668.3935841720086,None,,,,,,,,,1,2022_Apr_01_1022,SAR-soap,2021.1.2,60.111076514205664,
47,Trial # 43,Group1-stimuli/group1-block1/real-group1-b1/Group1_IMG_9833.jpg,1,Group1_IMG_9833.jpg,,,,,0.0,42.0,42.0,42.0,,,,,,,,,,,,,,,,,,,,,,,,,,,,,,,,,,,,,682.1651058220305,None,682.1651058220305,None,682.1651058220305,None,1.0,4.914857786032371,682.1651058220305,None,682.1651058220305,None,1.0,5.97126080293674,686.6326722159283,None,682.1651058220305,None,1.0,8.944747466943227,687.6992398229195,None,682.1651058220305,None,space,1.1994227590039372,8.973007666529156,None,682.1651058220305,None,682.1651058220305,None,,,,,,,,,1,2022_Apr_01_1022,SAR-soap,2021.1.2,60.111076514205664,
48,Trial # 44,Group1-stimuli/group1-block1/fake-group2-b1/encoded_Group2_IMG_2230.jpg,0,encoded_Group2_IMG_2230.jpg,,,,,0.0,43.0,43.0,43.0,,,,,,,,,,,,,,,,,,,,,,,,,,,,,,,,,,,,,692.3681132219499,None,692.3681132219499,None,692.3681132219499,None,6.0,5.052347637014464,692.3681132219499,None,692.3681132219499,None,5.0,5.774660855066031,696.9699719239725,None,692.3681132219499,None,6.0,7.115425819996744,697.7024725839728,None,692.3681132219499,None,space,0.310636627022177,7.147845582454465,None,692.3681132219499,None,692.3681132219499,None,,,,,,,,,1,2022_Apr_01_1022,SAR-soap,2021.1.2,60.111076514205664,
49,Trial # 45,Group1-stimuli/group1-block1/real-group1-b1/Group1_IMG_9966.jpg,1,Group1_IMG_9966.jpg,,,,,0.0,44.0,44.0,44.0,,,,,,,,,,,,,,,,,,,,,,,,,,,,,,,,,,,,,699.8708160779206,None,699.8708160779206,None,699.8708160779206,None,6.0,14.031256032991225,699.8708160779206,None,699.8708160779206,None,3.0,12.603571341955105,704.7064158850117,None,699.8708160779206,None,7.0,10.04260275606066,706.7719967010198,None,699.8708160779206,None,space,5.826204546960071,10.068405098514631,None,699.8708160779206,None,699.8708160779206,None,,,,,,,,,1,2022_Apr_01_1022,SAR-soap,2021.1.2,60.111076514205664,
50,Trial # 46,Group1-stimuli/group1-block1/real-group1-b1/Group1_IMG_0239.jpg,1,Group1_IMG_0239.jpg,,,,,0.0,45.0,45.0,45.0,,,,,,,,,,,,,,,,,,,,,,,,,,,,,,,,,,,,,715.8086049439153,None,715.8086049439153,None,715.8086049439153,None,2.0,2.9350943820318207,715.8086049439153,None,715.8086049439153,None,1.0,4.326092247036286,718.2931466059526,None,715.8086049439153,None,2.0,5.166742831934243,719.6932467540028,None,715.8086049439153,None,space,0.2278265680652111,5.199331020470709,None,715.8086049439153,None,715.8086049439153,None,,,,,,,,,1,2022_Apr_01_1022,SAR-soap,2021.1.2,60.111076514205664,
51,Trial # 47,Group1-stimuli/group1-block1/fake-group2-b1/encoded_Group2_IMG_0536.jpg,0,encoded_Group2_IMG_0536.jpg,,,,,0.0,46.0,46.0,46.0,,,,,,,,,,,,,,,,,,,,,,,,,,,,,,,,,,,,,721.2605036640307,None,721.2605036640307,None,721.2605036640307,None,1.0,6.727070088032633,721.2605036640307,None,721.2605036640307,None,1.0,7.217703136964701,727.5289605819853,None,721.2605036640307,None,1.0,7.75673468504101,728.0288967549568,None,721.2605036640307,None,space,0.3136163230519742,7.778853524010628,None,721.2605036640307,None,721.2605036640307,None,,,,,,,,,1,2022_Apr_01_1022,SAR-soap,2021.1.2,60.111076514205664,
52,Trial # 48,Group1-stimuli/group1-block1/fake-group2-b1/encoded_Group2_IMG_0521.jpg,0,encoded_Group2_IMG_0521.jpg,,,,,0.0,47.0,47.0,47.0,,,,,,,,,,,,,,,,,,,,,,,,,,,,,,,,,,,,,729.4126871769549,None,729.4126871769549,None,729.4126871769549,None,4.0,8.302773587987758,729.4126871769549,None,729.4126871769549,None,2.0,10.159147970960476,737.2655813900055,None,729.4126871769549,None,5.0,12.19953963602893,739.1329539299477,None,729.4126871769549,None,space,1.588658774970099,12.23093262000475,None,729.4126871769549,None,729.4126871769549,None,,,,,,,,,1,2022_Apr_01_1022,SAR-soap,2021.1.2,60.111076514205664,
53,Trial # 49,Group1-stimuli/group1-block1/fake-group2-b1/encoded_Group2_IMG_9924.jpg,0,encoded_Group2_IMG_9924.jpg,,,,,0.0,48.0,48.0,48.0,,,,,,,,,,,,,,,,,,,,,,,,,,,,,,,,,,,,,743.2671617859742,None,743.2671617859742,None,743.2671617859742,None,1.0,8.352113132947125,743.2671617859742,None,743.2671617859742,None,1.0,9.074798631016163,751.1699450570159,None,743.2671617859742,None,1.0,9.61391174804885,751.9030705819605,None,743.2671617859742,None,space,0.3833608760032803,9.644571017590351,None,743.2671617859742,None,743.2671617859742,None,,,,,,,,,1,2022_Apr_01_1022,SAR-soap,2021.1.2,60.111076514205664,
54,Trial # 50,Group1-stimuli/group1-block1/real-group1-b1/Group1_IMG_9730.jpg,1,Group1_IMG_9730.jpg,,,,,0.0,49.0,49.0,49.0,,,,,,,,,,,,,,,,,,,,,,,,,,,,,,,,,,,,,753.3361606219551,None,753.3361606219551,None,753.3361606219551,None,7.0,3.662789524998516,753.3361606219551,None,753.3361606219551,None,6.0,4.285871964995749,756.554572245921,None,753.3361606219551,None,6.0,7.025025616050698,757.1878041749587,None,753.3361606219551,None,space,0.3204033550573513,7.052350980462506,None,753.3361606219551,None,753.3361606219551,None,,,,,,,,,1,2022_Apr_01_1022,SAR-soap,2021.1.2,60.111076514205664,
55,Trial # 51,Group1-stimuli/group1-block1/real-group1-b1/Group1_IMG_0053.jpg,1,Group1_IMG_0053.jpg,,,,,0.0,50.0,50.0,50.0,,,,,,,,,,,,,,,,,,,,,,,,,,,,,,,,,,,,,760.773085245979,None,760.773085245979,None,760.773085245979,None,2.0,15.898628831026144,760.773085245979,None,760.773085245979,None,1.0,17.520622064941563,776.2109656799585,None,760.773085245979,None,2.0,19.12765128700994,777.8443437189562,None,760.773085245979,None,space,2.542896783910692,19.15094532258809,None,760.773085245979,None,760.773085245979,None,,,,,,,,,1,2022_Apr_01_1022,SAR-soap,2021.1.2,60.111076514205664,
56,Trial # 52,Group1-stimuli/group1-block1/real-group1-b1/Group1_IMG_9698.jpg,1,Group1_IMG_9698.jpg,,,,,0.0,51.0,51.0,51.0,,,,,,,,,,,,,,,,,,,,,,,,,,,,,,,,,,,,,782.5457733719377,None,782.5457733719377,None,782.5457733719377,None,2.0,5.846108146011829,782.5457733719377,None,782.5457733719377,None,1.0,7.986646934994496,787.931023868965,None,782.5457733719377,None,1.0,8.493496699957177,790.0816427259706,None,782.5457733719377,None,space,1.013410045998171,8.518385077943094,None,782.5457733719377,None,782.5457733719377,None,,,,,,,,,1,2022_Apr_01_1022,SAR-soap,2021.1.2,60.111076514205664,
57,Trial # 53,Group1-stimuli/group1-block1/fake-group2-b1/encoded_Group2_IMG_0553.jpg,0,encoded_Group2_IMG_0553.jpg,,,,,0.0,52.0,52.0,52.0,,,,,,,,,,,,,,,,,,,,,,,,,,,,,,,,,,,,,792.1148019039538,None,792.1148019039538,None,792.1148019039538,None,1.0,7.203298056963831,792.1148019039538,None,792.1148019039538,None,1.0,6.542573095997796,796.8843671149807,None,792.1148019039538,None,1.0,8.114929736009799,798.2166759419488,None,792.1148019039538,None,space,1.6668029290158302,8.145474425517023,None,792.1148019039538,None,792.1148019039538,None,,,,,,,,,1,2022_Apr_01_1022,SAR-soap,2021.1.2,60.111076514205664,
58,Trial # 54,Group1-stimuli/group1-block1/fake-group2-b1/encoded_Group2_IMG_9758.jpg,0,encoded_Group2_IMG_9758.jpg,,,,,0.0,53.0,53.0,53.0,,,,,,,,,,,,,,,,,,,,,,,,,,,,,,,,,,,,,801.93565484602,None,801.93565484602,None,801.93565484602,None,5.0,4.1480774419615045,801.93565484602,None,801.93565484602,None,5.0,5.46928504598327,805.6372176769655,None,801.93565484602,None,6.0,6.574914776952937,806.9706841430161,None,801.93565484602,None,space,0.7414112610276788,6.603272279025987,None,801.93565484602,None,801.93565484602,None,,,,,,,,,1,2022_Apr_01_1022,SAR-soap,2021.1.2,60.111076514205664,
59,Trial # 55,Group1-stimuli/group1-block1/fake-group2-b1/encoded_Group2_IMG_0339.jpg,0,encoded_Group2_IMG_0339.jpg,,,,,0.0,54.0,54.0,54.0,,,,,,,,,,,,,,,,,,,,,,,,,,,,,,,,,,,,,809.3218517110217,None,809.3218517110217,None,809.3218517110217,None,5.0,8.497765965992585,809.3218517110217,None,809.3218517110217,None,2.0,10.806060618022457,817.3735470309621,None,809.3218517110217,None,3.0,11.911627563997172,819.6917971699731,None,809.3218517110217,None,space,1.012932209065184,11.93846172990743,None,809.3218517110217,None,809.3218517110217,None,,,,,,,,,1,2022_Apr_01_1022,SAR-soap,2021.1.2,60.111076514205664,
60,Trial # 56,Group1-stimuli/group1-block1/real-group1-b1/Group1_IMG_0314.jpg,1,Group1_IMG_0314.jpg,,,,,0.0,55.0,55.0,55.0,,,,,,,,,,,,,,,,,,,,,,,,,,,,,,,,,,,,,822.3246528899763,None,822.3246528899763,None,822.3246528899763,None,3.0,8.26912104303483,822.3246528899763,None,822.3246528899763,None,2.0,11.008836687076837,830.1449558120221,None,822.3246528899763,None,3.0,12.215684630093165,832.894505706965,None,822.3246528899763,None,space,0.6755723209353164,12.246444581425749,None,822.3246528899763,None,822.3246528899763,None,,,,,,,,,1,2022_Apr_01_1022,SAR-soap,2021.1.2,60.111076514205664,
61,Trial # 57,Group1-stimuli/group1-block1/fake-group2-b1/encoded_Group2_IMG_0532.jpg,0,encoded_Group2_IMG_0532.jpg,,,,,0.0,56.0,56.0,56.0,,,,,,,,,,,,,,,,,,,,,,,,,,,,,,,,,,,,,835.3125694019254,None,835.3125694019254,None,835.3125694019254,None,6.0,5.5261157869827,835.3125694019254,None,835.3125694019254,None,3.0,8.098316732095554,840.3817170240218,None,835.3125694019254,None,6.0,9.339132992899977,842.9641182509949,None,835.3125694019254,None,space,0.8295555349905044,9.360075508477166,None,835.3125694019254,None,835.3125694019254,None,,,,,,,,,1,2022_Apr_01_1022,SAR-soap,2021.1.2,60.111076514205664,
62,Trial # 58,Group1-stimuli/group1-block1/fake-group2-b1/encoded_Group2_IMG_0462.jpg,0,encoded_Group2_IMG_0462.jpg,,,,,0.0,57.0,57.0,57.0,,,,,,,,,,,,,,,,,,,,,,,,,,,,,,,,,,,,,845.5316780179273,None,845.5316780179273,None,845.5316780179273,None,6.0,8.062448446056806,845.5316780179273,None,845.5316780179273,None,5.0,15.6707348509226,851.0846233039629,None,845.5316780179273,None,6.0,17.64289513998665,859.4206901839934,None,845.5316780179273,None,space,1.8745492739835756,17.66697376803495,None,845.5316780179273,None,845.5316780179273,None,,,,,,,,,1,2022_Apr_01_1022,SAR-soap,2021.1.2,60.111076514205664,
63,Trial # 59,Group1-stimuli/group1-block1/real-group1-b1/Group1_IMG_0172.jpg,1,Group1_IMG_0172.jpg,,,,,0.0,58.0,58.0,58.0,,,,,,,,,,,,,,,,,,,,,,,,,,,,,,,,,,,,,865.1386377599556,None,865.1386377599556,None,865.1386377599556,None,2.0,6.529808323015459,865.1386377599556,None,865.1386377599556,None,1.0,8.320271031931043,871.2236665419769,None,865.1386377599556,None,2.0,9.092600792995654,873.0238808389986,None,865.1386377599556,None,space,3.740039276075549,9.119703852920791,None,865.1386377599556,None,865.1386377599556,None,,,,,,,,,1,2022_Apr_01_1022,SAR-soap,2021.1.2,60.111076514205664,
64,Trial # 60,Group1-stimuli/group1-block1/real-group1-b1/Group1_IMG_4841.jpg,1,Group1_IMG_4841.jpg,,,,,0.0,59.0,59.0,59.0,,,,,,,,,,,,,,,,,,,,,,,,,,,,,,,,,,,,,878.0583943499951,None,878.0583943499951,None,878.0583943499951,None,6.0,3.033488576998934,878.0583943499951,None,878.0583943499951,None,4.0,6.24118575709872,880.059762942954,None,878.0583943499951,None,7.0,7.07965060393326,883.8607834519353,None,878.0583943499951,None,space,0.7898123160703108,7.109200578532182,None,878.0583943499951,None,878.0583943499951,None,,,,,,,,,1,2022_Apr_01_1022,SAR-soap,2021.1.2,60.111076514205664,
65,Trial # 61,Group1-stimuli/group1-block1/fake-group2-b1/encoded_Group2_IMG_0352.jpg,0,encoded_Group2_IMG_0352.jpg,,,,,0.0,60.0,60.0,60.0,,,,,,,,,,,,,,,,,,,,,,,,,,,,,,,,,,,,,885.9776137280278,None,885.9776137280278,None,885.9776137280278,None,1.0,4.015002975007519,885.9776137280278,None,885.9776137280278,None,1.0,6.070899475947954,889.5456422569696,None,885.9776137280278,None,1.0,7.976954815909266,891.6134292229544,None,885.9776137280278,None,space,0.7463518829317763,8.004974108072929,None,885.9776137280278,None,885.9776137280278,None,,,,,,,,,1,2022_Apr_01_1022,SAR-soap,2021.1.2,60.111076514205664,
66,Trial # 62,Group1-stimuli/group1-block1/fake-group2-b1/encoded_Group2_IMG_9726.jpg,0,encoded_Group2_IMG_9726.jpg,,,,,0.0,61.0,61.0,61.0,,,,,,,,,,,,,,,,,,,,,,,,,,,,,,,,,,,,,894.7642714239191,None,894.7642714239191,None,894.7642714239191,None,7.0,5.565109334071167,894.7642714239191,None,894.7642714239191,None,6.0,6.5556695680134,899.8835830920143,None,894.7642714239191,None,7.0,10.294608094962314,900.8831991580082,None,894.7642714239191,None,space,3.3732218130026013,7.487118988065049,None,894.7642714239191,None,894.7642714239191,None,,,,,,,,,1,2022_Apr_01_1022,SAR-soap,2021.1.2,60.111076514205664,
67,Trial # 63,Group1-stimuli/group1-block1/fake-group2-b1/encoded_Group2_IMG_9785.jpg,0,encoded_Group2_IMG_9785.jpg,,,,,0.0,62.0,62.0,62.0,,,,,,,,,,,,,,,,,,,,,,,,,,,,,,,,,,,,,905.6672155909472,None,905.6672155909472,None,905.6672155909472,None,5.0,7.397311493055895,905.6672155909472,None,905.6672155909472,None,2.0,10.838451080024242,910.5028900229372,None,905.6672155909472,None,4.0,13.042419554083608,916.0703595679952,None,905.6672155909472,None,space,0.7254192599793896,13.07028148905374,None,905.6672155909472,None,905.6672155909472,None,,,,,,,,,1,2022_Apr_01_1022,SAR-soap,2021.1.2,60.111076514205664,
68,Trial # 64,Group1-stimuli/group1-block1/fake-group2-b1/encoded_Group2_IMG_0440.jpg,0,encoded_Group2_IMG_0440.jpg,,,,,0.0,63.0,63.0,63.0,,,,,,,,,,,,,,,,,,,,,,,,,,,,,,,,,,,,,919.5379111069489,None,919.5379111069489,None,919.5379111069489,None,6.0,3.2577411190140992,919.5379111069489,None,919.5379111069489,None,3.0,10.750340069062077,922.3395742640132,None,919.5379111069489,None,4.0,12.288528493023476,924.7406490229768,None,919.5379111069489,None,space,0.828201440977864,12.310716563020833,None,919.5379111069489,None,919.5379111069489,None,,,,,,,,,1,2022_Apr_01_1022,SAR-soap,2021.1.2,60.111076514205664,
69,Trial # 65,Group1-stimuli/group1-block1/fake-group2-b1/encoded_Group2_IMG_1695.jpg,0,encoded_Group2_IMG_1695.jpg,,,,,0.0,64.0,64.0,64.0,,,,,,,,,,,,,,,,,,,,,,,,,,,,,,,,,,,,,932.7088443789398,None,932.7088443789398,None,932.7088443789398,None,2.0,5.817028230056167,932.7088443789398,None,932.7088443789398,None,1.0,6.538452240056358,938.0778054629918,None,932.7088443789398,None,2.0,7.477581717073917,938.811077783932,None,932.7088443789398,None,space,0.7555068649817258,7.5073643224313855,None,932.7088443789398,None,932.7088443789398,None,,,,,,,,,1,2022_Apr_01_1022,SAR-soap,2021.1.2,60.111076514205664,
70,Trial # 66,Group1-stimuli/group1-block1/real-group1-b1/Group1_IMG_0552.jpg,1,Group1_IMG_0552.jpg,,,,,0.0,65.0,65.0,65.0,,,,,,,,,,,,,,,,,,,,,,,,,,,,,,,,,,,,,941.01114507101,None,941.01114507101,None,941.01114507101,None,2.0,4.452669817954302,941.01114507101,None,941.01114507101,None,1.0,4.841792967985384,945.0128158379812,None,941.01114507101,None,1.0,6.381422120961361,945.4125770749524,None,941.01114507101,None,space,0.6566105030942708,6.414081322494894,None,941.01114507101,None,941.01114507101,None,,,,,,,,,1,2022_Apr_01_1022,SAR-soap,2021.1.2,60.111076514205664,
71,Trial # 67,Group1-stimuli/group1-block1/real-group1-b1/Group1_IMG_1029.jpg,1,Group1_IMG_1029.jpg,,,,,0.0,66.0,66.0,66.0,,,,,,,,,,,,,,,,,,,,,,,,,,,,,,,,,,,,,948.1133566530189,None,948.1133566530189,None,948.1133566530189,None,6.0,6.970589151023887,948.1133566530189,None,948.1133566530189,None,3.0,7.676127201062627,950.0984453719576,None,948.1133566530189,None,5.0,12.31668657111004,955.3492738039932,None,948.1133566530189,None,space,1.667187509010546,12.34977720642928,None,948.1133566530189,None,948.1133566530189,None,,,,,,,,,1,2022_Apr_01_1022,SAR-soap,2021.1.2,60.111076514205664,
72,Trial # 68,Group1-stimuli/group1-block1/fake-group2-b1/encoded_Group2_IMG_6517.jpg,0,encoded_Group2_IMG_6517.jpg,,,,,0.0,67.0,67.0,67.0,,,,,,,,,,,,,,,,,,,,,,,,,,,,,,,,,,,,,962.1845269399928,None,962.1845269399928,None,962.1845269399928,None,1.0,14.368868399993517,962.1845269399928,None,962.1845269399928,None,1.0,15.242533141048623,968.7367311819688,None,962.1845269399928,None,1.0,15.94543808407616,976.9889361689566,None,962.1845269399928,None,space,0.6425991540309042,15.974911328405142,None,962.1845269399928,None,962.1845269399928,None,,,,,,,,,1,2022_Apr_01_1022,SAR-soap,2021.1.2,60.111076514205664,
73,Trial # 69,Group1-stimuli/group1-block1/fake-group2-b1/encoded_Group2_IMG_0002.jpg,0,encoded_Group2_IMG_0002.jpg,,,,,0.0,68.0,68.0,68.0,,,,,,,,,,,,,,,,,,,,,,,,,,,,,,,,,,,,,978.873590653995,None,978.873590653995,None,978.873590653995,None,5.0,7.641667201998644,978.873590653995,None,978.873590653995,None,3.0,8.731669430970214,986.058678825968,None,978.873590653995,None,5.0,11.338153788936324,987.1585499990032,None,978.873590653995,None,space,1.7426087289350107,10.124806618550792,None,978.873590653995,None,978.873590653995,None,,,,,,,,,1,2022_Apr_01_1022,SAR-soap,2021.1.2,60.111076514205664,
74,Trial # 70,Group1-stimuli/group1-block1/real-group1-b1/Group1_IMG_0495.jpg,1,Group1_IMG_0495.jpg,,,,,0.0,69.0,69.0,69.0,,,,,,,,,,,,,,,,,,,,,,,,,,,,,,,,,,,,,990.7931503249564,None,990.7931503249564,None,990.7931503249564,None,1.0,9.118592193932272,990.7931503249564,None,990.7931503249564,None,1.0,9.509224332985468,999.4639047969832,None,990.7931503249564,None,1.0,10.51472248393111,999.863369859988,None,990.7931503249564,None,space,0.483639728045091,10.546729433583096,None,990.7931503249564,None,990.7931503249564,None,,,,,,,,,1,2022_Apr_01_1022,SAR-soap,2021.1.2,60.111076514205664,
75,Trial # 71,Group1-stimuli/group1-block1/real-group1-b1/Group1_IMG_1391.jpg,1,Group1_IMG_1391.jpg,,,,,0.0,70.0,70.0,70.0,,,,,,,,,,,,,,,,,,,,,,,,,,,,,,,,,,,,,1001.8630990129896,None,1001.8630990129896,None,1001.8630990129896,None,6.0,5.118029460078105,1001.8630990129896,None,1001.8630990129896,None,4.0,8.324204684933648,1003.4807927989168,None,1001.8630990129896,None,6.0,9.396630996023305,1009.7492266870104,None,1001.8630990129896,None,space,0.5718409318942577,9.426609378424471,None,1001.8630990129896,None,1001.8630990129896,None,,,,,,,,,1,2022_Apr_01_1022,SAR-soap,2021.1.2,60.111076514205664,
76,Trial # 72,Group1-stimuli/group1-block1/real-group1-b1/Group1_IMG_0343.jpg,1,Group1_IMG_0343.jpg,,,,,0.0,71.0,71.0,71.0,,,,,,,,,,,,,,,,,,,,,,,,,,,,,,,,,,,,,1011.915997296921,None,1011.915997296921,None,1011.915997296921,None,3.0,3.061644533998333,1011.915997296921,None,1011.915997296921,None,1.0,5.2003583029145375,1014.5190867729252,None,1011.915997296921,None,2.0,6.239864397095516,1016.6682045659982,None,1011.915997296921,None,space,2.3421326230745763,6.2634393610060215,None,1011.915997296921,None,1011.915997296921,None,,,,,,,,,1,2022_Apr_01_1022,SAR-soap,2021.1.2,60.111076514205664,
77,Trial # 73,Group1-stimuli/group1-block1/fake-group2-b1/encoded_Group2_IMG_9810.jpg,0,encoded_Group2_IMG_9810.jpg,,,,,0.0,72.0,72.0,72.0,,,,,,,,,,,,,,,,,,,,,,,,,,,,,,,,,,,,,1020.5531101969536,None,1020.5531101969536,None,1020.5531101969536,None,1.0,7.813945772009902,1020.5531101969536,None,1020.5531101969536,None,1.0,4.25417422503233,1023.304497234989,None,1020.5531101969536,None,1.0,6.624645297066309,1024.370600212016,None,1020.5531101969536,None,space,1.9374239430762827,6.653797443956137,None,1020.5531101969536,None,1020.5531101969536,None,,,,,,,,,1,2022_Apr_01_1022,SAR-soap,2021.1.2,60.111076514205664,
78,Trial # 74,Group1-stimuli/group1-block1/fake-group2-b1/encoded_Group2_IMG_5900.jpg,0,encoded_Group2_IMG_5900.jpg,,,,,0.0,73.0,73.0,73.0,,,,,,,,,,,,,,,,,,,,,,,,,,,,,,,,,,,,,1029.1891620539827,None,1029.1891620539827,None,1029.1891620539827,None,3.0,2.921205481979996,1029.1891620539827,None,1029.1891620539827,None,1.0,5.294451377005316,1030.9228321969276,None,1029.1891620539827,None,2.0,7.000745348981582,1034.0579044700137,None,1029.1891620539827,None,space,3.1737079930026084,7.035241005360149,None,1029.1891620539827,None,1029.1891620539827,None,,,,,,,,,1,2022_Apr_01_1022,SAR-soap,2021.1.2,60.111076514205664,
79,Trial # 75,Group1-stimuli/group1-block1/real-group1-b1/Group1_IMG_9679.jpg,1,Group1_IMG_9679.jpg,,,,,0.0,74.0,74.0,74.0,,,,,,,,,,,,,,,,,,,,,,,,,,,,,,,,,,,,,1039.4592852049973,None,1039.4592852049973,None,1039.4592852049973,None,1.0,4.260162262944505,1039.4592852049973,None,1039.4592852049973,None,1.0,4.750278041930869,1043.260122844018,None,1039.4592852049973,None,1.0,5.1576261469163,1043.7599275909597,None,1039.4592852049973,None,space,0.947809863020666,5.178827750962228,None,1039.4592852049973,None,1039.4592852049973,None,,,,,,,,,1,2022_Apr_01_1022,SAR-soap,2021.1.2,60.111076514205664,
80,Trial # 76,Group1-stimuli/group1-block1/fake-group2-b1/encoded_Group2_IMG_4249.jpg,0,encoded_Group2_IMG_4249.jpg,,,,,0.0,75.0,75.0,75.0,,,,,,,,,,,,,,,,,,,,,,,,,,,,,,,,,,,,,1045.6111542269357,None,1045.6111542269357,None,1045.6111542269357,None,6.0,12.449565963936038,1045.6111542269357,None,1045.6111542269357,None,6.0,9.487344463006592,1049.3627946330234,None,1045.6111542269357,None,6.0,6.958853980060667,1050.3963602619478,None,1045.6111542269357,None,space,6.353696622070856,6.9865058750147,None,1045.6111542269357,None,1045.6111542269357,None,,,,,,,,,1,2022_Apr_01_1022,SAR-soap,2021.1.2,60.111076514205664,
81,Trial # 77,Group1-stimuli/group1-block1/fake-group2-b1/encoded_Group2_IMG_0174.jpg,0,encoded_Group2_IMG_0174.jpg,,,,,0.0,76.0,76.0,76.0,,,,,,,,,,,,,,,,,,,,,,,,,,,,,,,,,,,,,1058.9813488679938,None,1058.9813488679938,None,1058.9813488679938,None,3.0,2.431134761078283,1058.9813488679938,None,1058.9813488679938,None,1.0,3.520405919989571,1060.965350274928,None,1058.9813488679938,None,2.0,6.761281326995231,1062.06524205592,None,1058.9813488679938,None,space,1.120077138999477,6.788078429992311,None,1058.9813488679938,None,1058.9813488679938,None,,,,,,,,,1,2022_Apr_01_1022,SAR-soap,2021.1.2,60.111076514205664,
82,Trial # 78,Group1-stimuli/group1-block1/fake-group2-b1/encoded_Group2_IMG_0475.jpg,0,encoded_Group2_IMG_0475.jpg,,,,,0.0,77.0,77.0,77.0,,,,,,,,,,,,,,,,,,,,,,,,,,,,,,,,,,,,,1066.91671816702,None,1066.91671816702,None,1066.91671816702,None,2.0,3.547570848022588,1066.91671816702,None,1066.91671816702,None,1.0,4.686976261087693,1070.0180915879318,None,1066.91671816702,None,1.0,5.39291652594693,1071.1687347579282,None,1066.91671816702,None,space,0.5357381689827889,5.420889484928921,None,1066.91671816702,None,1066.91671816702,None,,,,,,,,,1,2022_Apr_01_1022,SAR-soap,2021.1.2,60.111076514205664,
83,Trial # 79,Group1-stimuli/group1-block1/fake-group2-b1/encoded_Group2_IMG_9751.jpg,0,encoded_Group2_IMG_9751.jpg,,,,,0.0,78.0,78.0,78.0,,,,,,,,,,,,,,,,,,,,,,,,,,,,,,,,,,,,,1072.9187254449353,None,1072.9187254449353,None,1072.9187254449353,None,6.0,2.1141209170455117,1072.9187254449353,None,1072.9187254449353,None,4.0,4.936451165005565,1074.5877079960192,None,1072.9187254449353,None,5.0,16.278661229996942,1077.4200227239637,None,1072.9187254449353,None,space,3.247557691996917,13.506217014975846,None,1072.9187254449353,None,1072.9187254449353,None,,,,,,,,,1,2022_Apr_01_1022,SAR-soap,2021.1.2,60.111076514205664,
84,Trial # 80,Group1-stimuli/group1-block1/fake-group2-b1/encoded_Group2_IMG_0492.jpg,0,encoded_Group2_IMG_0492.jpg,,,,,0.0,79.0,79.0,79.0,,,,,,,,,,,,,,,,,,,,,,,,,,,,,,,,,,,,,1089.7247785530053,None,1089.7247785530053,None,1089.7247785530053,None,1.0,7.6533872849540785,1089.7247785530053,None,1089.7247785530053,None,1.0,6.959874943946488,1095.242408731021,None,1089.7247785530053,None,1.0,8.797706357901916,1096.24272421794,None,1089.7247785530053,None,space,0.5514202680205926,8.832027698517777,None,1089.7247785530053,None,1089.7247785530053,None,,,,,,,,,1,2022_Apr_01_1022,SAR-soap,2021.1.2,60.111076514205664,
85,Trial # 81,Group1-stimuli/group1-block1/real-group1-b1/Group1_IMG_0535.jpg,1,Group1_IMG_0535.jpg,,,,,0.0,80.0,80.0,80.0,,,,,,,,,,,,,,,,,,,,,,,,,,,,,,,,,,,,,1099.1445190659724,None,1099.1445190659724,None,1099.1445190659724,None,3.0,3.847760348930024,1099.1445190659724,None,1099.1445190659724,None,1.0,4.471901154029183,1102.5448184999404,None,1099.1445190659724,None,2.0,5.043469550088048,1103.1780690239975,None,1099.1445190659724,None,space,0.6277270870050415,5.071496681543067,None,1099.1445190659724,None,1099.1445190659724,None,,,,,,,,,1,2022_Apr_01_1022,SAR-soap,2021.1.2,60.111076514205664,
86,Trial # 82,Group1-stimuli/group1-block1/real-group1-b1/Group1_IMG_0077.jpg,1,Group1_IMG_0077.jpg,,,,,0.0,81.0,81.0,81.0,,,,,,,,,,,,,,,,,,,,,,,,,,,,,,,,,,,,,1104.8960141279968,None,1104.8960141279968,None,1104.8960141279968,None,5.0,11.747957711922936,1104.8960141279968,None,1104.8960141279968,None,2.0,7.285971822915599,1108.2966990249697,None,1104.8960141279968,None,7.0,8.82412485894747,1111.7311724049505,None,1104.8960141279968,None,space,3.659638609038666,8.850843925378285,None,1104.8960141279968,None,1104.8960141279968,None,,,,,,,,,1,2022_Apr_01_1022,SAR-soap,2021.1.2,60.111076514205664,
87,Trial # 83,Group1-stimuli/group1-block1/fake-group2-b1/encoded_Group2_IMG_9702.jpg,0,encoded_Group2_IMG_9702.jpg,,,,,0.0,82.0,82.0,82.0,,,,,,,,,,,,,,,,,,,,,,,,,,,,,,,,,,,,,1117.432491871994,None,1117.432491871994,None,1117.432491871994,None,2.0,10.778882397920825,1117.432491871994,None,1117.432491871994,None,1.0,11.90121638099663,1127.752565670991,None,1117.432491871994,None,1.0,12.974664227920584,1128.886660140939,None,1117.432491871994,None,space,1.2098346389830112,12.998030752060004,None,1117.432491871994,None,1117.432491871994,None,,,,,,,,,1,2022_Apr_01_1022,SAR-soap,2021.1.2,60.111076514205664,
88,Trial # 84,Group1-stimuli/group1-block1/real-group1-b1/Group1_IMG_0357.jpg,1,Group1_IMG_0357.jpg,,,,,0.0,83.0,83.0,83.0,,,,,,,,,,,,,,,,,,,,,,,,,,,,,,,,,,,,,1131.7038302189903,None,1131.7038302189903,None,1131.7038302189903,None,3.0,5.722877605003305,1131.7038302189903,None,1131.7038302189903,None,1.0,7.278456786996685,1136.971871785936,None,1131.7038302189903,None,2.0,7.68413170799613,1138.5391542969735,None,1131.7038302189903,None,space,0.5594948210055009,7.705874957493506,None,1131.7038302189903,None,1131.7038302189903,None,,,,,,,,,1,2022_Apr_01_1022,SAR-soap,2021.1.2,60.111076514205664,
89,Trial # 85,Group1-stimuli/group1-block1/real-group1-b1/Group1_IMG_9772.jpg,1,Group1_IMG_9772.jpg,,,,,0.0,84.0,84.0,84.0,,,,,,,,,,,,,,,,,,,,,,,,,,,,,,,,,,,,,1140.0068775219845,None,1140.0068775219845,None,1140.0068775219845,None,6.0,2.7759931079344824,1140.0068775219845,None,1140.0068775219845,None,5.0,3.765404467005282,1142.3235472069357,None,1140.0068775219845,None,6.0,6.87227884598542,1143.3229811529163,None,1140.0068775219845,None,space,1.2068017789861187,6.1969568190397695,None,1140.0068775219845,None,1140.0068775219845,None,,,,,,,,,1,2022_Apr_01_1022,SAR-soap,2021.1.2,60.111076514205664,
90,Trial # 86,Group1-stimuli/group1-block1/real-group1-b1/Group1_IMG_0482.jpg,1,Group1_IMG_0482.jpg,,,,,0.0,85.0,85.0,85.0,,,,,,,,,,,,,,,,,,,,,,,,,,,,,,,,,,,,,1147.4587843059562,None,1147.4587843059562,None,1147.4587843059562,None,2.0,8.170604169019498,1147.4587843059562,None,1147.4587843059562,None,1.0,4.607898248010315,1150.026634052978,None,1147.4587843059562,None,1.0,10.448230798006987,1151.6267915859353,None,1147.4587843059562,None,space,0.6542725639883429,10.480815332499333,None,1147.4587843059562,None,1147.4587843059562,None,,,,,,,,,1,2022_Apr_01_1022,SAR-soap,2021.1.2,60.111076514205664,
91,Trial # 87,Group1-stimuli/group1-block1/real-group1-b1/Group1_IMG_0299.jpg,1,Group1_IMG_0299.jpg,,,,,0.0,86.0,86.0,86.0,,,,,,,,,,,,,,,,,,,,,,,,,,,,,,,,,,,,,1158.6446925969794,None,1158.6446925969794,None,1158.6446925969794,None,7.0,12.365835909964517,1158.6446925969794,None,1158.6446925969794,None,6.0,14.404740256955847,1168.598220529966,None,1158.6446925969794,None,7.0,15.377031771931795,1172.599238645984,None,1158.6446925969794,None,space,2.9178780909860507,15.402862359536812,None,1158.6446925969794,None,1158.6446925969794,None,,,,,,,,,1,2022_Apr_01_1022,SAR-soap,2021.1.2,60.111076514205664,
92,Trial # 88,Group1-stimuli/group1-block1/fake-group2-b1/encoded_Group2_IMG_0301.jpg,0,encoded_Group2_IMG_0301.jpg,,,,,0.0,87.0,87.0,87.0,,,,,,,,,,,,,,,,,,,,,,,,,,,,,,,,,,,,,1177.0513868299313,None,1177.0513868299313,None,1177.0513868299313,None,6.0,4.647334081004374,1177.0513868299313,None,1177.0513868299313,None,4.0,6.1044393490301445,1181.2531235009665,None,1177.0513868299313,None,6.0,7.17453662189655,1182.719573249924,None,1177.0513868299313,None,space,1.0977598439203575,7.202286494895816,None,1177.0513868299313,None,1177.0513868299313,None,,,,,,,,,1,2022_Apr_01_1022,SAR-soap,2021.1.2,60.111076514205664,
93,Trial # 89,Group1-stimuli/group1-block1/fake-group2-b1/encoded_Group2_IMG_5136.jpg,0,encoded_Group2_IMG_5136.jpg,,,,,0.0,88.0,88.0,88.0,,,,,,,,,,,,,,,,,,,,,,,,,,,,,,,,,,,,,1185.3703347839182,None,1185.3703347839182,None,1185.3703347839182,None,7.0,5.330139782978222,1185.3703347839182,None,1185.3703347839182,None,4.0,7.101867867051624,1189.0049321330152,None,1185.3703347839182,None,7.0,8.3415468740277,1192.038321105996,None,1185.3703347839182,None,space,0.9949178639799356,8.369190033059567,None,1185.3703347839182,None,1185.3703347839182,None,,,,,,,,,1,2022_Apr_01_1022,SAR-soap,2021.1.2,60.111076514205664,
94,Trial # 90,Group1-stimuli/group1-block1/real-group1-b1/Group1_IMG_0460.jpg,1,Group1_IMG_0460.jpg,,,,,0.0,89.0,89.0,89.0,,,,,,,,,,,,,,,,,,,,,,,,,,,,,,,,,,,,,1194.7729284940287,None,1194.7729284940287,None,1194.7729284940287,None,6.0,2.631319609005004,1194.7729284940287,None,1194.7729284940287,None,5.0,6.055122061050497,1196.9569572670152,None,1194.7729284940287,None,6.0,7.728314926032908,1200.3919315499952,None,1194.7729284940287,None,space,0.5453878749394789,7.756183183402754,None,1194.7729284940287,None,1194.7729284940287,None,,,,,,,,,1,2022_Apr_01_1022,SAR-soap,2021.1.2,60.111076514205664,
95,Trial # 91,Group1-stimuli/group1-block1/fake-group2-b1/encoded_Group2_IMG_0068.jpg,0,encoded_Group2_IMG_0068.jpg,,,,,0.0,90.0,90.0,90.0,,,,,,,,,,,,,,,,,,,,,,,,,,,,,,,,,,,,,1203.124848793028,None,1203.124848793028,None,1203.124848793028,None,6.0,13.069390379008835,1203.124848793028,None,1203.124848793028,None,5.0,13.992007602006195,1215.7469698999776,None,1203.124848793028,None,7.0,14.963039666065017,1216.6795575090218,None,1203.124848793028,None,space,0.6209288560785353,14.99262887937948,None,1203.124848793028,None,1203.124848793028,None,,,,,,,,,1,2022_Apr_01_1022,SAR-soap,2021.1.2,60.111076514205664,
96,Trial # 92,Group1-stimuli/group1-block1/real-group1-b1/Group1_IMG_0337.jpg,1,Group1_IMG_0337.jpg,,,,,0.0,91.0,91.0,91.0,,,,,,,,,,,,,,,,,,,,,,,,,,,,,,,,,,,,,1218.797091756016,None,1218.797091756016,None,1218.797091756016,None,4.0,4.671584422001615,1218.797091756016,None,1218.797091756016,None,1.0,7.294906564988196,1223.0314563189168,None,1218.797091756016,None,3.0,9.201171937980687,1225.6657894959208,None,1218.797091756016,None,space,0.6934728489723057,9.23611516249366,None,1218.797091756016,None,1218.797091756016,None,,,,,,,,,1,2022_Apr_01_1022,SAR-soap,2021.1.2,60.111076514205664,
97,Trial # 93,Group1-stimuli/group1-block1/fake-group2-b1/encoded_Group2_IMG_0346.jpg,0,encoded_Group2_IMG_0346.jpg,,,,,0.0,92.0,92.0,92.0,,,,,,,,,,,,,,,,,,,,,,,,,,,,,,,,,,,,,1228.750158448005,None,1228.750158448005,None,1228.750158448005,None,2.0,11.534682874102144,1228.750158448005,None,1228.750158448005,None,1.0,9.973367447964849,1237.0200238849502,None,1228.750158448005,None,1.0,10.71391420206055,1238.2866099870298,None,1228.750158448005,None,space,1.2634719519410282,10.740398020017892,None,1228.750158448005,None,1228.750158448005,None,,,,,,,,,1,2022_Apr_01_1022,SAR-soap,2021.1.2,60.111076514205664,
98,Trial # 94,Group1-stimuli/group1-block1/real-group1-b1/Group1_IMG_4253.jpg,1,Group1_IMG_4253.jpg,,,,,0.0,93.0,93.0,93.0,,,,,,,,,,,,,,,,,,,,,,,,,,,,,,,,,,,,,1240.8044267420191,None,1240.8044267420191,None,1240.8044267420191,None,7.0,29.467546585015956,1240.8044267420191,None,1240.8044267420191,None,6.0,33.17364023602568,1266.645403270959,None,1240.8044267420191,None,6.0,36.28126750700176,1272.9300969219769,None,1240.8044267420191,None,space,2.4206880029523745,34.30301611649338,None,1240.8044267420191,None,1240.8044267420191,None,,,,,,,,,1,2022_Apr_01_1022,SAR-soap,2021.1.2,60.111076514205664,
99,Trial # 95,Group1-stimuli/group1-block1/fake-group2-b1/encoded_Group2_IMG_9280.jpg,0,encoded_Group2_IMG_9280.jpg,,,,,0.0,94.0,94.0,94.0,,,,,,,,,,,,,,,,,,,,,,,,,,,,,,,,,,,,,1277.5818493720144,None,1277.5818493720144,None,1277.5818493720144,None,6.0,10.37743868806865,1277.5818493720144,None,1277.5818493720144,None,3.0,6.715441443026066,1282.4831352810145,None,1277.5818493720144,None,7.0,7.520676507032476,1283.8508214110043,None,1277.5818493720144,None,space,3.3367193159647286,7.5425840185489506,None,1277.5818493720144,None,1277.5818493720144,None,,,,,,,,,1,2022_Apr_01_1022,SAR-soap,2021.1.2,60.111076514205664,
100,Trial # 96,Group1-stimuli/group1-block1/real-group1-b1/Group1_IMG_0417.jpg,1,Group1_IMG_0417.jpg,,,,,0.0,95.0,95.0,95.0,,,,,,,,,,,,,,,,,,,,,,,,,,,,,,,,,,,,,1288.5349403609289,None,1288.5349403609289,None,1288.5349403609289,None,5.0,6.99351130600553,1288.5349403609289,None,1288.5349403609289,None,2.0,10.09872104402166,1293.287167952978,None,1288.5349403609289,None,2.0,12.13928959297482,1298.1876241170105,None,1288.5349403609289,None,space,0.6528804139234126,12.160959858447312,None,1288.5349403609289,None,1288.5349403609289,None,,,,,,,,,1,2022_Apr_01_1022,SAR-soap,2021.1.2,60.111076514205664,
101,Trial # 97,Group1-stimuli/group1-block1/fake-group2-b1/encoded_Group2_IMG_9695.jpg,0,encoded_Group2_IMG_9695.jpg,,,,,0.0,96.0,96.0,96.0,,,,,,,,,,,,,,,,,,,,,,,,,,,,,,,,,,,,,1301.3899414499756,None,1301.3899414499756,None,1301.3899414499756,None,1.0,9.552650762023404,1301.3899414499756,None,1301.3899414499756,None,1.0,10.025833002990112,1307.5580109229777,None,1301.3899414499756,None,1.0,10.5629498870112,1310.9755570909474,None,1301.3899414499756,None,space,0.4552450670162216,10.59465255541727,None,1301.3899414499756,None,1301.3899414499756,None,,,,,,,,,1,2022_Apr_01_1022,SAR-soap,2021.1.2,60.111076514205664,
102,Trial # 98,Group1-stimuli/group1-block1/real-group1-b1/Group1_IMG_1160.jpg,1,Group1_IMG_1160.jpg,,,,,0.0,97.0,97.0,97.0,,,,,,,,,,,,,,,,,,,,,,,,,,,,,,,,,,,,,1312.508808996994,None,1312.508808996994,None,1312.508808996994,None,6.0,2.174853125005029,1312.508808996994,None,1312.508808996994,None,5.0,3.898416105890647,1314.2272508919705,None,1312.508808996994,None,7.0,6.369869137997739,1315.9610632749973,None,1312.508808996994,None,space,0.7921424569794908,6.392095444025472,None,1312.508808996994,None,1312.508808996994,None,,,,,,,,,1,2022_Apr_01_1022,SAR-soap,2021.1.2,60.111076514205664,
103,Trial # 99,Group1-stimuli/group1-block1/real-group1-b1/Group1_IMG_0448.jpg,1,Group1_IMG_0448.jpg,,,,,0.0,98.0,98.0,98.0,,,,,,,,,,,,,,,,,,,,,,,,,,,,,,,,,,,,,1319.729206725955,None,1319.729206725955,None,1319.729206725955,None,5.0,4.098445600946434,1319.729206725955,None,1319.729206725955,None,2.0,7.139204952982254,1323.379487243015,None,1319.729206725955,None,4.0,7.912264163023792,1326.4305144209648,None,1319.729206725955,None,space,0.6469279499724507,7.940851950435899,None,1319.729206725955,None,1319.729206725955,None,,,,,,,,,1,2022_Apr_01_1022,SAR-soap,2021.1.2,60.111076514205664,
104,Trial # 100,Group1-stimuli/group1-block1/fake-group2-b1/encoded_Group2_IMG_0393.jpg,0,encoded_Group2_IMG_0393.jpg,,,,,0.0,99.0,99.0,99.0,,,,,,,,,,,,,,,,,,,,,,,,,,,,,,,,,,,,,1328.347662303946,None,1328.347662303946,None,1328.347662303946,None,6.0,7.298225446022116,1328.347662303946,None,1328.347662303946,None,2.0,8.95434101705905,1335.1999577479437,None,1328.347662303946,None,6.0,10.193565921974368,1336.8668873020215,None,1328.347662303946,None,space,0.4957149339606985,10.221046018996276,None,1328.347662303946,None,1328.347662303946,None,,,,,,,,,1,2022_Apr_01_1022,SAR-soap,2021.1.2,60.111076514205664,
105,Trial # 101,Group1-stimuli/group1-block1/real-group1-b1/Group1_IMG_0090.jpg,1,Group1_IMG_0090.jpg,,,,,0.0,100.0,100.0,100.0,,,,,,,,,,,,,,,,,,,,,,,,,,,,,,,,,,,,,1339.1175299419556,None,1339.1175299419556,None,1339.1175299419556,None,1.0,7.850639540003613,1339.1175299419556,None,1339.1175299419556,None,1.0,8.83886374195572,1346.5202548719244,None,1339.1175299419556,None,1.0,12.979583463049494,1347.5196747339796,None,1339.1175299419556,None,space,0.5014273680280894,13.007464883034118,None,1339.1175299419556,None,1339.1175299419556,None,,,,,,,,,1,2022_Apr_01_1022,SAR-soap,2021.1.2,60.111076514205664,
106,Trial # 102,Group1-stimuli/group1-block1/real-group1-b1/Group1_IMG_0310.jpg,1,Group1_IMG_0310.jpg,,,,,0.0,101.0,101.0,101.0,,,,,,,,,,,,,,,,,,,,,,,,,,,,,,,,,,,,,1352.7047983609373,None,1352.7047983609373,None,1352.7047983609373,None,2.0,3.3727599040139467,1352.7047983609373,None,1352.7047983609373,None,1.0,3.8293096979614343,1355.6227573120268,None,1352.7047983609373,None,2.0,4.302493134047836,1356.0902041340014,None,1352.7047983609373,None,space,2.5427227939944714,4.320375097449869,None,1352.7047983609373,None,1352.7047983609373,None,,,,,,,,,1,2022_Apr_01_1022,SAR-soap,2021.1.2,60.111076514205664,
107,Trial # 103,Group1-stimuli/group1-block1/fake-group2-b1/encoded_Group2_IMG_0528.jpg,0,encoded_Group2_IMG_0528.jpg,,,,,0.0,102.0,102.0,102.0,,,,,,,,,,,,,,,,,,,,,,,,,,,,,,,,,,,,,1359.6239787989762,None,1359.6239787989762,None,1359.6239787989762,None,5.0,5.714949592016637,1359.6239787989762,None,1359.6239787989762,None,2.0,6.738219865015708,1364.8929907429265,None,1359.6239787989762,None,4.0,7.643864921992645,1365.9267367599532,None,1359.6239787989762,None,space,0.8578521960880607,7.672516440390609,None,1359.6239787989762,None,1359.6239787989762,None,,,,,,,,,1,2022_Apr_01_1022,SAR-soap,2021.1.2,60.111076514205664,
108,Trial # 104,Group1-stimuli/group1-block1/fake-group2-b1/encoded_Group2_IMG_1975.jpg,0,encoded_Group2_IMG_1975.jpg,,,,,0.0,103.0,103.0,103.0,,,,,,,,,,,,,,,,,,,,,,,,,,,,,,,,,,,,,1368.1760029349243,None,1368.1760029349243,None,1368.1760029349243,None,4.0,6.682059029932134,1368.1760029349243,None,1368.1760029349243,None,1.0,9.054491803981364,1374.4125471200095,None,1368.1760029349243,None,4.0,11.15974416397512,1376.7955221969169,None,1368.1760029349243,None,space,0.5872350219869986,11.188192151021212,None,1368.1760029349243,None,1368.1760029349243,None,,,,,,,,,1,2022_Apr_01_1022,SAR-soap,2021.1.2,60.111076514205664,
109,Trial # 105,Group1-stimuli/group1-block1/fake-group2-b1/encoded_Group2_IMG_0052.jpg,0,encoded_Group2_IMG_0052.jpg,,,,,0.0,104.0,104.0,104.0,,,,,,,,,,,,,,,,,,,,,,,,,,,,,,,,,,,,,1379.9976083879592,None,1379.9976083879592,None,1379.9976083879592,None,1.0,9.572490245918743,1379.9976083879592,None,1379.9976083879592,None,1.0,10.36307229101658,1389.1338683859212,None,1379.9976083879592,None,1.0,10.834812020068057,1389.9330236279638,None,1379.9976083879592,None,space,0.5796340859960765,10.86901429493446,None,1379.9976083879592,None,1379.9976083879592,None,,,,,,,,,1,2022_Apr_01_1022,SAR-soap,2021.1.2,60.111076514205664,
110,Trial # 106,Group1-stimuli/group1-block1/fake-group2-b1/encoded_Group2_IMG_0225.jpg,0,encoded_Group2_IMG_0225.jpg,,,,,0.0,105.0,105.0,105.0,,,,,,,,,,,,,,,,,,,,,,,,,,,,,,,,,,,,,1391.4843749359716,None,1391.4843749359716,None,1391.4843749359716,None,6.0,4.464739274000749,1391.4843749359716,None,1391.4843749359716,None,4.0,5.520772270974703,1395.5015456649708,None,1391.4843749359716,None,5.0,6.527564398013055,1396.568744921009,None,1391.4843749359716,None,space,0.5389662450179458,6.55377656291239,None,1391.4843749359716,None,1391.4843749359716,None,,,,,,,,,1,2022_Apr_01_1022,SAR-soap,2021.1.2,60.111076514205664,
111,Trial # 107,Group1-stimuli/group1-block1/real-group1-b1/Group1_IMG_2231.jpg,1,Group1_IMG_2231.jpg,,,,,0.0,106.0,106.0,106.0,,,,,,,,,,,,,,,,,,,,,,,,,,,,,,,,,,,,,1398.635402888991,None,1398.635402888991,None,1398.635402888991,None,6.0,2.998776962049305,1398.635402888991,None,1398.635402888991,None,4.0,5.9225648019928485,1401.188076367951,None,1398.635402888991,None,7.0,7.827339212060906,1404.1210827130126,None,1398.635402888991,None,space,0.5015475529944524,7.856070140260272,None,1398.635402888991,None,1398.635402888991,None,,,,,,,,,1,2022_Apr_01_1022,SAR-soap,2021.1.2,60.111076514205664,
112,Trial # 108,Group1-stimuli/group1-block1/real-group1-b1/Group1_IMG_0217.jpg,1,Group1_IMG_0217.jpg,,,,,0.0,107.0,107.0,107.0,,,,,,,,,,,,,,,,,,,,,,,,,,,,,,,,,,,,,1407.0548634539591,None,1407.0548634539591,None,1407.0548634539591,None,6.0,5.444431310053915,1407.0548634539591,None,1407.0548634539591,None,2.0,6.333379008923657,1412.0400621480076,None,1407.0548634539591,None,6.0,8.304845309001394,1412.9400606519775,None,1407.0548634539591,None,space,1.296748106949963,7.496419545030221,None,1407.0548634539591,None,1407.0548634539591,None,,,,,,,,,1,2022_Apr_01_1022,SAR-soap,2021.1.2,60.111076514205664,
113,Trial # 109,Group1-stimuli/group1-block1/real-group1-b1/Group1_IMG_0264.jpg,1,Group1_IMG_0264.jpg,,,,,0.0,108.0,108.0,108.0,,,,,,,,,,,,,,,,,,,,,,,,,,,,,,,,,,,,,1415.874495594995,None,1415.874495594995,None,1415.874495594995,None,7.0,3.963289770064876,1415.874495594995,None,1415.874495594995,None,6.0,4.8208511139964685,1419.393045078963,None,1415.874495594995,None,7.0,5.625464343000203,1420.260449646972,None,1415.874495594995,None,space,0.5112904430134222,5.65151094540488,None,1415.874495594995,None,1415.874495594995,None,,,,,,,,,1,2022_Apr_01_1022,SAR-soap,2021.1.2,60.111076514205664,
114,Trial # 110,Group1-stimuli/group1-block1/fake-group2-b1/encoded_Group2_IMG_0254.jpg,0,encoded_Group2_IMG_0254.jpg,,,,,0.0,109.0,109.0,109.0,,,,,,,,,,,,,,,,,,,,,,,,,,,,,,,,,,,,,1422.0768316159956,None,1422.0768316159956,None,1422.0768316159956,None,2.0,4.348036358016543,1422.0768316159956,None,1422.0768316159956,None,1.0,4.988909865962341,1425.9773985929787,None,1422.0768316159956,None,2.0,5.592770145973191,1426.628505941946,None,1422.0768316159956,None,space,0.5111945910612121,5.620500460849144,None,1422.0768316159956,None,1422.0768316159956,None,,,,,,,,,1,2022_Apr_01_1022,SAR-soap,2021.1.2,60.111076514205664,
115,Trial # 111,Group1-stimuli/group1-block1/fake-group2-b1/encoded_Group2_IMG_5433.jpg,0,encoded_Group2_IMG_5433.jpg,,,,,0.0,110.0,110.0,110.0,,,,,,,,,,,,,,,,,,,,,,,,,,,,,,,,,,,,,1428.2444689229596,None,1428.2444689229596,None,1428.2444689229596,None,1.0,1.881395146017894,1428.2444689229596,None,1428.2444689229596,None,1.0,2.2048505460843444,1429.6796800140291,None,1428.2444689229596,None,1.0,2.808616977068596,1430.0127569809556,None,1428.2444689229596,None,space,0.5593122330028564,2.836186554981396,None,1428.2444689229596,None,1428.2444689229596,None,,,,,,,,,1,2022_Apr_01_1022,SAR-soap,2021.1.2,60.111076514205664,
116,Trial # 112,Group1-stimuli/group1-block1/real-group1-b1/Group1_IMG_0252.jpg,1,Group1_IMG_0252.jpg,,,,,0.0,111.0,111.0,111.0,,,,,,,,,,,,,,,,,,,,,,,,,,,,,,,,,,,,,1431.678712615976,None,1431.678712615976,None,1431.678712615976,None,4.0,7.618301028036512,1431.678712615976,None,1431.678712615976,None,1.0,3.85719923209399,1434.0476819549222,None,1431.678712615976,None,3.0,5.4302733389195055,1435.0972298969282,None,1431.678712615976,None,space,2.722672426025383,5.460652469424531,None,1431.678712615976,None,1431.678712615976,None,,,,,,,,,1,2022_Apr_01_1022,SAR-soap,2021.1.2,60.111076514205664,
117,Trial # 113,Group1-stimuli/group1-block1/real-group1-b1/Group1_IMG_9720.jpg,1,Group1_IMG_9720.jpg,,,,,0.0,112.0,112.0,112.0,,,,,,,,,,,,,,,,,,,,,,,,,,,,,,,,,,,,,1439.8990425500087,None,1439.8990425500087,None,1439.8990425500087,None,6.0,6.226480516023003,1439.8990425500087,None,1439.8990425500087,None,4.0,6.849554936983623,1445.6671423849184,None,1439.8990425500087,None,6.0,7.888647640007548,1446.3004365399247,None,1439.8990425500087,None,space,0.7741242840420455,7.91220154997427,None,1439.8990425500087,None,1439.8990425500087,None,,,,,,,,,1,2022_Apr_01_1022,SAR-soap,2021.1.2,60.111076514205664,
118,Trial # 114,Group1-stimuli/group1-block1/fake-group2-b1/encoded_Group2_IMG_0550.jpg,0,encoded_Group2_IMG_0550.jpg,,,,,0.0,113.0,113.0,113.0,,,,,,,,,,,,,,,,,,,,,,,,,,,,,,,,,,,,,1448.6337306279456,None,1448.6337306279456,None,1448.6337306279456,None,1.0,5.644679314922541,1448.6337306279456,None,1448.6337306279456,None,1.0,7.5016644729766995,1453.8195461259456,None,1448.6337306279456,None,1.0,7.973692668019794,1455.6866714520147,None,1448.6337306279456,None,space,0.4491695408942178,7.997736242949031,None,1448.6337306279456,None,1448.6337306279456,None,,,,,,,,,1,2022_Apr_01_1022,SAR-soap,2021.1.2,60.111076514205664,
119,Trial # 115,Group1-stimuli/group1-block1/real-group1-b1/Group1_IMG_9915.jpg,1,Group1_IMG_9915.jpg,,,,,0.0,114.0,114.0,114.0,,,,,,,,,,,,,,,,,,,,,,,,,,,,,,,,,,,,,1457.1202612679915,None,1457.1202612679915,None,1457.1202612679915,None,2.0,5.815183241968043,1457.1202612679915,None,1457.1202612679915,None,1.0,7.371963756973855,1462.4890759909758,None,1457.1202612679915,None,1.0,11.443858224898577,1464.0570676629432,None,1457.1202612679915,None,space,3.970590668031946,8.00630085146986,None,1457.1202612679915,None,1457.1202612679915,None,,,,,,,,,1,2022_Apr_01_1022,SAR-soap,2021.1.2,60.111076514205664,
120,Trial # 116,Group1-stimuli/group1-block1/real-group1-b1/Group1_IMG_9850.jpg,1,Group1_IMG_9850.jpg,,,,,0.0,115.0,115.0,115.0,,,,,,,,,,,,,,,,,,,,,,,,,,,,,,,,,,,,,1469.1917839279631,None,1469.1917839279631,None,1469.1917839279631,None,1.0,3.6758337930077687,1469.1917839279631,None,1469.1917839279631,None,1.0,4.231792593025602,1472.408097079955,None,1469.1917839279631,None,1.0,4.6708604579325765,1472.975614825962,None,1469.1917839279631,None,space,0.6588083520764485,4.692396129015833,None,1469.1917839279631,None,1469.1917839279631,None,,,,,,,,,1,2022_Apr_01_1022,SAR-soap,2021.1.2,60.111076514205664,
121,Trial # 117,Group1-stimuli/group1-block1/real-group1-b1/Group1_IMG_3579.jpg,1,Group1_IMG_3579.jpg,,,,,0.0,116.0,116.0,116.0,,,,,,,,,,,,,,,,,,,,,,,,,,,,,,,,,,,,,1474.5765355059411,None,1474.5765355059411,None,1474.5765355059411,None,6.0,11.317500491975808,1474.5765355059411,None,1474.5765355059411,None,5.0,17.05794594308827,1485.44724387303,None,1474.5765355059411,None,7.0,20.1647409950383,1491.1981910020113,None,1474.5765355059411,None,space,1.925448784022592,18.693033404415477,None,1474.5765355059411,None,1474.5765355059411,None,,,,,,,,,1,2022_Apr_01_1022,SAR-soap,2021.1.2,60.111076514205664,
122,Trial # 118,Group1-stimuli/group1-block1/fake-group2-b1/encoded_Group2_IMG_0377.jpg,0,encoded_Group2_IMG_0377.jpg,,,,,0.0,117.0,117.0,117.0,,,,,,,,,,,,,,,,,,,,,,,,,,,,,,,,,,,,,1495.249667388969,None,1495.249667388969,None,1495.249667388969,None,2.0,3.1410209870664403,1495.249667388969,None,1495.249667388969,None,1.0,3.7641200709622353,1497.932604369009,None,1495.249667388969,None,1.0,4.168851241003722,1498.566462820978,None,1495.249667388969,None,space,1.3559451249893757,4.191998846479692,None,1495.249667388969,None,1495.249667388969,None,,,,,,,,,1,2022_Apr_01_1022,SAR-soap,2021.1.2,60.111076514205664,
123,Trial # 119,Group1-stimuli/group1-block1/real-group1-b1/Group1_IMG_0469.jpg,1,Group1_IMG_0469.jpg,,,,,0.0,118.0,118.0,118.0,,,,,,,,,,,,,,,,,,,,,,,,,,,,,,,,,,,,,1500.8345483000155,None,1500.8345483000155,None,1500.8345483000155,None,2.0,4.234905765973963,1500.8345483000155,None,1500.8345483000155,None,1.0,4.890807237941772,1504.6196880929638,None,1500.8345483000155,None,1.0,5.197266258997843,1505.2852392479545,None,1500.8345483000155,None,space,0.6742605119943619,5.226725529530086,None,1500.8345483000155,None,1500.8345483000155,None,,,,,,,,,1,2022_Apr_01_1022,SAR-soap,2021.1.2,60.111076514205664,
124,Trial # 120,Group1-stimuli/group1-block1/fake-group2-b1/encoded_Group2_IMG_0100.jpg,0,encoded_Group2_IMG_0100.jpg,,,,,0.0,119.0,119.0,119.0,,,,,,,,,,,,,,,,,,,,,,,,,,,,,,,,,,,,,1506.819358473993,None,1506.819358473993,None,1506.819358473993,None,3.0,4.39168660598807,1506.819358473993,None,1506.819358473993,None,1.0,11.748506608069874,1510.7541035219328,None,1506.819358473993,None,2.0,12.587744427029977,1518.123035780969,None,1506.819358473993,None,space,3.1681113089434803,12.609792770002969,None,1506.819358473993,None,1506.819358473993,None,,,,,,,,,1,2022_Apr_01_1022,SAR-soap,2021.1.2,60.111076514205664,
125,Trial # 121,Group1-stimuli/group1-block1/real-group1-b1/Group1_IMG_5359.jpg,1,Group1_IMG_5359.jpg,,,,,0.0,120.0,120.0,120.0,,,,,,,,,,,,,,,,,,,,,,,,,,,,,,,,,,,,,1522.641155055957,None,1522.641155055957,None,1522.641155055957,None,5.0,4.026283847982995,1522.641155055957,None,1522.641155055957,None,2.0,5.349013436003588,1526.2090792600063,None,1522.641155055957,None,5.0,7.287969729979522,1527.5425692589488,None,1522.641155055957,None,space,2.823418000014499,7.31112916348502,None,1522.641155055957,None,1522.641155055957,None,,,,,,,,,1,2022_Apr_01_1022,SAR-soap,2021.1.2,60.111076514205664,
126,Trial # 122,Group1-stimuli/group1-block1/fake-group2-b1/encoded_Group2_IMG_0304.jpg,0,encoded_Group2_IMG_0304.jpg,,,,,0.0,121.0,121.0,121.0,,,,,,,,,,,,,,,,,,,,,,,,,,,,,,,,,,,,,1532.794154262985,None,1532.794154262985,None,1532.794154262985,None,6.0,15.167607111972757,1532.794154262985,None,1532.794154262985,None,4.0,16.02458485693205,1547.515414208989,None,1532.794154262985,None,6.0,17.1297602559207,1548.3813254609704,None,1532.794154262985,None,space,0.5606636219890788,17.158426042879,None,1532.794154262985,None,1532.794154262985,None,,,,,,,,,1,2022_Apr_01_1022,SAR-soap,2021.1.2,60.111076514205664,
127,Trial # 123,Group1-stimuli/group1-block1/real-group1-b1/Group1_IMG_0306.jpg,1,Group1_IMG_0306.jpg,,,,,0.0,122.0,122.0,122.0,,,,,,,,,,,,,,,,,,,,,,,,,,,,,,,,,,,,,1550.5493822719436,None,1550.5493822719436,None,1550.5493822719436,None,6.0,2.3806487140245736,1550.5493822719436,None,1550.5493822719436,None,5.0,4.237993028946221,1552.4834705839166,None,1550.5493822719436,None,5.0,6.276175696984865,1554.351084584021,None,1550.5493822719436,None,space,0.5466832499951124,6.305593171273358,None,1550.5493822719436,None,1550.5493822719436,None,,,,,,,,,1,2022_Apr_01_1022,SAR-soap,2021.1.2,60.111076514205664,
128,Trial # 124,Group1-stimuli/group1-block1/real-group1-b1/Group1_IMG_0224.jpg,1,Group1_IMG_0224.jpg,,,,,0.0,123.0,123.0,123.0,,,,,,,,,,,,,,,,,,,,,,,,,,,,,,,,,,,,,1557.4518983080052,None,1557.4518983080052,None,1557.4518983080052,None,5.0,5.79914940497838,1557.4518983080052,None,1557.4518983080052,None,3.0,7.221849791007116,1562.8029790639412,None,1557.4518983080052,None,5.0,8.028753340011463,1564.2368479139404,None,1557.4518983080052,None,space,0.5430035800673068,8.05603554053232,None,1557.4518983080052,None,1557.4518983080052,None,,,,,,,,,1,2022_Apr_01_1022,SAR-soap,2021.1.2,60.111076514205664,
129,Trial # 125,Group1-stimuli/group1-block1/real-group1-b1/Group1_IMG_9889.jpg,1,Group1_IMG_9889.jpg,,,,,0.0,124.0,124.0,124.0,,,,,,,,,,,,,,,,,,,,,,,,,,,,,,,,,,,,,1566.1038330469746,None,1566.1038330469746,None,1566.1038330469746,None,2.0,3.327489507966675,1566.1038330469746,None,1566.1038330469746,None,1.0,4.266875005909242,1567.9549605259672,None,1566.1038330469746,None,2.0,4.906723905005492,1569.923034870997,None,1566.1038330469746,None,space,0.5443970819469541,4.930210749967955,None,1566.1038330469746,None,1566.1038330469746,None,,,,,,,,,1,2022_Apr_01_1022,SAR-soap,2021.1.2,60.111076514205664,
130,Trial # 126,Group1-stimuli/group1-block1/real-group1-b1/Group1_IMG_0293.jpg,1,Group1_IMG_0293.jpg,,,,,0.0,125.0,125.0,125.0,,,,,,,,,,,,,,,,,,,,,,,,,,,,,,,,,,,,,1571.622571549029,None,1571.622571549029,None,1571.622571549029,None,1.0,5.684257610933855,1571.622571549029,None,1571.622571549029,None,1.0,6.474198437994346,1576.8579401560128,None,1571.622571549029,None,1.0,7.578905226080678,1577.6581624540268,None,1571.622571549029,None,space,2.2621222869493067,7.609221561462618,None,1571.622571549029,None,1571.622571549029,None,,,,,,,,,1,2022_Apr_01_1022,SAR-soap,2021.1.2,60.111076514205664,
131,Trial # 127,Group1-stimuli/group1-block1/fake-group2-b1/encoded_Group2_IMG_0321.jpg,0,encoded_Group2_IMG_0321.jpg,,,,,0.0,126.0,126.0,126.0,,,,,,,,,,,,,,,,,,,,,,,,,,,,,,,,,,,,,1581.5259488360025,None,1581.5259488360025,None,1581.5259488360025,None,3.0,5.039150472963229,1581.5259488360025,None,1581.5259488360025,None,1.0,5.629333063960075,1586.1104010950075,None,1581.5259488360025,None,2.0,6.499538394971751,1586.7104437809903,None,1581.5259488360025,None,space,0.5068081920035183,6.520081887836568,None,1581.5259488360025,None,1581.5259488360025,None,,,,,,,,,1,2022_Apr_01_1022,SAR-soap,2021.1.2,60.111076514205664,
132,Trial # 128,Group1-stimuli/group1-block1/fake-group2-b1/encoded_Group2_IMG_0400.jpg,0,encoded_Group2_IMG_0400.jpg,,,,,0.0,127.0,127.0,127.0,,,,,,,,,,,,,,,,,,,,,,,,,,,,,,,,,,,,,1588.594346722006,None,1588.594346722006,None,1588.594346722006,None,5.0,3.347945915069431,1588.594346722006,None,1588.594346722006,None,3.0,5.370083902962506,1591.495394774014,None,1588.594346722006,None,4.0,6.078425322077237,1593.5287760610229,None,1588.594346722006,None,space,0.5903177360305563,6.103619283996522,None,1588.594346722006,None,1588.594346722006,None,,,,,,,,,1,2022_Apr_01_1022,SAR-soap,2021.1.2,60.111076514205664,
133,Trial # 129,Group1-stimuli/group1-block1/fake-group2-b1/encoded_Group2_IMG_0443.jpg,0,encoded_Group2_IMG_0443.jpg,,,,,0.0,128.0,128.0,128.0,,,,,,,,,,,,,,,,,,,,,,,,,,,,,,,,,,,,,1595.3304652239894,None,1595.3304652239894,None,1595.3304652239894,None,6.0,3.081664477940649,1595.3304652239894,None,1595.3304652239894,None,4.0,6.138592586037703,1597.963964140974,None,1595.3304652239894,None,5.0,7.845611818018369,1601.0317833399167,None,1595.3304652239894,None,space,0.6321816639974713,7.875202671508305,None,1595.3304652239894,None,1595.3304652239894,None,,,,,,,,,1,2022_Apr_01_1022,SAR-soap,2021.1.2,60.111076514205664,
134,Trial # 130,Group1-stimuli/group1-block1/fake-group2-b1/encoded_Group2_IMG_0542.jpg,0,encoded_Group2_IMG_0542.jpg,,,,,0.0,129.0,129.0,129.0,,,,,,,,,,,,,,,,,,,,,,,,,,,,,,,,,,,,,1603.8484166039852,None,1603.8484166039852,None,1603.8484166039852,None,2.0,2.5801754840649664,1603.8484166039852,None,1603.8484166039852,None,1.0,3.2048030180158094,1605.9837099019203,None,1603.8484166039852,None,1.0,3.809731191024184,1606.6167619839543,None,1603.8484166039852,None,space,0.9949697609990836,3.836270217900165,None,1603.8484166039852,None,1603.8484166039852,None,,,,,,,,,1,2022_Apr_01_1022,SAR-soap,2021.1.2,60.111076514205664,
135,Trial # 131,Group1-stimuli/group1-block1/real-group1-b1/Group1_IMG_0885.jpg,1,Group1_IMG_0885.jpg,,,,,0.0,130.0,130.0,130.0,,,,,,,,,,,,,,,,,,,,,,,,,,,,,,,,,,,,,1608.7165217479924,None,1608.7165217479924,None,1608.7165217479924,None,7.0,3.1324011440156028,1608.7165217479924,None,1608.7165217479924,None,6.0,3.6552768429974094,1611.401573995012,None,1608.7165217479924,None,7.0,4.426926992018707,1611.9354574800236,None,1608.7165217479924,None,space,0.5016187810106203,4.457447993452661,None,1608.7165217479924,None,1608.7165217479924,None,,,,,,,,,1,2022_Apr_01_1022,SAR-soap,2021.1.2,60.111076514205664,
136,Trial # 132,Group1-stimuli/group1-block1/real-group1-b1/Group1_IMG_0375.jpg,1,Group1_IMG_0375.jpg,,,,,0.0,131.0,131.0,131.0,,,,,,,,,,,,,,,,,,,,,,,,,,,,,,,,,,,,,1613.735364252003,None,1613.735364252003,None,1613.735364252003,None,1.0,2.478649548953399,1613.735364252003,None,1613.735364252003,None,1.0,2.867666143923998,1615.7542059390107,None,1613.735364252003,None,1.0,3.240039687952958,1616.1539633419598,None,1613.735364252003,None,space,0.5558310529449955,3.2634485888993368,None,1613.735364252003,None,1613.735364252003,None,,,,,,,,,1,2022_Apr_01_1022,SAR-soap,2021.1.2,60.111076514205664,
137,Trial # 133,Group1-stimuli/group1-block1/fake-group2-b1/encoded_Group2_IMG_7351.jpg,0,encoded_Group2_IMG_7351.jpg,,,,,0.0,132.0,132.0,132.0,,,,,,,,,,,,,,,,,,,,,,,,,,,,,,,,,,,,,1617.5868654919325,None,1617.5868654919325,None,1617.5868654919325,None,6.0,7.386989512015134,1617.5868654919325,None,1617.5868654919325,None,2.0,9.276318680960683,1624.5226926639443,None,1617.5868654919325,None,6.0,10.981867203954607,1626.4228437279817,None,1617.5868654919325,None,space,6.15241777501069,11.013370253378524,None,1617.5868654919325,None,1617.5868654919325,None,,,,,,,,,1,2022_Apr_01_1022,SAR-soap,2021.1.2,60.111076514205664,
138,Trial # 134,Group1-stimuli/group1-block1/fake-group2-b1/encoded_Group2_IMG_0416.jpg,0,encoded_Group2_IMG_0416.jpg,,,,,0.0,133.0,133.0,133.0,,,,,,,,,,,,,,,,,,,,,,,,,,,,,,,,,,,,,1634.809547083918,None,1634.809547083918,None,1634.809547083918,None,5.0,8.23048487806227,1634.809547083918,None,1634.809547083918,None,2.0,9.586260332958773,1642.5782028109534,None,1634.809547083918,None,4.0,10.924631408066489,1643.9440678550163,None,1634.809547083918,None,space,0.6934264419833198,10.950843500555491,None,1634.809547083918,None,1634.809547083918,None,,,,,,,,,1,2022_Apr_01_1022,SAR-soap,2021.1.2,60.111076514205664,
139,Trial # 135,Group1-stimuli/group1-block1/fake-group2-b1/encoded_Group2_IMG_0139.jpg,0,encoded_Group2_IMG_0139.jpg,,,,,0.0,134.0,134.0,134.0,,,,,,,,,,,,,,,,,,,,,,,,,,,,,,,,,,,,,1646.4957471080124,None,1646.4957471080124,None,1646.4957471080124,None,1.0,2.857808454078622,1646.4957471080124,None,1646.4957471080124,None,1.0,3.2484135379781947,1648.8958203549264,None,1646.4957471080124,None,1.0,3.721317476010882,1649.296737216995,None,1646.4957471080124,None,space,0.8405332299880683,3.741253528511152,None,1646.4957471080124,None,1646.4957471080124,None,,,,,,,,,1,2022_Apr_01_1022,SAR-soap,2021.1.2,60.111076514205664,
140,Trial # 136,Group1-stimuli/group1-block1/real-group1-b1/Group1_IMG_9677.jpg,1,Group1_IMG_9677.jpg,,,,,0.0,135.0,135.0,135.0,,,,,,,,,,,,,,,,,,,,,,,,,,,,,,,,,,,,,1651.130155225983,None,1651.130155225983,None,1651.130155225983,None,3.0,14.700489173061214,1651.130155225983,None,1651.130155225983,None,1.0,11.572618468897415,1660.1004529889906,None,1651.130155225983,None,2.0,13.14592693396844,1662.2672604370164,None,1651.130155225983,None,space,2.010117286001332,13.171313163475132,None,1651.130155225983,None,1651.130155225983,None,,,,,,,,,1,2022_Apr_01_1022,SAR-soap,2021.1.2,60.111076514205664,
141,Trial # 137,Group1-stimuli/group1-block1/fake-group2-b1/encoded_Group2_IMG_5982.jpg,0,encoded_Group2_IMG_5982.jpg,,,,,0.0,136.0,136.0,136.0,,,,,,,,,,,,,,,,,,,,,,,,,,,,,,,,,,,,,1666.3687524140114,None,1666.3687524140114,None,1666.3687524140114,None,2.0,2.9258309609722346,1666.3687524140114,None,1666.3687524140114,None,1.0,3.384014920098707,1668.8355009249644,None,1666.3687524140114,None,1.0,4.554717205930501,1669.3035019600063,None,1666.3687524140114,None,space,2.925320531940088,4.578332426957786,None,1666.3687524140114,None,1666.3687524140114,None,,,,,,,,,1,2022_Apr_01_1022,SAR-soap,2021.1.2,60.111076514205664,
142,Trial # 138,Group1-stimuli/group1-block1/fake-group2-b1/encoded_Group2_IMG_1144.jpg,0,encoded_Group2_IMG_1144.jpg,,,,,0.0,137.0,137.0,137.0,,,,,,,,,,,,,,,,,,,,,,,,,,,,,,,,,,,,,1673.8871495849453,None,1673.8871495849453,None,1673.8871495849453,None,6.0,4.897572593996301,1673.8871495849453,None,1673.8871495849453,None,6.0,6.6535160089842975,1678.338198413956,None,1673.8871495849453,None,7.0,7.525857310043648,1680.1059669139795,None,1673.8871495849453,None,space,0.4787955100182444,7.552886025980115,None,1673.8871495849453,None,1673.8871495849453,None,,,,,,,,,1,2022_Apr_01_1022,SAR-soap,2021.1.2,60.111076514205664,
143,Trial # 139,Group1-stimuli/group1-block1/fake-group2-b1/encoded_Group2_IMG_0315.jpg,0,encoded_Group2_IMG_0315.jpg,,,,,0.0,138.0,138.0,138.0,,,,,,,,,,,,,,,,,,,,,,,,,,,,,,,,,,,,,1681.9725702729777,None,1681.9725702729777,None,1681.9725702729777,None,5.0,7.728799512959085,1681.9725702729777,None,1681.9725702729777,None,1.0,15.269076208933257,1689.2424136019545,None,1681.9725702729777,None,3.0,16.074714302900247,1694.0280002929503,None,1681.9725702729777,None,space,1.137232345994562,16.09812334505841,None,1681.9725702729777,None,1681.9725702729777,None,,,,,,,,,1,2022_Apr_01_1022,SAR-soap,2021.1.2,60.111076514205664,
144,Trial # 140,Group1-stimuli/group1-block1/real-group1-b1/Group1_IMG_130.jpg,1,Group1_IMG_130.jpg,,,,,0.0,139.0,139.0,139.0,,,,,,,,,,,,,,,,,,,,,,,,,,,,,,,,,,,,,1699.3453629770083,None,1699.3453629770083,None,1699.3453629770083,None,7.0,8.357934081926942,1699.3453629770083,None,1699.3453629770083,None,7.0,15.18252065195702,1707.247578546987,None,1699.3453629770083,None,7.0,13.520443212939426,1708.081685296027,None,1699.3453629770083,None,space,7.75618077092804,9.971588776563294,None,1699.3453629770083,None,1699.3453629770083,None,,,,,,,,,1,2022_Apr_01_1022,SAR-soap,2021.1.2,60.111076514205664,
145,Trial # 141,Group1-stimuli/group1-block1/real-group1-b1/Group1_IMG_0024.jpg,1,Group1_IMG_0024.jpg,,,,,0.0,140.0,140.0,140.0,,,,,,,,,,,,,,,,,,,,,,,,,,,,,,,,,,,,,1717.1170560999308,None,1717.1170560999308,None,1717.1170560999308,None,7.0,2.959820013027638,1717.1170560999308,None,1717.1170560999308,None,5.0,4.882227687980048,1719.6185722759692,None,1717.1170560999308,None,7.0,5.820726876030676,1720.6850997150177,None,1717.1170560999308,None,space,0.5896047450369224,5.845442516962066,None,1717.1170560999308,None,1717.1170560999308,None,,,,,,,,,1,2022_Apr_01_1022,SAR-soap,2021.1.2,60.111076514205664,
146,Trial # 142,Group1-stimuli/group1-block1/fake-group2-b1/encoded_Group2_IMG_5012.jpg,0,encoded_Group2_IMG_5012.jpg,,,,,0.0,141.0,141.0,141.0,,,,,,,,,,,,,,,,,,,,,,,,,,,,,,,,,,,,,1723.5855029529191,None,1723.5855029529191,None,1723.5855029529191,None,4.0,7.0747360259993,1723.5855029529191,None,1723.5855029529191,None,2.0,9.46426163695287,1730.2054172349162,None,1723.5855029529191,None,3.0,11.036981257027946,1732.6048744589789,None,1723.5855029529191,None,space,0.8144550150027499,11.057512142928315,None,1723.5855029529191,None,1723.5855029529191,None,,,,,,,,,1,2022_Apr_01_1022,SAR-soap,2021.1.2,60.111076514205664,
147,Trial # 143,Group1-stimuli/group1-block1/fake-group2-b1/encoded_Group2_IMG_0209.jpg,0,encoded_Group2_IMG_0209.jpg,,,,,0.0,142.0,142.0,142.0,,,,,,,,,,,,,,,,,,,,,,,,,,,,,,,,,,,,,1735.4908038260182,None,1735.4908038260182,None,1735.4908038260182,None,2.0,5.6468157729832456,1735.4908038260182,None,1735.4908038260182,None,1.0,2.752871025004424,1737.3408252740046,None,1735.4908038260182,None,2.0,5.026587559026666,1737.8066149799852,None,1735.4908038260182,None,space,2.506873193080537,3.61889942700509,None,1735.4908038260182,None,1735.4908038260182,None,,,,,,,,,1,2022_Apr_01_1022,SAR-soap,2021.1.2,60.111076514205664,
148,Trial # 144,Group1-stimuli/group1-block1/real-group1-b1/Group1_IMG_0373.jpg,1,Group1_IMG_0373.jpg,,,,,0.0,143.0,143.0,143.0,,,,,,,,,,,,,,,,,,,,,,,,,,,,,,,,,,,,,1741.674961094977,None,1741.674961094977,None,1741.674961094977,None,2.0,4.736085498007014,1741.674961094977,None,1741.674961094977,None,1.0,5.291799632017501,1745.9597696330163,None,1741.674961094977,None,2.0,6.163247447926551,1746.5265485839918,None,1741.674961094977,None,space,0.6185228209942579,6.196379513363354,None,1741.674961094977,None,1741.674961094977,None,,,,,,,,,1,2022_Apr_01_1022,SAR-soap,2021.1.2,60.111076514205664,
149,Trial # 145,Group1-stimuli/group1-block1/real-group1-b1/Group1_IMG_5899.jpg,1,Group1_IMG_5899.jpg,,,,,0.0,144.0,144.0,144.0,,,,,,,,,,,,,,,,,,,,,,,,,,,,,,,,,,,,,1748.5272882049903,None,1748.5272882049903,None,1748.5272882049903,None,3.0,3.8507878659293056,1748.5272882049903,None,1748.5272882049903,None,1.0,6.907256374950521,1751.9288033460034,None,1748.5272882049903,None,2.0,7.348372193053365,1754.9960573880237,None,1748.5272882049903,None,space,0.566019710036926,7.377219531335868,None,1748.5272882049903,None,1748.5272882049903,None,,,,,,,,,1,2022_Apr_01_1022,SAR-soap,2021.1.2,60.111076514205664,
150,Trial # 146,Group1-stimuli/group1-block1/real-group1-b1/Group1_IMG_0162.jpg,1,Group1_IMG_0162.jpg,,,,,0.0,145.0,145.0,145.0,,,,,,,,,,,,,,,,,,,,,,,,,,,,,,,,,,,,,1756.496122502955,None,1756.496122502955,None,1756.496122502955,None,7.0,2.715410677017644,1756.496122502955,None,1756.496122502955,None,6.0,4.038374450057745,1758.7634303480154,None,1756.496122502955,None,7.0,5.311046345974319,1760.097924776026,None,1756.496122502955,None,space,0.5421996469376609,5.3409109296044335,None,1756.496122502955,None,1756.496122502955,None,,,,,,,,,1,2022_Apr_01_1022,SAR-soap,2021.1.2,60.111076514205664,
151,Trial # 147,Group1-stimuli/group1-block1/real-group1-b1/Group1_IMG_0543.jpg,1,Group1_IMG_0543.jpg,,,,,0.0,146.0,146.0,146.0,,,,,,,,,,,,,,,,,,,,,,,,,,,,,,,,,,,,,1762.4318193899237,None,1762.4318193899237,None,1762.4318193899237,None,3.0,2.6677514200564474,1762.4318193899237,None,1762.4318193899237,None,1.0,3.2910157300066203,1764.6502169859596,None,1762.4318193899237,None,2.0,3.829080982017331,1765.2829362439224,None,1762.4318193899237,None,space,0.5795078059891239,3.859645551419817,None,1762.4318193899237,None,1762.4318193899237,None,,,,,,,,,1,2022_Apr_01_1022,SAR-soap,2021.1.2,60.111076514205664,
152,Trial # 148,Group1-stimuli/group1-block1/fake-group2-b1/encoded_Group2_IMG_0355.jpg,0,encoded_Group2_IMG_0355.jpg,,,,,0.0,147.0,147.0,147.0,,,,,,,,,,,,,,,,,,,,,,,,,,,,,,,,,,,,,1766.8990713449894,None,1766.8990713449894,None,1766.8990713449894,None,4.0,5.114758896990679,1766.8990713449894,None,1766.8990713449894,None,1.0,3.253692024969496,1768.917323716916,None,1766.8990713449894,None,3.0,3.79377220000606,1769.7169634199236,None,1766.8990713449894,None,space,1.7935619429918006,3.819688620860688,None,1766.8990713449894,None,1766.8990713449894,None,,,,,,,,,1,2022_Apr_01_1022,SAR-soap,2021.1.2,60.111076514205664,
153,Trial # 149,Group1-stimuli/group1-block1/real-group1-b1/Group1_IMG_9765.jpg,1,Group1_IMG_9765.jpg,,,,,0.0,148.0,148.0,148.0,,,,,,,,,,,,,,,,,,,,,,,,,,,,,,,,,,,,,1772.5678550199373,None,1772.5678550199373,None,1772.5678550199373,None,6.0,11.280799043015575,1772.5678550199373,None,1772.5678550199373,None,4.0,7.754150923108682,1775.936179942917,None,1772.5678550199373,None,5.0,10.05911923199892,1779.870005753939,None,1772.5678550199373,None,space,1.6974340580636635,10.084459388395771,None,1772.5678550199373,None,1772.5678550199373,None,,,,,,,,,1,2022_Apr_01_1022,SAR-soap,2021.1.2,60.111076514205664,
154,Trial # 150,Group1-stimuli/group1-block1/fake-group2-b1/encoded_Group2_IMG_1378.jpg,0,encoded_Group2_IMG_1378.jpg,,,,,0.0,149.0,149.0,149.0,,,,,,,,,,,,,,,,,,,,,,,,,,,,,,,,,,,,,1784.371273230994,None,1784.371273230994,None,1784.371273230994,None,6.0,2.426886206958443,1784.371273230994,None,1784.371273230994,None,4.0,4.382123944000341,1786.3394830619218,None,1784.371273230994,None,6.0,5.320607822039165,1788.3061866989592,None,1784.371273230994,None,space,2.3162249599117786,5.344905208097771,None,1784.371273230994,None,1784.371273230994,None,,,,,,,,,1,2022_Apr_01_1022,SAR-soap,2021.1.2,60.111076514205664,
155,Trial # 1,Group1-stimuli/group1-block2/fake-group2-b2/encoded_Group2_IMG_0155.jpg,0,encoded_Group2_IMG_0155.jpg,,,,,,,,,0.0,0.0,0.0,0.0,,,,,,,,,,,,,,,,,,,,,,,,,,,,,,,,,1876.6327297469836,None,1876.6327297469836,None,1876.6327297469836,None,7.0,3.1222520529991016,1876.6327297469836,None,1876.6327297469836,None,5.0,5.478687718976289,1879.301240838948,None,1876.6327297469836,None,6.0,6.8504640239989385,1881.6680366420187,None,1876.6327297469836,None,space,1.1290794459637254,6.869738441309892,None,1876.6327297469836,None,1876.6327297469836,None,1873.398546371027,None,1873.398546371027,None,1873.398546371027,None,1791.5567782199942,None,1,2022_Apr_01_1022,SAR-soap,2021.1.2,60.111076514205664,
156,Trial # 2,Group1-stimuli/group1-block2/real-group1-b2/Group1_IMG_0519.jpg,1,Group1_IMG_0519.jpg,,,,,,,,,0.0,1.0,1.0,1.0,,,,,,,,,,,,,,,,,,,,,,,,,,,,,,,,,1884.6694753739284,None,1884.6694753739284,None,1884.6694753739284,None,5.0,11.49833910993766,1884.6694753739284,None,1884.6694753739284,None,2.0,5.102768779965118,1886.9033063169336,None,1884.6694753739284,None,5.0,10.743784382008016,1889.337942412007,None,1884.6694753739284,None,space,3.061782271019183,9.434349847375415,None,1884.6694753739284,None,1884.6694753739284,None,,,,,,,,,1,2022_Apr_01_1022,SAR-soap,2021.1.2,60.111076514205664,
157,Trial # 3,Group1-stimuli/group1-block2/fake-group2-b2/encoded_Group2_IMG_0135.jpg,0,encoded_Group2_IMG_0135.jpg,,,,,,,,,0.0,2.0,2.0,2.0,,,,,,,,,,,,,,,,,,,,,,,,,,,,,,,,,1897.2233450299827,None,1897.2233450299827,None,1897.2233450299827,None,1.0,1.7768776529701429,1897.2233450299827,None,1897.2233450299827,None,1.0,2.132646683021449,1898.5399478169857,None,1897.2233450299827,None,1.0,2.4736880799755454,1898.9067426120164,None,1897.2233450299827,None,space,0.5950440779561177,2.496226004557684,None,1897.2233450299827,None,1897.2233450299827,None,,,,,,,,,1,2022_Apr_01_1022,SAR-soap,2021.1.2,60.111076514205664,
158,Trial # 4,Group1-stimuli/group1-block2/real-group1-b2/Group1_IMG_5310.jpg,1,Group1_IMG_5310.jpg,,,,,,,,,0.0,3.0,3.0,3.0,,,,,,,,,,,,,,,,,,,,,,,,,,,,,,,,,1900.3573396239665,None,1900.3573396239665,None,1900.3573396239665,None,7.0,6.829020616947673,1900.3573396239665,None,1900.3573396239665,None,5.0,7.517628713045269,1906.7269399379147,None,1900.3573396239665,None,7.0,8.222941261949018,1907.4260900280208,None,1900.3573396239665,None,space,0.8137132950359955,8.247448926558718,None,1900.3573396239665,None,1900.3573396239665,None,,,,,,,,,1,2022_Apr_01_1022,SAR-soap,2021.1.2,60.111076514205664,
159,Trial # 5,Group1-stimuli/group1-block2/real-group1-b2/Group1_IMG_0522.jpg,1,Group1_IMG_0522.jpg,,,,,,,,,0.0,4.0,4.0,4.0,,,,,,,,,,,,,,,,,,,,,,,,,,,,,,,,,1909.4608023129404,None,1909.4608023129404,None,1909.4608023129404,None,6.0,6.200999210006557,1909.4608023129404,None,1909.4608023129404,None,2.0,6.989920106017962,1915.2124491279249,None,1909.4608023129404,None,7.0,8.695056366967037,1916.012946793926,None,1909.4608023129404,None,space,1.7390528620453551,8.724180180463009,None,1909.4608023129404,None,1909.4608023129404,None,,,,,,,,,1,2022_Apr_01_1022,SAR-soap,2021.1.2,60.111076514205664,
160,Trial # 6,Group1-stimuli/group1-block2/fake-group2-b2/encoded_Group2_IMG_0484.jpg,0,encoded_Group2_IMG_0484.jpg,,,,,,,,,0.0,5.0,5.0,5.0,,,,,,,,,,,,,,,,,,,,,,,,,,,,,,,,,1919.9808401670307,None,1919.9808401670307,None,1919.9808401670307,None,3.0,2.919230161001906,1919.9808401670307,None,1919.9808401670307,None,1.0,4.075240690028295,1922.447342509986,None,1919.9808401670307,None,2.0,4.6485761910444126,1923.6143261829857,None,1919.9808401670307,None,space,0.4936944619985297,4.682257570559159,None,1919.9808401670307,None,1919.9808401670307,None,,,,,,,,,1,2022_Apr_01_1022,SAR-soap,2021.1.2,60.111076514205664,
161,Trial # 7,Group1-stimuli/group1-block2/fake-group2-b2/encoded_Group2_IMG_5948.jpg,0,encoded_Group2_IMG_5948.jpg,,,,,,,,,0.0,6.0,6.0,6.0,,,,,,,,,,,,,,,,,,,,,,,,,,,,,,,,,1925.1645469849464,None,1925.1645469849464,None,1925.1645469849464,None,2.0,2.428523866925389,1925.1645469849464,None,1925.1645469849464,None,1.0,3.1184952600160614,1927.1489365820307,None,1925.1645469849464,None,1.0,3.722471919027157,1927.8487572870215,None,1925.1645469849464,None,space,2.843072586110793,3.7490848599700257,None,1925.1645469849464,None,1925.1645469849464,None,,,,,,,,,1,2022_Apr_01_1022,SAR-soap,2021.1.2,60.111076514205664,
162,Trial # 8,Group1-stimuli/group1-block2/fake-group2-b2/encoded_Group2_IMG_3591.jpg,0,encoded_Group2_IMG_3591.jpg,,,,,,,,,0.0,7.0,7.0,7.0,,,,,,,,,,,,,,,,,,,,,,,,,,,,,,,,,1931.816669333028,None,1931.816669333028,None,1931.816669333028,None,2.0,3.969143845024519,1931.816669333028,None,1931.816669333028,None,1.0,4.491282548056915,1935.3351632959675,None,1931.816669333028,None,2.0,5.097618403960951,1935.8679013289511,None,1931.816669333028,None,space,0.9036658079130576,5.129847189295106,None,1931.816669333028,None,1931.816669333028,None,,,,,,,,,1,2022_Apr_01_1022,SAR-soap,2021.1.2,60.111076514205664,
