,Trial_num,image_path,ground_truth,image_name,demos.thisRepN,demos.thisTrialN,demos.thisN,demos.thisIndex,block_1.thisRepN,block_1.thisTrialN,block_1.thisN,block_1.thisIndex,block_2.thisRepN,block_2.thisTrialN,block_2.thisN,block_2.thisIndex,text_3.started,text_3.stopped,Task.started,Task.stopped,text_10.started,text_10.stopped,key_resp.keys,key_resp.rt,key_resp.started,key_resp.stopped,image_2.started,image_2.stopped,text_5.started,text_5.stopped,image_3.started,image_3.stopped,text_6.started,text_6.stopped,translucency.started,translucency.stopped,see_throughness.started,see_throughness.stopped,glow.started,glow.stopped,key_resp_10.keys,key_resp_10.rt,key_resp_10.started,key_resp_10.stopped,instruction.started,instruction.stopped,text_12.started,text_12.stopped,Trial_number.started,Trial_number.stopped,image.started,image.stopped,Instruction.started,Instruction.stopped,translucency_score.response,translucency_score.rt,translucency_score.started,translucency_score.stopped,Translucency.started,Translucency.stopped,seethroughness_score.response,seethroughness_score.rt,seethroughness_score.started,seethroughness_score.stopped,SeeThroughness.started,SeeThroughness.stopped,glow_score.response,glow_score.rt,glow_score.started,glow_score.stopped,Glow.started,Glow.stopped,to_next.keys,to_next.rt,to_next.started,to_next.stopped,grading_label_left.started,grading_label_left.stopped,grading_label_right.started,grading_label_right.stopped,instruct1.started,instruct1.stopped,instruct2.started,instruct2.stopped,text_4.started,text_4.stopped,text_2.started,text_2.stopped,session,date,expName,psychopyVersion,frameRate,Unnamed: 94
0,,,,,,,,,,,,,,,,,23.174346068000887,None,83.51864719798323,None,200.25523522001455,None,space,2.973015187017154,205.22362708701985,None,,,,,,,,,,,,,,,,,,,,,,,,,,,,,,,,,,,,,,,,,,,,,,,,,,,,,,,,,,,,,,,1,2022_Mar_29_1240,SAR-soap,2021.1.2,60.0307664912876,
1,,,,,,,,,,,,,,,,,,,,,,,,,,,208.69060542597435,None,208.69060542597435,None,242.4679477820173,None,242.4679477820173,None,255.35639886697757,None,255.35639886697757,None,255.35639886697757,None,space,11.70415275800042,255.35639886697757,None,,,,,,,,,,,,,,,,,,,,,,,,,,,,,,,,,,,,,,,,,,,,,1,2022_Mar_29_1240,SAR-soap,2021.1.2,60.0307664912876,
2,Demo 1,demo/Demo_IMG_0974.jpg,demo,Demo_IMG_0974.jpg,0.0,0.0,0.0,0.0,,,,,,,,,,,,,,,,,,,,,,,,,,,,,,,,,,,,,255.35639886697757,None,267.091847150994,None,270.65663814300206,None,270.65663814300206,None,270.65663814300206,None,6.0,30.272499820042867,270.65663814300206,None,270.65663814300206,None,6.0,75.10833905398613,300.46474376897095,None,270.65663814300206,None,3.0,143.46734364394797,345.3122810400091,None,270.65663814300206,None,space,1.4679203410050832,143.4961426242371,None,270.65663814300206,None,270.65663814300206,None,,,,,,,,,1,2022_Mar_29_1240,SAR-soap,2021.1.2,60.0307664912876,
3,Demo 2,demo/Demo_IMG_1024.jpg,demo,Demo_IMG_1024.jpg,0.0,1.0,1.0,1.0,,,,,,,,,,,,,,,,,,,,,,,,,,,,,,,,,,,,,,,,,415.7012020089896,None,415.7012020089896,None,415.7012020089896,None,2.0,20.650524110009428,415.7012020089896,None,415.7012020089896,None,1.0,19.253933284955565,421.6024559609941,None,415.7012020089896,None,1.0,27.596068552986253,434.5058190409909,None,415.7012020089896,None,space,0.4838222020189278,27.621743960597087,None,415.7012020089896,None,415.7012020089896,None,,,,,,,,,1,2022_Mar_29_1240,SAR-soap,2021.1.2,60.0307664912876,
4,Demo 3,demo/Demo_seed_80003.png,demo,Demo_seed_80003.png,0.0,2.0,2.0,2.0,,,,,,,,,,,,,,,,,,,,,,,,,,,,,,,,,,,,,,,,,443.95851386297727,None,443.95851386297727,None,443.95851386297727,None,6.0,26.43347026500851,443.95851386297727,None,443.95851386297727,None,4.0,25.904110400995705,451.6462885159999,None,443.95851386297727,None,3.0,42.41602482798044,458.34715253999457,None,443.95851386297727,None,space,1.234508792986162,42.43826745444676,None,443.95851386297727,None,443.95851386297727,None,,,,,,,,,1,2022_Mar_29_1240,SAR-soap,2021.1.2,60.0307664912876,
5,Trial # 1,Group1-stimuli/group1-block1/real-group1-b1/Group1_IMG_0022.jpg,1,Group1_IMG_0022.jpg,,,,,0.0,0.0,0.0,0.0,,,,,,,,,,,,,,,,,,,,,,,,,,,,,,,,,,,,,492.89138063497376,None,492.89138063497376,None,492.89138063497376,None,2.0,10.633752409019507,492.89138063497376,None,492.89138063497376,None,2.0,32.8467680690228,503.0771046829759,None,492.89138063497376,None,1.0,34.718147220031824,525.3011116139824,None,492.89138063497376,None,space,1.0054483959684148,34.747712199401576,None,492.89138063497376,None,492.89138063497376,None,487.6559115750133,None,487.6559115750133,None,487.6559115750133,None,,,1,2022_Mar_29_1240,SAR-soap,2021.1.2,60.0307664912876,
6,Trial # 2,Group1-stimuli/group1-block1/fake-group2-b1/encoded_Group2_IMG_0386.jpg,0,encoded_Group2_IMG_0386.jpg,,,,,0.0,1.0,1.0,1.0,,,,,,,,,,,,,,,,,,,,,,,,,,,,,,,,,,,,,528.7345351559925,None,528.7345351559925,None,528.7345351559925,None,5.0,26.21723115601344,528.7345351559925,None,528.7345351559925,None,3.0,28.557232172985096,550.8102632439695,None,528.7345351559925,None,3.0,31.16202389600221,556.843908453011,None,528.7345351559925,None,space,1.8411206590244549,31.186611401382837,None,528.7345351559925,None,528.7345351559925,None,,,,,,,,,1,2022_Mar_29_1240,SAR-soap,2021.1.2,60.0307664912876,
7,Trial # 3,Group1-stimuli/group1-block1/real-group1-b1/Group1_IMG_9704.jpg,1,Group1_IMG_9704.jpg,,,,,0.0,2.0,2.0,2.0,,,,,,,,,,,,,,,,,,,,,,,,,,,,,,,,,,,,,561.8285827100044,None,561.8285827100044,None,561.8285827100044,None,3.0,9.94078513799468,561.8285827100044,None,561.8285827100044,None,2.0,9.113346367958002,568.3648863820126,None,561.8285827100044,None,2.0,24.48832785297418,570.4993786300183,None,561.8285827100044,None,space,14.299279046012089,11.737635665864218,None,561.8285827100044,None,561.8285827100044,None,,,,,,,,,1,2022_Mar_29_1240,SAR-soap,2021.1.2,60.0307664912876,
8,Trial # 4,Group1-stimuli/group1-block1/real-group1-b1/Group1_IMG_0406.jpg,1,Group1_IMG_0406.jpg,,,,,0.0,3.0,3.0,3.0,,,,,,,,,,,,,,,,,,,,,,,,,,,,,,,,,,,,,587.9037877069786,None,587.9037877069786,None,587.9037877069786,None,5.0,5.230160444974899,587.9037877069786,None,587.9037877069786,None,2.0,7.23527910397388,592.2382804289809,None,587.9037877069786,None,2.0,9.37516327900812,594.2719618519768,None,587.9037877069786,None,space,3.870264698984101,9.402645366732033,None,587.9037877069786,None,587.9037877069786,None,,,,,,,,,1,2022_Mar_29_1240,SAR-soap,2021.1.2,60.0307664912876,
9,Trial # 5,Group1-stimuli/group1-block1/fake-group2-b1/encoded_Group2_IMG_0364.jpg,0,encoded_Group2_IMG_0364.jpg,,,,,0.0,4.0,4.0,4.0,,,,,,,,,,,,,,,,,,,,,,,,,,,,,,,,,,,,,601.2245428879978,None,601.2245428879978,None,601.2245428879978,None,2.0,3.978974227036815,601.2245428879978,None,601.2245428879978,None,2.0,12.969480250030756,604.758818466973,None,601.2245428879978,None,2.0,15.975941518961918,612.8945347539848,None,601.2245428879978,None,space,2.115137127984781,16.003505411208607,None,601.2245428879978,None,601.2245428879978,None,,,,,,,,,1,2022_Mar_29_1240,SAR-soap,2021.1.2,60.0307664912876,
10,Trial # 6,Group1-stimuli/group1-block1/fake-group2-b1/encoded_Group2_IMG_0407.jpg,0,encoded_Group2_IMG_0407.jpg,,,,,0.0,5.0,5.0,5.0,,,,,,,,,,,,,,,,,,,,,,,,,,,,,,,,,,,,,619.4128726209747,None,619.4128726209747,None,619.4128726209747,None,4.0,7.862254807027057,619.4128726209747,None,619.4128726209747,None,3.0,9.651607965992298,626.8156750809867,None,619.4128726209747,None,2.0,13.191010879003445,628.2829811479896,None,619.4128726209747,None,space,3.991094815020915,13.217413198784923,None,619.4128726209747,None,619.4128726209747,None,,,,,,,,,1,2022_Mar_29_1240,SAR-soap,2021.1.2,60.0307664912876,
11,Trial # 7,Group1-stimuli/group1-block1/real-group1-b1/Group1_IMG_0428.jpg,1,Group1_IMG_0428.jpg,,,,,0.0,6.0,6.0,6.0,,,,,,,,,,,,,,,,,,,,,,,,,,,,,,,,,,,,,636.6852111219778,None,636.6852111219778,None,636.6852111219778,None,7.0,2.127447189996019,636.6852111219778,None,636.6852111219778,None,7.0,3.215943908027839,638.352569737006,None,636.6852111219778,None,5.0,6.055412811983842,639.4525377309765,None,636.6852111219778,None,space,0.2070024120039306,6.083060772449244,None,636.6852111219778,None,636.6852111219778,None,,,,,,,,,1,2022_Mar_29_1240,SAR-soap,2021.1.2,60.0307664912876,
12,Trial # 8,Group1-stimuli/group1-block1/fake-group2-b1/encoded_Group2_IMG_0474.jpg,0,encoded_Group2_IMG_0474.jpg,,,,,0.0,7.0,7.0,7.0,,,,,,,,,,,,,,,,,,,,,,,,,,,,,,,,,,,,,643.0208127499791,None,643.0208127499791,None,643.0208127499791,None,2.0,11.029139305988792,643.0208127499791,None,643.0208127499791,None,2.0,13.003214537049644,648.80654739897,None,643.0208127499791,None,1.0,15.707437848031988,655.5751199449878,None,643.0208127499791,None,space,0.4267525630421005,15.731567120179534,None,643.0208127499791,None,643.0208127499791,None,,,,,,,,,1,2022_Mar_29_1240,SAR-soap,2021.1.2,60.0307664912876,
13,Trial # 9,Group1-stimuli/group1-block1/fake-group2-b1/encoded_Group2_IMG_1506.jpg,0,encoded_Group2_IMG_1506.jpg,,,,,0.0,8.0,8.0,8.0,,,,,,,,,,,,,,,,,,,,,,,,,,,,,,,,,,,,,659.2091880330117,None,659.2091880330117,None,659.2091880330117,None,7.0,1.8996901949867608,659.2091880330117,None,659.2091880330117,None,6.0,3.921290471975226,660.6608171670232,None,659.2091880330117,None,5.0,8.227992055995855,662.1936785079888,None,659.2091880330117,None,space,33.275791293999646,5.458043630816974,None,659.2091880330117,None,659.2091880330117,None,,,,,,,,,1,2022_Mar_29_1240,SAR-soap,2021.1.2,60.0307664912876,
14,Trial # 10,Group1-stimuli/group1-block1/real-group1-b1/Group1_IMG_9789.jpg,1,Group1_IMG_9789.jpg,,,,,0.0,9.0,9.0,9.0,,,,,,,,,,,,,,,,,,,,,,,,,,,,,,,,,,,,,697.9717089069891,None,697.9717089069891,None,697.9717089069891,None,2.0,2.543100580049213,697.9717089069891,None,697.9717089069891,None,2.0,21.03667028696509,700.0552807190106,None,697.9717089069891,None,1.0,23.34465992997866,718.5605875210022,None,697.9717089069891,None,space,1.400338831008412,23.367376923153643,None,697.9717089069891,None,697.9717089069891,None,,,,,,,,,1,2022_Mar_29_1240,SAR-soap,2021.1.2,60.0307664912876,
15,Trial # 11,Group1-stimuli/group1-block1/real-group1-b1/Group1_IMG_9778.jpg,1,Group1_IMG_9778.jpg,,,,,0.0,10.0,10.0,10.0,,,,,,,,,,,,,,,,,,,,,,,,,,,,,,,,,,,,,722.7617375800037,None,722.7617375800037,None,722.7617375800037,None,6.0,2.117234050994739,722.7617375800037,None,722.7617375800037,None,3.0,6.373696887982078,724.4290174630005,None,722.7617375800037,None,3.0,10.479961429024115,727.2632722919807,None,722.7617375800037,None,space,0.1677861670032143,10.5130058308132,None,722.7617375800037,None,722.7617375800037,None,,,,,,,,,1,2022_Mar_29_1240,SAR-soap,2021.1.2,60.0307664912876,
16,Trial # 12,Group1-stimuli/group1-block1/real-group1-b1/Group1_IMG_9813.jpg,1,Group1_IMG_9813.jpg,,,,,0.0,11.0,11.0,11.0,,,,,,,,,,,,,,,,,,,,,,,,,,,,,,,,,,,,,733.4992320960155,None,733.4992320960155,None,733.4992320960155,None,2.0,5.552403838955797,733.4992320960155,None,733.4992320960155,None,1.0,4.991073901997879,735.4161024530185,None,733.4992320960155,None,2.0,7.964898528007325,738.0502341259853,None,733.4992320960155,None,space,0.5806456859572791,7.563786790822633,None,733.4992320960155,None,733.4992320960155,None,,,,,,,,,1,2022_Mar_29_1240,SAR-soap,2021.1.2,60.0307664912876,
17,Trial # 13,Group1-stimuli/group1-block1/real-group1-b1/Group1_IMG_0516.jpg,1,Group1_IMG_0516.jpg,,,,,0.0,12.0,12.0,12.0,,,,,,,,,,,,,,,,,,,,,,,,,,,,,,,,,,,,,741.6850720620132,None,741.6850720620132,None,741.6850720620132,None,7.0,1.9979869330418296,741.6850720620132,None,741.6850720620132,None,6.0,7.287646764947567,743.2352021909901,None,741.6850720620132,None,3.0,9.02729635295691,748.5365916980081,None,741.6850720620132,None,space,0.1903129070415161,9.05899821879575,None,741.6850720620132,None,741.6850720620132,None,,,,,,,,,1,2022_Mar_29_1240,SAR-soap,2021.1.2,60.0307664912876,
18,Trial # 14,Group1-stimuli/group1-block1/fake-group2-b1/encoded_Group2_IMG_0038.jpg,0,encoded_Group2_IMG_0038.jpg,,,,,0.0,13.0,13.0,13.0,,,,,,,,,,,,,,,,,,,,,,,,,,,,,,,,,,,,,750.9714974049712,None,750.9714974049712,None,750.9714974049712,None,6.0,13.165284651971888,750.9714974049712,None,750.9714974049712,None,3.0,15.956023328006268,763.6911445549922,None,750.9714974049712,None,3.0,17.09549276897451,764.8595262889867,None,750.9714974049712,None,space,0.7963343689916655,17.122395859798416,None,750.9714974049712,None,750.9714974049712,None,,,,,,,,,1,2022_Mar_29_1240,SAR-soap,2021.1.2,60.0307664912876,
19,Trial # 15,Group1-stimuli/group1-block1/real-group1-b1/Group1_IMG_5984.jpg,1,Group1_IMG_5984.jpg,,,,,0.0,14.0,14.0,14.0,,,,,,,,,,,,,,,,,,,,,,,,,,,,,,,,,,,,,768.926395774004,None,768.926395774004,None,768.926395774004,None,3.0,5.628724576032255,768.926395774004,None,768.926395774004,None,2.0,6.417942180996761,774.0947226500139,None,768.926395774004,None,2.0,8.058804036001675,774.8959027689998,None,768.926395774004,None,space,0.4762848649988882,8.085181763162836,None,768.926395774004,None,768.926395774004,None,,,,,,,,,1,2022_Mar_29_1240,SAR-soap,2021.1.2,60.0307664912876,
20,Trial # 16,Group1-stimuli/group1-block1/real-group1-b1/Group1_IMG_0383.jpg,1,Group1_IMG_0383.jpg,,,,,0.0,15.0,15.0,15.0,,,,,,,,,,,,,,,,,,,,,,,,,,,,,,,,,,,,,777.5293824570253,None,777.5293824570253,None,777.5293824570253,None,5.0,8.191693931003101,777.5293824570253,None,777.5293824570253,None,3.0,10.214664289029315,785.2657251390046,None,777.5293824570253,None,2.0,11.48644459003117,786.1318751249928,None,777.5293824570253,None,space,0.5763469089870341,11.50801424914971,None,777.5293824570253,None,777.5293824570253,None,,,,,,,,,1,2022_Mar_29_1240,SAR-soap,2021.1.2,60.0307664912876,
21,Trial # 17,Group1-stimuli/group1-block1/fake-group2-b1/encoded_Group2_IMG_0456.jpg,0,encoded_Group2_IMG_0456.jpg,,,,,0.0,16.0,16.0,16.0,,,,,,,,,,,,,,,,,,,,,,,,,,,,,,,,,,,,,789.6652561289957,None,789.6652561289957,None,789.6652561289957,None,6.0,8.079418475972489,789.6652561289957,None,789.6652561289957,None,3.0,8.850000340025872,793.1672677730094,None,789.6652561289957,None,3.0,9.889731283008588,796.5349432869698,None,789.6652561289957,None,space,1.0078696670243517,9.913021515181754,None,789.6652561289957,None,789.6652561289957,None,,,,,,,,,1,2022_Mar_29_1240,SAR-soap,2021.1.2,60.0307664912876,
22,Trial # 18,Group1-stimuli/group1-block1/fake-group2-b1/encoded_Group2_IMG_8390.jpg,0,encoded_Group2_IMG_8390.jpg,,,,,0.0,17.0,17.0,17.0,,,,,,,,,,,,,,,,,,,,,,,,,,,,,,,,,,,,,800.669343623973,None,800.669343623973,None,800.669343623973,None,5.0,10.780069407948758,800.669343623973,None,800.669343623973,None,3.0,12.30234912596643,810.9905537610175,None,800.669343623973,None,6.0,15.740824389038607,812.522832571005,None,800.669343623973,None,space,4.743836932990234,13.798166350461544,None,800.669343623973,None,800.669343623973,None,,,,,,,,,1,2022_Mar_29_1240,SAR-soap,2021.1.2,60.0307664912876,
23,Trial # 19,Group1-stimuli/group1-block1/real-group1-b1/Group1_IMG_0011.jpg,1,Group1_IMG_0011.jpg,,,,,0.0,18.0,18.0,18.0,,,,,,,,,,,,,,,,,,,,,,,,,,,,,,,,,,,,,819.2581259509898,None,819.2581259509898,None,819.2581259509898,None,7.0,4.198661711008754,819.2581259509898,None,819.2581259509898,None,7.0,5.604788249998819,822.3263849570067,None,819.2581259509898,None,5.0,7.210136457986664,824.4269190719933,None,819.2581259509898,None,space,0.2655677460134029,7.240489150804933,None,819.2581259509898,None,819.2581259509898,None,,,,,,,,,1,2022_Mar_29_1240,SAR-soap,2021.1.2,60.0307664912876,
24,Trial # 20,Group1-stimuli/group1-block1/fake-group2-b1/encoded_Group2_IMG_0328.jpg,0,encoded_Group2_IMG_0328.jpg,,,,,0.0,19.0,19.0,19.0,,,,,,,,,,,,,,,,,,,,,,,,,,,,,,,,,,,,,826.7944957899745,None,826.7944957899745,None,826.7944957899745,None,3.0,4.206962755997665,826.7944957899745,None,826.7944957899745,None,2.0,6.512515870039351,829.4621992480243,None,826.7944957899745,None,3.0,8.051058017998002,831.8292627629708,None,826.7944957899745,None,space,0.2735162200406194,8.072924609179609,None,826.7944957899745,None,826.7944957899745,None,,,,,,,,,1,2022_Mar_29_1240,SAR-soap,2021.1.2,60.0307664912876,
25,Trial # 21,Group1-stimuli/group1-block1/fake-group2-b1/encoded_Group2_IMG_0163.jpg,0,encoded_Group2_IMG_0163.jpg,,,,,0.0,20.0,20.0,20.0,,,,,,,,,,,,,,,,,,,,,,,,,,,,,,,,,,,,,835.180795600987,None,835.180795600987,None,835.180795600987,None,7.0,3.3813651489908807,835.180795600987,None,835.180795600987,None,7.0,5.603243691031821,838.1143226459972,None,835.180795600987,None,3.0,8.043362789030652,839.0811244089855,None,835.180795600987,None,space,0.1036178920185193,8.071241542231292,None,835.180795600987,None,835.180795600987,None,,,,,,,,,1,2022_Mar_29_1240,SAR-soap,2021.1.2,60.0307664912876,
26,Trial # 22,Group1-stimuli/group1-block1/real-group1-b1/Group1_IMG_9862.jpg,1,Group1_IMG_9862.jpg,,,,,0.0,21.0,21.0,21.0,,,,,,,,,,,,,,,,,,,,,,,,,,,,,,,,,,,,,843.4161732220091,None,843.4161732220091,None,843.4161732220091,None,2.0,1.913686357031111,843.4161732220091,None,843.4161732220091,None,1.0,4.16824498900678,844.8845680420054,None,843.4161732220091,None,2.0,4.708874384989031,846.0510404719971,None,843.4161732220091,None,space,0.1136837099911645,4.736252341768704,None,843.4161732220091,None,843.4161732220091,None,,,,,,,,,1,2022_Mar_29_1240,SAR-soap,2021.1.2,60.0307664912876,
27,Trial # 23,Group1-stimuli/group1-block1/fake-group2-b1/encoded_Group2_IMG_0296.jpg,0,encoded_Group2_IMG_0296.jpg,,,,,0.0,22.0,22.0,22.0,,,,,,,,,,,,,,,,,,,,,,,,,,,,,,,,,,,,,848.3012041730108,None,848.3012041730108,None,848.3012041730108,None,7.0,1.7296241570147686,848.3012041730108,None,848.3012041730108,None,3.0,3.952462013054173,849.5843884000205,None,848.3012041730108,None,3.0,15.928205079981126,851.819286694983,None,848.3012041730108,None,space,0.0974128599627874,15.955984644184356,None,848.3012041730108,None,848.3012041730108,None,,,,,,,,,1,2022_Mar_29_1240,SAR-soap,2021.1.2,60.0307664912876,
28,Trial # 24,Group1-stimuli/group1-block1/fake-group2-b1/encoded_Group2_IMG_0503.jpg,0,encoded_Group2_IMG_0503.jpg,,,,,0.0,23.0,23.0,23.0,,,,,,,,,,,,,,,,,,,,,,,,,,,,,,,,,,,,,864.3883139059762,None,864.3883139059762,None,864.3883139059762,None,7.0,1.9549920199788176,864.3883139059762,None,864.3883139059762,None,5.0,4.4439208740368485,865.891086980002,None,864.3883139059762,None,5.0,7.687004511011764,867.9905398819828,None,864.3883139059762,None,space,0.5563398139784113,7.304978515196126,None,864.3883139059762,None,864.3883139059762,None,,,,,,,,,1,2022_Mar_29_1240,SAR-soap,2021.1.2,60.0307664912876,
29,Trial # 25,Group1-stimuli/group1-block1/fake-group2-b1/encoded_Group2_IMG_9804.jpg,0,encoded_Group2_IMG_9804.jpg,,,,,0.0,24.0,24.0,24.0,,,,,,,,,,,,,,,,,,,,,,,,,,,,,,,,,,,,,872.2748885549954,None,872.2748885549954,None,872.2748885549954,None,1.0,2.2973128640442155,872.2748885549954,None,872.2748885549954,None,1.0,4.253785223001614,874.125605912006,None,872.2748885549954,None,2.0,4.893797378987074,875.4270262650098,None,872.2748885549954,None,space,0.2155560979736037,4.9208633552188985,None,872.2748885549954,None,872.2748885549954,None,,,,,,,,,1,2022_Mar_29_1240,SAR-soap,2021.1.2,60.0307664912876,
30,Trial # 26,Group1-stimuli/group1-block1/real-group1-b1/Group1_IMG_0391.jpg,1,Group1_IMG_0391.jpg,,,,,0.0,25.0,25.0,25.0,,,,,,,,,,,,,,,,,,,,,,,,,,,,,,,,,,,,,877.4765376219875,None,877.4765376219875,None,877.4765376219875,None,4.0,4.061959685990587,877.4765376219875,None,877.4765376219875,None,2.0,5.499309506965801,880.6289846209693,None,877.4765376219875,None,3.0,7.438944221998099,882.5287117459811,None,877.4765376219875,None,space,0.1602810670156031,7.463953069818672,None,877.4765376219875,None,877.4765376219875,None,,,,,,,,,1,2022_Mar_29_1240,SAR-soap,2021.1.2,60.0307664912876,
31,Trial # 27,Group1-stimuli/group1-block1/fake-group2-b1/encoded_Group2_IMG_3584.jpg,0,encoded_Group2_IMG_3584.jpg,,,,,0.0,26.0,26.0,26.0,,,,,,,,,,,,,,,,,,,,,,,,,,,,,,,,,,,,,885.1298062370042,None,885.1298062370042,None,885.1298062370042,None,4.0,20.121765643008985,885.1298062370042,None,885.1298062370042,None,2.0,17.52778736304026,887.3130116579705,None,885.1298062370042,None,2.0,24.368819815979805,902.2169410909992,None,885.1298062370042,None,space,2.271118310978636,22.26442953676451,None,885.1298062370042,None,885.1298062370042,None,,,,,,,,,1,2022_Mar_29_1240,SAR-soap,2021.1.2,60.0307664912876,
32,Trial # 28,Group1-stimuli/group1-block1/fake-group2-b1/encoded_Group2_IMG_0434.jpg,0,encoded_Group2_IMG_0434.jpg,,,,,0.0,27.0,27.0,27.0,,,,,,,,,,,,,,,,,,,,,,,,,,,,,,,,,,,,,909.7200044770144,None,909.7200044770144,None,909.7200044770144,None,7.0,1.633878435997758,909.7200044770144,None,909.7200044770144,None,7.0,3.1212570820352994,910.9038147479878,None,909.7200044770144,None,5.0,4.928314437973313,912.4041333849892,None,909.7200044770144,None,space,0.657573431963101,4.958947197825182,None,909.7200044770144,None,909.7200044770144,None,,,,,,,,,1,2022_Mar_29_1240,SAR-soap,2021.1.2,60.0307664912876,
33,Trial # 29,Group1-stimuli/group1-block1/fake-group2-b1/encoded_Group2_IMG_9575.jpg,0,encoded_Group2_IMG_9575.jpg,,,,,0.0,28.0,28.0,28.0,,,,,,,,,,,,,,,,,,,,,,,,,,,,,,,,,,,,,915.354873906006,None,915.354873906006,None,915.354873906006,None,5.0,12.666801308048887,915.354873906006,None,915.354873906006,None,3.0,14.739499469986184,927.5752274310216,None,915.354873906006,None,2.0,16.246310778020415,928.8258378899772,None,915.354873906006,None,space,0.1890695359907113,16.27446667419281,None,915.354873906006,None,915.354873906006,None,,,,,,,,,1,2022_Mar_29_1240,SAR-soap,2021.1.2,60.0307664912876,
34,Trial # 30,Group1-stimuli/group1-block1/fake-group2-b1/encoded_Group2_IMG_1025.jpg,0,encoded_Group2_IMG_1025.jpg,,,,,0.0,29.0,29.0,29.0,,,,,,,,,,,,,,,,,,,,,,,,,,,,,,,,,,,,,931.8432924629888,None,931.8432924629888,None,931.8432924629888,None,1.0,1.9472752190195024,931.8432924629888,None,931.8432924629888,None,1.0,6.770921504008584,933.3433976129744,None,931.8432924629888,None,2.0,3.9424965170328505,934.3100874159718,None,931.8432924629888,None,space,4.508462112979032,3.970969637215603,None,931.8432924629888,None,931.8432924629888,None,,,,,,,,,1,2022_Mar_29_1240,SAR-soap,2021.1.2,60.0307664912876,
35,Trial # 31,Group1-stimuli/group1-block1/real-group1-b1/Group1_IMG_0502.jpg,1,Group1_IMG_0502.jpg,,,,,0.0,30.0,30.0,30.0,,,,,,,,,,,,,,,,,,,,,,,,,,,,,,,,,,,,,940.3800121460226,None,940.3800121460226,None,940.3800121460226,None,7.0,2.317355352046434,940.3800121460226,None,940.3800121460226,None,7.0,2.7227949599619024,941.796931913006,None,940.3800121460226,None,3.0,3.5611865560058504,942.6630282669794,None,940.3800121460226,None,space,1.5411333700176328,3.5939599348348565,None,940.3800121460226,None,940.3800121460226,None,,,,,,,,,1,2022_Mar_29_1240,SAR-soap,2021.1.2,60.0307664912876,
36,Trial # 32,Group1-stimuli/group1-block1/real-group1-b1/Group1_IMG_0182.jpg,1,Group1_IMG_0182.jpg,,,,,0.0,31.0,31.0,31.0,,,,,,,,,,,,,,,,,,,,,,,,,,,,,,,,,,,,,945.5650825289777,None,945.5650825289777,None,945.5650825289777,None,7.0,2.0791474140132777,945.5650825289777,None,945.5650825289777,None,6.0,4.300854734960012,947.1982150429976,None,945.5650825289777,None,3.0,5.307161205972079,948.9650475269882,None,945.5650825289777,None,space,0.3405204240116291,5.336624192772433,None,945.5650825289777,None,945.5650825289777,None,,,,,,,,,1,2022_Mar_29_1240,SAR-soap,2021.1.2,60.0307664912876,
37,Trial # 33,Group1-stimuli/group1-block1/fake-group2-b1/encoded_Group2_IMG_2728.jpg,0,encoded_Group2_IMG_2728.jpg,,,,,0.0,32.0,32.0,32.0,,,,,,,,,,,,,,,,,,,,,,,,,,,,,,,,,,,,,951.282903491985,None,951.282903491985,None,951.282903491985,None,5.0,6.0658128439681605,951.282903491985,None,951.282903491985,None,3.0,7.304595771012828,955.3183136340232,None,951.282903491985,None,2.0,8.342000474978704,958.1509975229856,None,951.282903491985,None,space,0.1091064880019985,8.370931456214748,None,951.282903491985,None,951.282903491985,None,,,,,,,,,1,2022_Mar_29_1240,SAR-soap,2021.1.2,60.0307664912876,
38,Trial # 34,Group1-stimuli/group1-block1/fake-group2-b1/encoded_Group2_IMG_4867.jpg,0,encoded_Group2_IMG_4867.jpg,,,,,0.0,33.0,33.0,33.0,,,,,,,,,,,,,,,,,,,,,,,,,,,,,,,,,,,,,959.801140644995,None,959.801140644995,None,959.801140644995,None,7.0,1.5476006429526024,959.801140644995,None,959.801140644995,None,5.0,16.44132936897222,960.902590941987,None,959.801140644995,None,4.0,18.24742555595003,961.50318806601,None,959.801140644995,None,space,1.314818685001228,17.37418601824902,None,959.801140644995,None,959.801140644995,None,,,,,,,,,1,2022_Mar_29_1240,SAR-soap,2021.1.2,60.0307664912876,
39,Trial # 35,Group1-stimuli/group1-block1/real-group1-b1/Group1_IMG_9894.jpg,1,Group1_IMG_9894.jpg,,,,,0.0,34.0,34.0,34.0,,,,,,,,,,,,,,,,,,,,,,,,,,,,,,,,,,,,,978.557335992984,None,978.557335992984,None,978.557335992984,None,1.0,1.761418896028772,978.557335992984,None,978.557335992984,None,1.0,2.118748645996675,979.8746353979805,None,978.557335992984,None,1.0,2.75795013201423,980.2420284500112,None,978.557335992984,None,space,0.1866945020155981,2.7836390354204923,None,978.557335992984,None,978.557335992984,None,,,,,,,,,1,2022_Mar_29_1240,SAR-soap,2021.1.2,60.0307664912876,
40,Trial # 36,Group1-stimuli/group1-block1/fake-group2-b1/encoded_Group2_IMG_0444.jpg,0,encoded_Group2_IMG_0444.jpg,,,,,0.0,35.0,35.0,35.0,,,,,,,,,,,,,,,,,,,,,,,,,,,,,,,,,,,,,981.5593286000076,None,981.5593286000076,None,981.5593286000076,None,5.0,2.2459653330151923,981.5593286000076,None,981.5593286000076,None,3.0,4.236144675000105,983.3588623559916,None,981.5593286000076,None,2.0,5.474110055016354,984.7594334710157,None,981.5593286000076,None,space,0.0839522259775549,5.502948271227069,None,981.5593286000076,None,981.5593286000076,None,,,,,,,,,1,2022_Mar_29_1240,SAR-soap,2021.1.2,60.0307664912876,
41,Trial # 37,Group1-stimuli/group1-block1/real-group1-b1/Group1_IMG_2656.jpg,1,Group1_IMG_2656.jpg,,,,,0.0,36.0,36.0,36.0,,,,,,,,,,,,,,,,,,,,,,,,,,,,,,,,,,,,,987.1935957690002,None,987.1935957690002,None,987.1935957690002,None,5.0,72.6494185180054,987.1935957690002,None,987.1935957690002,None,3.0,74.30474825197598,1059.3827426590142,None,987.1935957690002,None,2.0,76.67653016798431,1061.0508536429843,None,987.1935957690002,None,space,0.8367384709999897,76.70373127120547,None,987.1935957690002,None,987.1935957690002,None,,,,,,,,,1,2022_Mar_29_1240,SAR-soap,2021.1.2,60.0307664912876,
42,Trial # 38,Group1-stimuli/group1-block1/real-group1-b1/Group1_IMG_0207.jpg,1,Group1_IMG_0207.jpg,,,,,0.0,37.0,37.0,37.0,,,,,,,,,,,,,,,,,,,,,,,,,,,,,,,,,,,,,1064.7834343090071,None,1064.7834343090071,None,1064.7834343090071,None,3.0,8.007549455971457,1064.7834343090071,None,1064.7834343090071,None,1.0,11.16340656200191,1072.3540722239995,None,1064.7834343090071,None,2.0,12.969570292974822,1074.253490965988,None,1064.7834343090071,None,space,0.1712661699857562,13.005023131379858,None,1064.7834343090071,None,1064.7834343090071,None,,,,,,,,,1,2022_Mar_29_1240,SAR-soap,2021.1.2,60.0307664912876,
43,Trial # 39,Group1-stimuli/group1-block1/real-group1-b1/Group1_IMG_9638.jpg,1,Group1_IMG_9638.jpg,,,,,0.0,38.0,38.0,38.0,,,,,,,,,,,,,,,,,,,,,,,,,,,,,,,,,,,,,1078.038533416984,None,1078.038533416984,None,1078.038533416984,None,7.0,2.2596729369834065,1078.038533416984,None,1078.038533416984,None,6.0,3.883233002037741,1079.8385984179913,None,1078.038533416984,None,6.0,7.5903969799983315,1081.1731840979774,None,1078.038533416984,None,space,0.3913153649773448,7.612881799752358,None,1078.038533416984,None,1078.038533416984,None,,,,,,,,,1,2022_Mar_29_1240,SAR-soap,2021.1.2,60.0307664912876,
44,Trial # 40,Group1-stimuli/group1-block1/real-group1-b1/Group1_IMG_0148.jpg,1,Group1_IMG_0148.jpg,,,,,0.0,39.0,39.0,39.0,,,,,,,,,,,,,,,,,,,,,,,,,,,,,,,,,,,,,1086.0749427999835,None,1086.0749427999835,None,1086.0749427999835,None,7.0,2.0584419979713857,1086.0749427999835,None,1086.0749427999835,None,7.0,2.7138094610418197,1087.6753562549711,None,1086.0749427999835,None,3.0,5.388166555960197,1088.3413000470027,None,1086.0749427999835,None,space,1.2474912970210426,4.944028529163916,None,1086.0749427999835,None,1086.0749427999835,None,,,,,,,,,1,2022_Mar_29_1240,SAR-soap,2021.1.2,60.0307664912876,
45,Trial # 41,Group1-stimuli/group1-block1/real-group1-b1/Group1_IMG_2891.jpg,1,Group1_IMG_2891.jpg,,,,,0.0,40.0,40.0,40.0,,,,,,,,,,,,,,,,,,,,,,,,,,,,,,,,,,,,,1092.3090540220146,None,1092.3090540220146,None,1092.3090540220146,None,5.0,2.543277394026518,1092.3090540220146,None,1092.3090540220146,None,2.0,3.449644061969593,1094.394289155025,None,1092.3090540220146,None,3.0,7.955047449970152,1095.3111343699857,None,1092.3090540220146,None,space,2.1797549659968354,5.948153990204446,None,1092.3090540220146,None,1092.3090540220146,None,,,,,,,,,1,2022_Mar_29_1240,SAR-soap,2021.1.2,60.0307664912876,
46,Trial # 42,Group1-stimuli/group1-block1/real-group1-b1/Group1_IMG_0157.jpg,1,Group1_IMG_0157.jpg,,,,,0.0,41.0,41.0,41.0,,,,,,,,,,,,,,,,,,,,,,,,,,,,,,,,,,,,,1100.4794218119932,None,1100.4794218119932,None,1100.4794218119932,None,7.0,1.4971922609838657,1100.4794218119932,None,1100.4794218119932,None,7.0,1.9856270109885368,1101.529384427995,None,1100.4794218119932,None,5.0,2.724104838969652,1102.029485758976,None,1100.4794218119932,None,space,0.6906877469737083,2.753670610836707,None,1100.4794218119932,None,1100.4794218119932,None,,,,,,,,,1,2022_Mar_29_1240,SAR-soap,2021.1.2,60.0307664912876,
47,Trial # 43,Group1-stimuli/group1-block1/real-group1-b1/Group1_IMG_9833.jpg,1,Group1_IMG_9833.jpg,,,,,0.0,42.0,42.0,42.0,,,,,,,,,,,,,,,,,,,,,,,,,,,,,,,,,,,,,1103.9632484460017,None,1103.9632484460017,None,1103.9632484460017,None,2.0,4.768614915024955,1103.9632484460017,None,1103.9632484460017,None,1.0,3.5403042469988577,1105.231365020969,None,1103.9632484460017,None,1.0,5.678022181033157,1105.8981481299852,None,1103.9632484460017,None,space,0.2080033530364744,5.710300463775639,None,1103.9632484460017,None,1103.9632484460017,None,,,,,,,,,1,2022_Mar_29_1240,SAR-soap,2021.1.2,60.0307664912876,
48,Trial # 44,Group1-stimuli/group1-block1/fake-group2-b1/encoded_Group2_IMG_2230.jpg,0,encoded_Group2_IMG_2230.jpg,,,,,0.0,43.0,43.0,43.0,,,,,,,,,,,,,,,,,,,,,,,,,,,,,,,,,,,,,1109.9139708870207,None,1109.9139708870207,None,1109.9139708870207,None,6.0,2.529664298985153,1109.9139708870207,None,1109.9139708870207,None,5.0,7.553190667997114,1112.000308266026,None,1109.9139708870207,None,3.0,10.026445418014193,1117.0340834190138,None,1109.9139708870207,None,space,0.7290165729937144,10.053735890192913,None,1109.9139708870207,None,1109.9139708870207,None,,,,,,,,,1,2022_Mar_29_1240,SAR-soap,2021.1.2,60.0307664912876,
49,Trial # 45,Group1-stimuli/group1-block1/real-group1-b1/Group1_IMG_9966.jpg,1,Group1_IMG_9966.jpg,,,,,0.0,44.0,44.0,44.0,,,,,,,,,,,,,,,,,,,,,,,,,,,,,,,,,,,,,1120.734860666969,None,1120.734860666969,None,1120.734860666969,None,5.0,3.932666614011396,1120.734860666969,None,1120.734860666969,None,6.0,2.537429347983561,1121.8698602090008,None,1120.734860666969,None,3.0,5.078376986028161,1122.8354765690165,None,1120.734860666969,None,space,1.0194729409995489,5.108000997803174,None,1120.734860666969,None,1120.734860666969,None,,,,,,,,,1,2022_Mar_29_1240,SAR-soap,2021.1.2,60.0307664912876,
50,Trial # 46,Group1-stimuli/group1-block1/real-group1-b1/Group1_IMG_0239.jpg,1,Group1_IMG_0239.jpg,,,,,0.0,45.0,45.0,45.0,,,,,,,,,,,,,,,,,,,,,,,,,,,,,,,,,,,,,1126.9030873280135,None,1126.9030873280135,None,1126.9030873280135,None,5.0,2.5970727020176128,1126.9030873280135,None,1126.9030873280135,None,2.0,3.286695260030683,1129.054710582015,None,1126.9030873280135,None,2.0,4.824467027036008,1129.7542661990155,None,1126.9030873280135,None,space,3.340739067003597,4.855351437814534,None,1126.9030873280135,None,1126.9030873280135,None,,,,,,,,,1,2022_Mar_29_1240,SAR-soap,2021.1.2,60.0307664912876,
51,Trial # 47,Group1-stimuli/group1-block1/fake-group2-b1/encoded_Group2_IMG_0536.jpg,0,encoded_Group2_IMG_0536.jpg,,,,,0.0,46.0,46.0,46.0,,,,,,,,,,,,,,,,,,,,,,,,,,,,,,,,,,,,,1135.1394206450204,None,1135.1394206450204,None,1135.1394206450204,None,3.0,2.047997549001593,1135.1394206450204,None,1135.1394206450204,None,2.0,2.7362555360305123,1136.740558282996,None,1135.1394206450204,None,1.0,3.542414036986884,1137.4406558909686,None,1135.1394206450204,None,space,0.8940412649535574,3.570504224218894,None,1135.1394206450204,None,1135.1394206450204,None,,,,,,,,,1,2022_Mar_29_1240,SAR-soap,2021.1.2,60.0307664912876,
52,Trial # 48,Group1-stimuli/group1-block1/fake-group2-b1/encoded_Group2_IMG_0521.jpg,0,encoded_Group2_IMG_0521.jpg,,,,,0.0,47.0,47.0,47.0,,,,,,,,,,,,,,,,,,,,,,,,,,,,,,,,,,,,,1139.6234343210235,None,1139.6234343210235,None,1139.6234343210235,None,5.0,10.499592327978462,1139.6234343210235,None,1139.6234343210235,None,5.0,7.804587231017649,1141.5587802159716,None,1139.6234343210235,None,5.0,5.14220312301768,1142.059202997014,None,1139.6234343210235,None,space,6.944341501046438,3.969789064140059,None,1139.6234343210235,None,1139.6234343210235,None,,,,,,,,,1,2022_Mar_29_1240,SAR-soap,2021.1.2,60.0307664912876,
53,Trial # 49,Group1-stimuli/group1-block1/fake-group2-b1/encoded_Group2_IMG_9924.jpg,0,encoded_Group2_IMG_9924.jpg,,,,,0.0,48.0,48.0,48.0,,,,,,,,,,,,,,,,,,,,,,,,,,,,,,,,,,,,,1150.5782156549976,None,1150.5782156549976,None,1150.5782156549976,None,2.0,2.003267791995313,1150.5782156549976,None,1150.5782156549976,None,1.0,2.92571187595604,1152.1450100580114,None,1150.5782156549976,None,2.0,3.9299594660406,1153.0780993360097,None,1150.5782156549976,None,space,1.2561076550045982,3.9657636448391713,None,1150.5782156549976,None,1150.5782156549976,None,,,,,,,,,1,2022_Mar_29_1240,SAR-soap,2021.1.2,60.0307664912876,
54,Trial # 50,Group1-stimuli/group1-block1/real-group1-b1/Group1_IMG_9730.jpg,1,Group1_IMG_9730.jpg,,,,,0.0,49.0,49.0,49.0,,,,,,,,,,,,,,,,,,,,,,,,,,,,,,,,,,,,,1155.9629249110003,None,1155.9629249110003,None,1155.9629249110003,None,7.0,1.7955059030209668,1155.9629249110003,None,1155.9629249110003,None,7.0,3.550765604013577,1157.313647404022,None,1155.9629249110003,None,2.0,6.389948102994822,1157.879280417983,None,1155.9629249110003,None,space,1.0468937029945664,5.91928423603531,None,1155.9629249110003,None,1155.9629249110003,None,,,,,,,,,1,2022_Mar_29_1240,SAR-soap,2021.1.2,60.0307664912876,
55,Trial # 51,Group1-stimuli/group1-block1/real-group1-b1/Group1_IMG_0053.jpg,1,Group1_IMG_0053.jpg,,,,,0.0,50.0,50.0,50.0,,,,,,,,,,,,,,,,,,,,,,,,,,,,,,,,,,,,,1162.9976112190052,None,1162.9976112190052,None,1162.9976112190052,None,2.0,8.664754836005159,1162.9976112190052,None,1162.9976112190052,None,2.0,10.27071343397256,1166.9163700770005,None,1162.9976112190052,None,2.0,12.207860253984109,1172.8175464170054,None,1162.9976112190052,None,space,0.1424240510095842,12.234889152809046,None,1162.9976112190052,None,1162.9976112190052,None,,,,,,,,,1,2022_Mar_29_1240,SAR-soap,2021.1.2,60.0307664912876,
56,Trial # 52,Group1-stimuli/group1-block1/real-group1-b1/Group1_IMG_9698.jpg,1,Group1_IMG_9698.jpg,,,,,0.0,51.0,51.0,51.0,,,,,,,,,,,,,,,,,,,,,,,,,,,,,,,,,,,,,1175.4352606380126,None,1175.4352606380126,None,1175.4352606380126,None,2.0,1.8797569629969075,1175.4352606380126,None,1175.4352606380126,None,1.0,2.5351084480062127,1176.8691487599865,None,1175.4352606380126,None,2.0,3.507136949978303,1177.536169703002,None,1175.4352606380126,None,space,0.1273079929524101,3.5338510374422185,None,1175.4352606380126,None,1175.4352606380126,None,,,,,,,,,1,2022_Mar_29_1240,SAR-soap,2021.1.2,60.0307664912876,
57,Trial # 53,Group1-stimuli/group1-block1/fake-group2-b1/encoded_Group2_IMG_0553.jpg,0,encoded_Group2_IMG_0553.jpg,,,,,0.0,52.0,52.0,52.0,,,,,,,,,,,,,,,,,,,,,,,,,,,,,,,,,,,,,1179.1353831390152,None,1179.1353831390152,None,1179.1353831390152,None,4.0,2.601006704964675,1179.1353831390152,None,1179.1353831390152,None,3.0,3.522772558964789,1181.287306494021,None,1179.1353831390152,None,2.0,4.227870639006142,1182.2215149439871,None,1179.1353831390152,None,space,0.1412482379819266,4.260770897788461,None,1179.1353831390152,None,1179.1353831390152,None,,,,,,,,,1,2022_Mar_29_1240,SAR-soap,2021.1.2,60.0307664912876,
58,Trial # 54,Group1-stimuli/group1-block1/fake-group2-b1/encoded_Group2_IMG_9758.jpg,0,encoded_Group2_IMG_9758.jpg,,,,,0.0,53.0,53.0,53.0,,,,,,,,,,,,,,,,,,,,,,,,,,,,,,,,,,,,,1183.5713882190175,None,1183.5713882190175,None,1183.5713882190175,None,7.0,1.7630517550278455,1183.5713882190175,None,1183.5713882190175,None,5.0,4.119924991042353,1184.88736725098,None,1183.5713882190175,None,3.0,5.558382117014844,1185.8223522119806,None,1183.5713882190175,None,space,0.4847448709770106,5.587357773154508,None,1183.5713882190175,None,1183.5713882190175,None,,,,,,,,,1,2022_Mar_29_1240,SAR-soap,2021.1.2,60.0307664912876,
59,Trial # 55,Group1-stimuli/group1-block1/fake-group2-b1/encoded_Group2_IMG_0339.jpg,0,encoded_Group2_IMG_0339.jpg,,,,,0.0,54.0,54.0,54.0,,,,,,,,,,,,,,,,,,,,,,,,,,,,,,,,,,,,,1189.6731810999918,None,1189.6731810999918,None,1189.6731810999918,None,3.0,2.465155206969939,1189.6731810999918,None,1189.6731810999918,None,2.0,3.4024576310184784,1191.7073385979747,None,1189.6731810999918,None,2.0,4.741280479007401,1192.6405602659795,None,1189.6731810999918,None,space,0.1677957869833335,4.77064415323548,None,1189.6731810999918,None,1189.6731810999918,None,,,,,,,,,1,2022_Mar_29_1240,SAR-soap,2021.1.2,60.0307664912876,
60,Trial # 56,Group1-stimuli/group1-block1/real-group1-b1/Group1_IMG_0314.jpg,1,Group1_IMG_0314.jpg,,,,,0.0,55.0,55.0,55.0,,,,,,,,,,,,,,,,,,,,,,,,,,,,,,,,,,,,,1194.6741057870097,None,1194.6741057870097,None,1194.6741057870097,None,2.0,1.86192849901272,1194.6741057870097,None,1194.6741057870097,None,2.0,4.317285531957168,1196.0750600839965,None,1194.6741057870097,None,2.0,5.9565778889809735,1197.4084628790151,None,1194.6741057870097,None,space,0.1814990459824912,5.981395914161112,None,1194.6741057870097,None,1194.6741057870097,None,,,,,,,,,1,2022_Mar_29_1240,SAR-soap,2021.1.2,60.0307664912876,
61,Trial # 57,Group1-stimuli/group1-block1/fake-group2-b1/encoded_Group2_IMG_0532.jpg,0,encoded_Group2_IMG_0532.jpg,,,,,0.0,56.0,56.0,56.0,,,,,,,,,,,,,,,,,,,,,,,,,,,,,,,,,,,,,1200.8596604830236,None,1200.8596604830236,None,1200.8596604830236,None,5.0,1.7636521400418133,1200.8596604830236,None,1200.8596604830236,None,3.0,2.785451236006338,1202.1768236220232,None,1200.8596604830236,None,3.0,4.72626482299529,1203.210736731009,None,1200.8596604830236,None,space,0.5729331969632767,4.754459289193619,None,1200.8596604830236,None,1200.8596604830236,None,,,,,,,,,1,2022_Mar_29_1240,SAR-soap,2021.1.2,60.0307664912876,
62,Trial # 58,Group1-stimuli/group1-block1/fake-group2-b1/encoded_Group2_IMG_0462.jpg,0,encoded_Group2_IMG_0462.jpg,,,,,0.0,57.0,57.0,57.0,,,,,,,,,,,,,,,,,,,,,,,,,,,,,,,,,,,,,1206.2283895270084,None,1206.2283895270084,None,1206.2283895270084,None,7.0,1.863285959989298,1206.2283895270084,None,1206.2283895270084,None,5.0,2.5517178360023536,1207.6454578799894,None,1206.2283895270084,None,3.0,3.5890095249633305,1208.3451940849773,None,1206.2283895270084,None,space,0.7310854730312712,3.6184907501447015,None,1206.2283895270084,None,1206.2283895270084,None,,,,,,,,,1,2022_Mar_29_1240,SAR-soap,2021.1.2,60.0307664912876,
63,Trial # 59,Group1-stimuli/group1-block1/real-group1-b1/Group1_IMG_0172.jpg,1,Group1_IMG_0172.jpg,,,,,0.0,58.0,58.0,58.0,,,,,,,,,,,,,,,,,,,,,,,,,,,,,,,,,,,,,1210.613027861982,None,1210.613027861982,None,1210.613027861982,None,3.0,1.8660291929845696,1210.613027861982,None,1210.613027861982,None,2.0,2.7209671909804456,1212.0309434770024,None,1210.613027861982,None,2.0,5.094510875002015,1212.8965690530022,None,1210.613027861982,None,space,0.0775307029834948,5.1236131098121405,None,1210.613027861982,None,1210.613027861982,None,,,,,,,,,1,2022_Mar_29_1240,SAR-soap,2021.1.2,60.0307664912876,
64,Trial # 60,Group1-stimuli/group1-block1/real-group1-b1/Group1_IMG_4841.jpg,1,Group1_IMG_4841.jpg,,,,,0.0,59.0,59.0,59.0,,,,,,,,,,,,,,,,,,,,,,,,,,,,,,,,,,,,,1215.8648302180227,None,1215.8648302180227,None,1215.8648302180227,None,7.0,2.1514895720174536,1215.8648302180227,None,1215.8648302180227,None,6.0,4.12407791998703,1217.1480028509975,None,1215.8648302180227,None,5.0,5.764220617013052,1217.9814200400142,None,1215.8648302180227,None,space,0.134160089015495,5.796819349750876,None,1215.8648302180227,None,1215.8648302180227,None,,,,,,,,,1,2022_Mar_29_1240,SAR-soap,2021.1.2,60.0307664912876,
65,Trial # 61,Group1-stimuli/group1-block1/fake-group2-b1/encoded_Group2_IMG_0352.jpg,0,encoded_Group2_IMG_0352.jpg,,,,,0.0,60.0,60.0,60.0,,,,,,,,,,,,,,,,,,,,,,,,,,,,,,,,,,,,,1221.8326415899792,None,1221.8326415899792,None,1221.8326415899792,None,2.0,1.6461265370016918,1221.8326415899792,None,1221.8326415899792,None,3.0,2.5361259509809315,1223.0333741920183,None,1221.8326415899792,None,2.0,3.1753232529736124,1223.9332214280148,None,1221.8326415899792,None,space,31.91918807901675,3.2037077672430314,None,1221.8326415899792,None,1221.8326415899792,None,,,,,,,,,1,2022_Mar_29_1240,SAR-soap,2021.1.2,60.0307664912876,
66,Trial # 62,Group1-stimuli/group1-block1/fake-group2-b1/encoded_Group2_IMG_9726.jpg,0,encoded_Group2_IMG_9726.jpg,,,,,0.0,61.0,61.0,61.0,,,,,,,,,,,,,,,,,,,,,,,,,,,,,,,,,,,,,1256.993826137972,None,1256.993826137972,None,1256.993826137972,None,6.0,2.063113065029029,1256.993826137972,None,1256.993826137972,None,6.0,3.3189488429925404,1258.611591157969,None,1256.993826137972,None,2.0,7.359330978011712,1259.8775578180212,None,1256.993826137972,None,space,2.725856264005415,6.586417603248265,None,1256.993826137972,None,1256.993826137972,None,,,,,,,,,1,2022_Mar_29_1240,SAR-soap,2021.1.2,60.0307664912876,
67,Trial # 63,Group1-stimuli/group1-block1/fake-group2-b1/encoded_Group2_IMG_9785.jpg,0,encoded_Group2_IMG_9785.jpg,,,,,0.0,62.0,62.0,62.0,,,,,,,,,,,,,,,,,,,,,,,,,,,,,,,,,,,,,1266.3300087730167,None,1266.3300087730167,None,1266.3300087730167,None,6.0,1.945970946981106,1266.3300087730167,None,1266.3300087730167,None,5.0,2.969244288979098,1267.8305159499869,None,1266.3300087730167,None,2.0,4.74257945897989,1268.8638686990016,None,1266.3300087730167,None,space,0.8883843829971738,4.303743434196804,None,1266.3300087730167,None,1266.3300087730167,None,,,,,,,,,1,2022_Mar_29_1240,SAR-soap,2021.1.2,60.0307664912876,
68,Trial # 64,Group1-stimuli/group1-block1/fake-group2-b1/encoded_Group2_IMG_0440.jpg,0,encoded_Group2_IMG_0440.jpg,,,,,0.0,63.0,63.0,63.0,,,,,,,,,,,,,,,,,,,,,,,,,,,,,,,,,,,,,1271.5645675130072,None,1271.5645675130072,None,1271.5645675130072,None,6.0,3.653383493016008,1271.5645675130072,None,1271.5645675130072,None,4.0,6.743434450007044,1274.765819613007,None,1271.5645675130072,None,2.0,9.250754245033022,1276.3002838559914,None,1271.5645675130072,None,space,1.92714534397237,7.683129514800385,None,1271.5645675130072,None,1271.5645675130072,None,,,,,,,,,1,2022_Mar_29_1240,SAR-soap,2021.1.2,60.0307664912876,
69,Trial # 65,Group1-stimuli/group1-block1/fake-group2-b1/encoded_Group2_IMG_1695.jpg,0,encoded_Group2_IMG_1695.jpg,,,,,0.0,64.0,64.0,64.0,,,,,,,,,,,,,,,,,,,,,,,,,,,,,,,,,,,,,1281.1845789590152,None,1281.1845789590152,None,1281.1845789590152,None,3.0,68.40084147203015,1281.1845789590152,None,1281.1845789590152,None,2.0,44.99993444496067,1282.5013416819857,None,1281.1845789590152,None,2.0,71.04706073901616,1325.7482792820083,None,1281.1845789590152,None,space,0.6954013220383786,71.07498706510523,None,1281.1845789590152,None,1281.1845789590152,None,,,,,,,,,1,2022_Mar_29_1240,SAR-soap,2021.1.2,60.0307664912876,
70,Trial # 66,Group1-stimuli/group1-block1/real-group1-b1/Group1_IMG_0552.jpg,1,Group1_IMG_0552.jpg,,,,,0.0,65.0,65.0,65.0,,,,,,,,,,,,,,,,,,,,,,,,,,,,,,,,,,,,,1352.9906534689944,None,1352.9906534689944,None,1352.9906534689944,None,4.0,3.267810070014093,1352.9906534689944,None,1352.9906534689944,None,1.0,9.757534850970842,1355.8088374600047,None,1352.9906534689944,None,2.0,11.495671627984848,1362.3094947430072,None,1352.9906534689944,None,space,0.4985751360072754,11.527876041829586,None,1352.9906534689944,None,1352.9906534689944,None,,,,,,,,,1,2022_Mar_29_1240,SAR-soap,2021.1.2,60.0307664912876,
71,Trial # 67,Group1-stimuli/group1-block1/real-group1-b1/Group1_IMG_1029.jpg,1,Group1_IMG_1029.jpg,,,,,0.0,66.0,66.0,66.0,,,,,,,,,,,,,,,,,,,,,,,,,,,,,,,,,,,,,1365.060440953006,None,1365.060440953006,None,1365.060440953006,None,5.0,3.16394425596809,1365.060440953006,None,1365.060440953006,None,4.0,7.287272393004969,1367.7780218509724,None,1365.060440953006,None,2.0,8.059892388002481,1369.9783570499858,None,1365.060440953006,None,space,0.3904648610041477,8.088046994351316,None,1365.060440953006,None,1365.060440953006,None,,,,,,,,,1,2022_Mar_29_1240,SAR-soap,2021.1.2,60.0307664912876,
72,Trial # 68,Group1-stimuli/group1-block1/fake-group2-b1/encoded_Group2_IMG_6517.jpg,0,encoded_Group2_IMG_6517.jpg,,,,,0.0,67.0,67.0,67.0,,,,,,,,,,,,,,,,,,,,,,,,,,,,,,,,,,,,,1373.563332142017,None,1373.563332142017,None,1373.563332142017,None,5.0,6.747279003029689,1373.563332142017,None,1373.563332142017,None,3.0,16.90642390702851,1379.865055088012,None,1373.563332142017,None,3.0,27.38279240799602,1390.035856783972,None,1373.563332142017,None,space,11.820254307996947,27.411222761205863,None,1373.563332142017,None,1373.563332142017,None,,,,,,,,,1,2022_Mar_29_1240,SAR-soap,2021.1.2,60.0307664912876,
73,Trial # 69,Group1-stimuli/group1-block1/fake-group2-b1/encoded_Group2_IMG_0002.jpg,0,encoded_Group2_IMG_0002.jpg,,,,,0.0,68.0,68.0,68.0,,,,,,,,,,,,,,,,,,,,,,,,,,,,,,,,,,,,,1412.82515065599,None,1412.82515065599,None,1412.82515065599,None,5.0,2.5790510619990528,1412.82515065599,None,1412.82515065599,None,4.0,14.27304587099934,1414.9592857009848,None,1412.82515065599,None,3.0,11.009119851980358,1418.293175321014,None,1412.82515065599,None,space,7.253863441990688,7.20197804516647,None,1412.82515065599,None,1412.82515065599,None,,,,,,,,,1,2022_Mar_29_1240,SAR-soap,2021.1.2,60.0307664912876,
74,Trial # 70,Group1-stimuli/group1-block1/real-group1-b1/Group1_IMG_0495.jpg,1,Group1_IMG_0495.jpg,,,,,0.0,69.0,69.0,69.0,,,,,,,,,,,,,,,,,,,,,,,,,,,,,,,,,,,,,1427.3301808999968,None,1427.3301808999968,None,1427.3301808999968,None,1.0,1.9621280760038644,1427.3301808999968,None,1427.3301808999968,None,1.0,2.7168377509806305,1428.8469151009922,None,1427.3301808999968,None,2.0,3.4565941120381467,1429.6134399190196,None,1427.3301808999968,None,space,0.29039867996471,3.4847917888546363,None,1427.3301808999968,None,1427.3301808999968,None,,,,,,,,,1,2022_Mar_29_1240,SAR-soap,2021.1.2,60.0307664912876,
75,Trial # 71,Group1-stimuli/group1-block1/real-group1-b1/Group1_IMG_1391.jpg,1,Group1_IMG_1391.jpg,,,,,0.0,70.0,70.0,70.0,,,,,,,,,,,,,,,,,,,,,,,,,,,,,,,,,,,,,1431.147971605009,None,1431.147971605009,None,1431.147971605009,None,7.0,2.346687851008028,1431.147971605009,None,1431.147971605009,None,3.0,8.436726329033263,1433.047992983018,None,1431.147971605009,None,3.0,9.143583830969874,1434.18145427102,None,1431.147971605009,None,space,5.12519617198268,5.137303257826716,None,1431.147971605009,None,1431.147971605009,None,,,,,,,,,1,2022_Mar_29_1240,SAR-soap,2021.1.2,60.0307664912876,
76,Trial # 72,Group1-stimuli/group1-block1/real-group1-b1/Group1_IMG_0343.jpg,1,Group1_IMG_0343.jpg,,,,,0.0,71.0,71.0,71.0,,,,,,,,,,,,,,,,,,,,,,,,,,,,,,,,,,,,,1441.4510270649916,None,1441.4510270649916,None,1441.4510270649916,None,4.0,2.285589724022429,1441.4510270649916,None,1441.4510270649916,None,2.0,3.6230119219981134,1442.7013338209945,None,1441.4510270649916,None,1.0,4.696765989996493,1444.6346805529902,None,1441.4510270649916,None,space,0.1268379290122538,4.72853467380628,None,1441.4510270649916,None,1441.4510270649916,None,,,,,,,,,1,2022_Mar_29_1240,SAR-soap,2021.1.2,60.0307664912876,
77,Trial # 73,Group1-stimuli/group1-block1/fake-group2-b1/encoded_Group2_IMG_9810.jpg,0,encoded_Group2_IMG_9810.jpg,,,,,0.0,72.0,72.0,72.0,,,,,,,,,,,,,,,,,,,,,,,,,,,,,,,,,,,,,1446.3352459309972,None,1446.3352459309972,None,1446.3352459309972,None,2.0,3.888492597965524,1446.3352459309972,None,1446.3352459309972,None,2.0,6.012023593997583,1449.7702056950077,None,1446.3352459309972,None,1.0,7.249954007973429,1451.9037125409814,None,1446.3352459309972,None,space,0.2284428590210154,7.271297823172063,None,1446.3352459309972,None,1446.3352459309972,None,,,,,,,,,1,2022_Mar_29_1240,SAR-soap,2021.1.2,60.0307664912876,
78,Trial # 74,Group1-stimuli/group1-block1/fake-group2-b1/encoded_Group2_IMG_5900.jpg,0,encoded_Group2_IMG_5900.jpg,,,,,0.0,73.0,73.0,73.0,,,,,,,,,,,,,,,,,,,,,,,,,,,,,,,,,,,,,1453.887077921012,None,1453.887077921012,None,1453.887077921012,None,6.0,5.941216057981364,1453.887077921012,None,1453.887077921012,None,3.0,19.16793877002783,1459.372476575023,None,1453.887077921012,None,2.0,32.81125400500605,1472.609866690007,None,1453.887077921012,None,space,0.9812730189878494,32.83481035276782,None,1453.887077921012,None,1453.887077921012,None,,,,,,,,,1,2022_Mar_29_1240,SAR-soap,2021.1.2,60.0307664912876,
79,Trial # 75,Group1-stimuli/group1-block1/real-group1-b1/Group1_IMG_9679.jpg,1,Group1_IMG_9679.jpg,,,,,0.0,74.0,74.0,74.0,,,,,,,,,,,,,,,,,,,,,,,,,,,,,,,,,,,,,1487.7650248659777,None,1487.7650248659777,None,1487.7650248659777,None,1.0,1.9771734940004533,1487.7650248659777,None,1487.7650248659777,None,1.0,2.5994385509984568,1489.282743491989,None,1487.7650248659777,None,1.0,3.639684124034829,1489.914926162979,None,1487.7650248659777,None,space,0.4646388920373283,3.6652457148884414,None,1487.7650248659777,None,1487.7650248659777,None,,,,,,,,,1,2022_Mar_29_1240,SAR-soap,2021.1.2,60.0307664912876,
80,Trial # 76,Group1-stimuli/group1-block1/fake-group2-b1/encoded_Group2_IMG_4249.jpg,0,encoded_Group2_IMG_4249.jpg,,,,,0.0,75.0,75.0,75.0,,,,,,,,,,,,,,,,,,,,,,,,,,,,,,,,,,,,,1491.9000830620062,None,1491.9000830620062,None,1491.9000830620062,None,7.0,2.062292771995999,1491.9000830620062,None,1491.9000830620062,None,6.0,3.1518572519999,1493.517020436993,None,1491.9000830620062,None,3.0,4.891660545021296,1494.616630250006,None,1491.9000830620062,None,space,0.1818223299924284,4.920567532186396,None,1491.9000830620062,None,1491.9000830620062,None,,,,,,,,,1,2022_Mar_29_1240,SAR-soap,2021.1.2,60.0307664912876,
81,Trial # 77,Group1-stimuli/group1-block1/fake-group2-b1/encoded_Group2_IMG_0174.jpg,0,encoded_Group2_IMG_0174.jpg,,,,,0.0,76.0,76.0,76.0,,,,,,,,,,,,,,,,,,,,,,,,,,,,,,,,,,,,,1497.0345808939892,None,1497.0345808939892,None,1497.0345808939892,None,5.0,4.964336064003874,1497.0345808939892,None,1497.0345808939892,None,3.0,5.686117647041101,1501.553908143018,None,1497.0345808939892,None,2.0,7.124328232021071,1502.286480535986,None,1497.0345808939892,None,space,0.4061679469887167,7.153076060174499,None,1497.0345808939892,None,1497.0345808939892,None,,,,,,,,,1,2022_Mar_29_1240,SAR-soap,2021.1.2,60.0307664912876,
82,Trial # 78,Group1-stimuli/group1-block1/fake-group2-b1/encoded_Group2_IMG_0475.jpg,0,encoded_Group2_IMG_0475.jpg,,,,,0.0,77.0,77.0,77.0,,,,,,,,,,,,,,,,,,,,,,,,,,,,,,,,,,,,,1504.636803766014,None,1504.636803766014,None,1504.636803766014,None,3.0,2.181586635997519,1504.636803766014,None,1504.636803766014,None,2.0,3.3380973549792543,1506.3721256220017,None,1504.636803766014,None,1.0,4.343541137990542,1507.1052603030112,None,1504.636803766014,None,space,0.7562652879860252,4.372335008170921,None,1504.636803766014,None,1504.636803766014,None,,,,,,,,,1,2022_Mar_29_1240,SAR-soap,2021.1.2,60.0307664912876,
83,Trial # 79,Group1-stimuli/group1-block1/fake-group2-b1/encoded_Group2_IMG_9751.jpg,0,encoded_Group2_IMG_9751.jpg,,,,,0.0,78.0,78.0,78.0,,,,,,,,,,,,,,,,,,,,,,,,,,,,,,,,,,,,,1509.7883767689927,None,1509.7883767689927,None,1509.7883767689927,None,7.0,1.897094992978964,1509.7883767689927,None,1509.7883767689927,None,5.0,3.0536056730197743,1511.239102202002,None,1509.7883767689927,None,3.0,3.825072198000271,1512.0060232270043,None,1509.7883767689927,None,space,0.2414812020142562,3.85322255716892,None,1509.7883767689927,None,1509.7883767689927,None,,,,,,,,,1,2022_Mar_29_1240,SAR-soap,2021.1.2,60.0307664912876,
84,Trial # 80,Group1-stimuli/group1-block1/fake-group2-b1/encoded_Group2_IMG_0492.jpg,0,encoded_Group2_IMG_0492.jpg,,,,,0.0,79.0,79.0,79.0,,,,,,,,,,,,,,,,,,,,,,,,,,,,,,,,,,,,,1513.9397237030207,None,1513.9397237030207,None,1513.9397237030207,None,2.0,1.7386745660332965,1513.9397237030207,None,1513.9397237030207,None,3.0,2.49483010097174,1515.2236342530232,None,1513.9397237030207,None,2.0,3.300291471008677,1515.9904834370243,None,1513.9397237030207,None,space,0.2064625329803675,3.32067256513983,None,1513.9397237030207,None,1513.9397237030207,None,,,,,,,,,1,2022_Mar_29_1240,SAR-soap,2021.1.2,60.0307664912876,
85,Trial # 81,Group1-stimuli/group1-block1/real-group1-b1/Group1_IMG_0535.jpg,1,Group1_IMG_0535.jpg,,,,,0.0,80.0,80.0,80.0,,,,,,,,,,,,,,,,,,,,,,,,,,,,,,,,,,,,,1517.5236993560102,None,1517.5236993560102,None,1517.5236993560102,None,5.0,2.017711444001179,1517.5236993560102,None,1517.5236993560102,None,2.0,2.70689366501756,1519.0911467499682,None,1517.5236993560102,None,2.0,5.314373366010841,1519.7908424150082,None,1517.5236993560102,None,space,0.1888874939759262,5.3467084528529085,None,1517.5236993560102,None,1517.5236993560102,None,,,,,,,,,1,2022_Mar_29_1240,SAR-soap,2021.1.2,60.0307664912876,
86,Trial # 82,Group1-stimuli/group1-block1/real-group1-b1/Group1_IMG_0077.jpg,1,Group1_IMG_0077.jpg,,,,,0.0,81.0,81.0,81.0,,,,,,,,,,,,,,,,,,,,,,,,,,,,,,,,,,,,,1523.109184483008,None,1523.109184483008,None,1523.109184483008,None,7.0,1.5561260299873538,1523.109184483008,None,1523.109184483008,None,6.0,2.044144582003355,1524.209242530982,None,1523.109184483008,None,2.0,3.3168077780283056,1524.7090153750032,None,1523.109184483008,None,space,0.5330991669907235,2.9391491397982463,None,1523.109184483008,None,1523.109184483008,None,,,,,,,,,1,2022_Mar_29_1240,SAR-soap,2021.1.2,60.0307664912876,
87,Trial # 83,Group1-stimuli/group1-block1/fake-group2-b1/encoded_Group2_IMG_9702.jpg,0,encoded_Group2_IMG_9702.jpg,,,,,0.0,82.0,82.0,82.0,,,,,,,,,,,,,,,,,,,,,,,,,,,,,,,,,,,,,1526.5936758359894,None,1526.5936758359894,None,1526.5936758359894,None,5.0,1.6458514249534346,1526.5936758359894,None,1526.5936758359894,None,3.0,10.786472858977504,1527.79393922101,None,1526.5936758359894,None,2.0,12.192725116969086,1536.9466509699705,None,1526.5936758359894,None,space,0.1710329040070064,12.220637952152174,None,1526.5936758359894,None,1526.5936758359894,None,,,,,,,,,1,2022_Mar_29_1240,SAR-soap,2021.1.2,60.0307664912876,
88,Trial # 84,Group1-stimuli/group1-block1/real-group1-b1/Group1_IMG_0357.jpg,1,Group1_IMG_0357.jpg,,,,,0.0,83.0,83.0,83.0,,,,,,,,,,,,,,,,,,,,,,,,,,,,,,,,,,,,,1539.064167011005,None,1539.064167011005,None,1539.064167011005,None,3.0,5.375206611992326,1539.064167011005,None,1539.064167011005,None,1.0,6.147417461033911,1540.5660095029743,None,1539.064167011005,None,1.0,6.85229358903598,1544.7652833579923,None,1539.064167011005,None,space,0.115499090985395,6.874614295782521,None,1539.064167011005,None,1539.064167011005,None,,,,,,,,,1,2022_Mar_29_1240,SAR-soap,2021.1.2,60.0307664912876,
89,Trial # 85,Group1-stimuli/group1-block1/real-group1-b1/Group1_IMG_9772.jpg,1,Group1_IMG_9772.jpg,,,,,0.0,84.0,84.0,84.0,,,,,,,,,,,,,,,,,,,,,,,,,,,,,,,,,,,,,1546.0999769250047,None,1546.0999769250047,None,1546.0999769250047,None,7.0,1.4604307750123553,1546.0999769250047,None,1546.0999769250047,None,6.0,2.115262745006476,1547.101091981982,None,1546.0999769250047,None,5.0,4.454637439979706,1547.766652801016,None,1546.0999769250047,None,space,1.3592998970416377,3.3465458521968685,None,1546.0999769250047,None,1546.0999769250047,None,,,,,,,,,1,2022_Mar_29_1240,SAR-soap,2021.1.2,60.0307664912876,
90,Trial # 86,Group1-stimuli/group1-block1/real-group1-b1/Group1_IMG_0482.jpg,1,Group1_IMG_0482.jpg,,,,,0.0,85.0,85.0,85.0,,,,,,,,,,,,,,,,,,,,,,,,,,,,,,,,,,,,,1550.8352006979983,None,1550.8352006979983,None,1550.8352006979983,None,2.0,2.4189532329910435,1550.8352006979983,None,1550.8352006979983,None,2.0,3.559712862013839,1552.352449133003,None,1550.8352006979983,None,1.0,4.096493872988503,1553.9513926520012,None,1550.8352006979983,None,space,0.1844654700253158,4.131576707819477,None,1550.8352006979983,None,1550.8352006979983,None,,,,,,,,,1,2022_Mar_29_1240,SAR-soap,2021.1.2,60.0307664912876,
91,Trial # 87,Group1-stimuli/group1-block1/real-group1-b1/Group1_IMG_0299.jpg,1,Group1_IMG_0299.jpg,,,,,0.0,86.0,86.0,86.0,,,,,,,,,,,,,,,,,,,,,,,,,,,,,,,,,,,,,1555.1859342089738,None,1555.1859342089738,None,1555.1859342089738,None,7.0,1.3450936489971357,1555.1859342089738,None,1555.1859342089738,None,6.0,2.0683636750327423,1556.0865238350234,None,1555.1859342089738,None,2.0,2.90492436097702,1556.8203558630194,None,1555.1859342089738,None,space,0.168801213032566,2.931803280778695,None,1555.1859342089738,None,1555.1859342089738,None,,,,,,,,,1,2022_Mar_29_1240,SAR-soap,2021.1.2,60.0307664912876,
92,Trial # 88,Group1-stimuli/group1-block1/fake-group2-b1/encoded_Group2_IMG_0301.jpg,0,encoded_Group2_IMG_0301.jpg,,,,,0.0,87.0,87.0,87.0,,,,,,,,,,,,,,,,,,,,,,,,,,,,,,,,,,,,,1558.3368085990078,None,1558.3368085990078,None,1558.3368085990078,None,7.0,1.1801322909886949,1558.3368085990078,None,1558.3368085990078,None,6.0,1.668915754999034,1559.0702221909887,None,1558.3368085990078,None,5.0,4.942825237987563,1559.5701531770171,None,1558.3368085990078,None,space,2.273267426993698,2.936156000185292,None,1558.3368085990078,None,1558.3368085990078,None,,,,,,,,,1,2022_Mar_29_1240,SAR-soap,2021.1.2,60.0307664912876,
93,Trial # 89,Group1-stimuli/group1-block1/fake-group2-b1/encoded_Group2_IMG_5136.jpg,0,encoded_Group2_IMG_5136.jpg,,,,,0.0,88.0,88.0,88.0,,,,,,,,,,,,,,,,,,,,,,,,,,,,,,,,,,,,,1563.6046243099845,None,1563.6046243099845,None,1563.6046243099845,None,7.0,1.5344032080029135,1563.6046243099845,None,1563.6046243099845,None,6.0,3.3578772379551083,1564.6888634769712,None,1563.6046243099845,None,7.0,3.9625665589701375,1566.522998860979,None,1563.6046243099845,None,space,0.754077360033989,3.996712442836724,None,1563.6046243099845,None,1563.6046243099845,None,,,,,,,,,1,2022_Mar_29_1240,SAR-soap,2021.1.2,60.0307664912876,
94,Trial # 90,Group1-stimuli/group1-block1/real-group1-b1/Group1_IMG_0460.jpg,1,Group1_IMG_0460.jpg,,,,,0.0,89.0,89.0,89.0,,,,,,,,,,,,,,,,,,,,,,,,,,,,,,,,,,,,,1568.3893925349694,None,1568.3893925349694,None,1568.3893925349694,None,7.0,1.6446924320189282,1568.3893925349694,None,1568.3893925349694,None,4.0,3.569851938984357,1569.5903151389791,None,1568.3893925349694,None,2.0,4.23992439097492,1570.6916768120136,None,1568.3893925349694,None,space,0.3990351079846732,4.26774485380156,None,1568.3893925349694,None,1568.3893925349694,None,,,,,,,,,1,2022_Mar_29_1240,SAR-soap,2021.1.2,60.0307664912876,
95,Trial # 91,Group1-stimuli/group1-block1/fake-group2-b1/encoded_Group2_IMG_0068.jpg,0,encoded_Group2_IMG_0068.jpg,,,,,0.0,90.0,90.0,90.0,,,,,,,,,,,,,,,,,,,,,,,,,,,,,,,,,,,,,1573.075081720017,None,1573.075081720017,None,1573.075081720017,None,7.0,1.4798135819728486,1573.075081720017,None,1573.075081720017,None,7.0,2.035757820995059,1574.1079974910244,None,1573.075081720017,None,5.0,3.374437967024278,1574.6751431819866,None,1573.075081720017,None,space,0.1396507250028662,3.4038570861448534,None,1573.075081720017,None,1573.075081720017,None,,,,,,,,,1,2022_Mar_29_1240,SAR-soap,2021.1.2,60.0307664912876,
96,Trial # 92,Group1-stimuli/group1-block1/real-group1-b1/Group1_IMG_0337.jpg,1,Group1_IMG_0337.jpg,,,,,0.0,91.0,91.0,91.0,,,,,,,,,,,,,,,,,,,,,,,,,,,,,,,,,,,,,1576.6768364669988,None,1576.6768364669988,None,1576.6768364669988,None,3.0,122.82202881999548,1576.6768364669988,None,1576.6768364669988,None,2.0,106.35511980496813,1577.8430884800036,None,1576.6768364669988,None,2.0,125.2012562439777,1682.59156975901,None,1576.6768364669988,None,space,0.8038766460376792,124.50123179279036,None,1576.6768364669988,None,1576.6768364669988,None,,,,,,,,,1,2022_Mar_29_1240,SAR-soap,2021.1.2,60.0307664912876,
97,Trial # 93,Group1-stimuli/group1-block1/fake-group2-b1/encoded_Group2_IMG_0346.jpg,0,encoded_Group2_IMG_0346.jpg,,,,,0.0,92.0,92.0,92.0,,,,,,,,,,,,,,,,,,,,,,,,,,,,,,,,,,,,,1702.0318146329955,None,1702.0318146329955,None,1702.0318146329955,None,4.0,2.445382178993896,1702.0318146329955,None,1702.0318146329955,None,2.0,2.9338254149770364,1704.031554227986,None,1702.0318146329955,None,2.0,4.242756133025978,1704.5323464099783,None,1702.0318146329955,None,space,0.1493573680054396,4.267504705872852,None,1702.0318146329955,None,1702.0318146329955,None,,,,,,,,,1,2022_Mar_29_1240,SAR-soap,2021.1.2,60.0307664912876,
98,Trial # 94,Group1-stimuli/group1-block1/real-group1-b1/Group1_IMG_4253.jpg,1,Group1_IMG_4253.jpg,,,,,0.0,93.0,93.0,93.0,,,,,,,,,,,,,,,,,,,,,,,,,,,,,,,,,,,,,1706.5492411950254,None,1706.5492411950254,None,1706.5492411950254,None,7.0,1.55830854002852,1706.5492411950254,None,1706.5492411950254,None,6.0,2.047440742026083,1707.6497220780002,None,1706.5492411950254,None,5.0,2.9525633759913035,1708.1492357149837,None,1706.5492411950254,None,space,0.2834847880294546,2.9779729050351307,None,1706.5492411950254,None,1706.5492411950254,None,,,,,,,,,1,2022_Mar_29_1240,SAR-soap,2021.1.2,60.0307664912876,
99,Trial # 95,Group1-stimuli/group1-block1/fake-group2-b1/encoded_Group2_IMG_9280.jpg,0,encoded_Group2_IMG_9280.jpg,,,,,0.0,94.0,94.0,94.0,,,,,,,,,,,,,,,,,,,,,,,,,,,,,,,,,,,,,1709.8325843529892,None,1709.8325843529892,None,1709.8325843529892,None,6.0,83.62328524998156,1709.8325843529892,None,1709.8325843529892,None,6.0,88.51326995698037,1793.0089833069942,None,1709.8325843529892,None,4.0,89.5188949870062,1797.910598194983,None,1709.8325843529892,None,space,0.4063091169809922,89.54831042920705,None,1709.8325843529892,None,1709.8325843529892,None,,,,,,,,,1,2022_Mar_29_1240,SAR-soap,2021.1.2,60.0307664912876,
100,Trial # 96,Group1-stimuli/group1-block1/real-group1-b1/Group1_IMG_0417.jpg,1,Group1_IMG_0417.jpg,,,,,0.0,95.0,95.0,95.0,,,,,,,,,,,,,,,,,,,,,,,,,,,,,,,,,,,,,1799.8441893479903,None,1799.8441893479903,None,1799.8441893479903,None,6.0,2.333601617021486,1799.8441893479903,None,1799.8441893479903,None,3.0,12.32550313702086,1801.729246467992,None,1799.8441893479903,None,2.0,27.13547221303452,1804.528760318004,None,1799.8441893479903,None,space,0.7138849809998646,26.83307386172237,None,1799.8441893479903,None,1799.8441893479903,None,,,,,,,,,1,2022_Mar_29_1240,SAR-soap,2021.1.2,60.0307664912876,
101,Trial # 97,Group1-stimuli/group1-block1/fake-group2-b1/encoded_Group2_IMG_9695.jpg,0,encoded_Group2_IMG_9695.jpg,,,,,0.0,96.0,96.0,96.0,,,,,,,,,,,,,,,,,,,,,,,,,,,,,,,,,,,,,1827.4361777799784,None,1827.4361777799784,None,1827.4361777799784,None,3.0,2.1652463899808936,1827.4361777799784,None,1827.4361777799784,None,2.0,3.121634957962669,1829.154210162,None,1827.4361777799784,None,2.0,3.9609204650041647,1830.120496333984,None,1827.4361777799784,None,space,0.6430617910227738,3.990559555822984,None,1827.4361777799784,None,1827.4361777799784,None,,,,,,,,,1,2022_Mar_29_1240,SAR-soap,2021.1.2,60.0307664912876,
102,Trial # 98,Group1-stimuli/group1-block1/real-group1-b1/Group1_IMG_1160.jpg,1,Group1_IMG_1160.jpg,,,,,0.0,97.0,97.0,97.0,,,,,,,,,,,,,,,,,,,,,,,,,,,,,,,,,,,,,1832.1221065400168,None,1832.1221065400168,None,1832.1221065400168,None,7.0,1.747917621047236,1832.1221065400168,None,1832.1221065400168,None,6.0,2.2362342089763843,1833.4219211029704,None,1832.1221065400168,None,4.0,3.374935321044177,1833.9222634889884,None,1832.1221065400168,None,space,0.2149077319772914,3.4045095598557964,None,1832.1221065400168,None,1832.1221065400168,None,,,,,,,,,1,2022_Mar_29_1240,SAR-soap,2021.1.2,60.0307664912876,
103,Trial # 99,Group1-stimuli/group1-block1/real-group1-b1/Group1_IMG_0448.jpg,1,Group1_IMG_0448.jpg,,,,,0.0,98.0,98.0,98.0,,,,,,,,,,,,,,,,,,,,,,,,,,,,,,,,,,,,,1835.7899286290049,None,1835.7899286290049,None,1835.7899286290049,None,6.0,2.412394815008156,1835.7899286290049,None,1835.7899286290049,None,3.0,3.667170667031314,1837.7570652160207,None,1835.7899286290049,None,3.0,4.373129712999798,1839.0232670810076,None,1835.7899286290049,None,space,0.2263382470118813,4.400139960751403,None,1835.7899286290049,None,1835.7899286290049,None,,,,,,,,,1,2022_Mar_29_1240,SAR-soap,2021.1.2,60.0307664912876,
104,Trial # 100,Group1-stimuli/group1-block1/fake-group2-b1/encoded_Group2_IMG_0393.jpg,0,encoded_Group2_IMG_0393.jpg,,,,,0.0,99.0,99.0,99.0,,,,,,,,,,,,,,,,,,,,,,,,,,,,,,,,,,,,,1840.441293128999,None,1840.441293128999,None,1840.441293128999,None,7.0,2.164615807996597,1840.441293128999,None,1840.441293128999,None,5.0,5.186180998047348,1842.159216838016,None,1840.441293128999,None,2.0,6.025876845989842,1845.192589232989,None,1840.441293128999,None,space,0.1311305460403673,6.054859423195012,None,1840.441293128999,None,1840.441293128999,None,,,,,,,,,1,2022_Mar_29_1240,SAR-soap,2021.1.2,60.0307664912876,
105,Trial # 101,Group1-stimuli/group1-block1/real-group1-b1/Group1_IMG_0090.jpg,1,Group1_IMG_0090.jpg,,,,,0.0,100.0,100.0,100.0,,,,,,,,,,,,,,,,,,,,,,,,,,,,,,,,,,,,,1846.675867285987,None,1846.675867285987,None,1846.675867285987,None,2.0,1.8946488670189865,1846.675867285987,None,1846.675867285987,None,1.0,2.5172957250033505,1848.1095760419848,None,1846.675867285987,None,2.0,3.7885395609773695,1848.742991189996,None,1846.675867285987,None,space,2.979848329036031,3.815530815802049,None,1846.675867285987,None,1846.675867285987,None,,,,,,,,,1,2022_Mar_29_1240,SAR-soap,2021.1.2,60.0307664912876,
106,Trial # 102,Group1-stimuli/group1-block1/real-group1-b1/Group1_IMG_0310.jpg,1,Group1_IMG_0310.jpg,,,,,0.0,101.0,101.0,101.0,,,,,,,,,,,,,,,,,,,,,,,,,,,,,,,,,,,,,1853.577670335013,None,1853.577670335013,None,1853.577670335013,None,4.0,3.856786537973676,1853.577670335013,None,1853.577670335013,None,2.0,22.249833595007654,1856.9792736889797,None,1853.577670335013,None,2.0,5.249943485017866,1857.7791185259705,None,1853.577670335013,None,space,17.89058557798853,5.269586326554418,None,1853.577670335013,None,1853.577670335013,None,,,,,,,,,1,2022_Mar_29_1240,SAR-soap,2021.1.2,60.0307664912876,
107,Trial # 103,Group1-stimuli/group1-block1/fake-group2-b1/encoded_Group2_IMG_0528.jpg,0,encoded_Group2_IMG_0528.jpg,,,,,0.0,102.0,102.0,102.0,,,,,,,,,,,,,,,,,,,,,,,,,,,,,,,,,,,,,1876.7857153820223,None,1876.7857153820223,None,1876.7857153820223,None,6.0,1.777984544984065,1876.7857153820223,None,1876.7857153820223,None,3.0,4.2364543179865,1878.1191290880088,None,1876.7857153820223,None,2.0,5.172658491996117,1880.587403669022,None,1876.7857153820223,None,space,0.8135324929608032,5.200074813852552,None,1876.7857153820223,None,1876.7857153820223,None,,,,,,,,,1,2022_Mar_29_1240,SAR-soap,2021.1.2,60.0307664912876,
108,Trial # 104,Group1-stimuli/group1-block1/fake-group2-b1/encoded_Group2_IMG_1975.jpg,0,encoded_Group2_IMG_1975.jpg,,,,,0.0,103.0,103.0,103.0,,,,,,,,,,,,,,,,,,,,,,,,,,,,,,,,,,,,,1882.836532671994,None,1882.836532671994,None,1882.836532671994,None,3.0,2.24583894998068,1882.836532671994,None,1882.836532671994,None,3.0,2.834576070017647,1884.638044838968,None,1882.836532671994,None,2.0,3.5407582039479166,1885.238883678976,None,1882.836532671994,None,space,0.0988971040351316,3.5688999672420323,None,1882.836532671994,None,1882.836532671994,None,,,,,,,,,1,2022_Mar_29_1240,SAR-soap,2021.1.2,60.0307664912876,
109,Trial # 105,Group1-stimuli/group1-block1/fake-group2-b1/encoded_Group2_IMG_0052.jpg,0,encoded_Group2_IMG_0052.jpg,,,,,0.0,104.0,104.0,104.0,,,,,,,,,,,,,,,,,,,,,,,,,,,,,,,,,,,,,1886.5390618739768,None,1886.5390618739768,None,1886.5390618739768,None,2.0,4.361365372024011,1886.5390618739768,None,1886.5390618739768,None,1.0,5.599699841986876,1888.4889301430085,None,1886.5390618739768,None,1.0,7.638529127987567,1891.6904676429692,None,1886.5390618739768,None,space,0.8946467370260507,6.962580240156967,None,1886.5390618739768,None,1886.5390618739768,None,,,,,,,,,1,2022_Mar_29_1240,SAR-soap,2021.1.2,60.0307664912876,
110,Trial # 106,Group1-stimuli/group1-block1/fake-group2-b1/encoded_Group2_IMG_0225.jpg,0,encoded_Group2_IMG_0225.jpg,,,,,0.0,105.0,105.0,105.0,,,,,,,,,,,,,,,,,,,,,,,,,,,,,,,,,,,,,1894.42390701198,None,1894.42390701198,None,1894.42390701198,None,7.0,2.069840457988903,1894.42390701198,None,1894.42390701198,None,4.0,3.992237924016081,1896.0423206639823,None,1894.42390701198,None,3.0,5.96583067701431,1897.974984654982,None,1894.42390701198,None,space,0.1441831199917942,5.997535515867639,None,1894.42390701198,None,1894.42390701198,None,,,,,,,,,1,2022_Mar_29_1240,SAR-soap,2021.1.2,60.0307664912876,
111,Trial # 107,Group1-stimuli/group1-block1/real-group1-b1/Group1_IMG_2231.jpg,1,Group1_IMG_2231.jpg,,,,,0.0,106.0,106.0,106.0,,,,,,,,,,,,,,,,,,,,,,,,,,,,,,,,,,,,,1900.60917619901,None,1900.60917619901,None,1900.60917619901,None,7.0,1.7194617670029402,1900.60917619901,None,1900.60917619901,None,6.0,2.142343633051496,1901.876104969997,None,1900.60917619901,None,5.0,4.512232562003192,1902.3105577619865,None,1900.60917619901,None,space,0.4329778620158322,4.547274153796025,None,1900.60917619901,None,1900.60917619901,None,,,,,,,,,1,2022_Mar_29_1240,SAR-soap,2021.1.2,60.0307664912876,
112,Trial # 108,Group1-stimuli/group1-block1/real-group1-b1/Group1_IMG_0217.jpg,1,Group1_IMG_0217.jpg,,,,,0.0,107.0,107.0,107.0,,,,,,,,,,,,,,,,,,,,,,,,,,,,,,,,,,,,,1905.611422705988,None,1905.611422705988,None,1905.611422705988,None,7.0,3.2994802499888465,1905.611422705988,None,1905.611422705988,None,5.0,4.555057146004401,1908.4618698830016,None,1905.611422705988,None,4.0,6.295556478959043,1909.328047672985,None,1905.611422705988,None,space,0.2152485859696753,6.32602176675573,None,1905.611422705988,None,1905.611422705988,None,,,,,,,,,1,2022_Mar_29_1240,SAR-soap,2021.1.2,60.0307664912876,
113,Trial # 109,Group1-stimuli/group1-block1/real-group1-b1/Group1_IMG_0264.jpg,1,Group1_IMG_0264.jpg,,,,,0.0,108.0,108.0,108.0,,,,,,,,,,,,,,,,,,,,,,,,,,,,,,,,,,,,,1912.2128129689956,None,1912.2128129689956,None,1912.2128129689956,None,7.0,2.2239193840068765,1912.2128129689956,None,1912.2128129689956,None,7.0,2.4791942220181227,1913.980235185998,None,1912.2128129689956,None,6.0,3.718750211992301,1914.2464086890104,None,1912.2128129689956,None,space,0.1332866790471598,3.741058434825391,None,1912.2128129689956,None,1912.2128129689956,None,,,,,,,,,1,2022_Mar_29_1240,SAR-soap,2021.1.2,60.0307664912876,
114,Trial # 110,Group1-stimuli/group1-block1/fake-group2-b1/encoded_Group2_IMG_0254.jpg,0,encoded_Group2_IMG_0254.jpg,,,,,0.0,109.0,109.0,109.0,,,,,,,,,,,,,,,,,,,,,,,,,,,,,,,,,,,,,1916.1148320820064,None,1916.1148320820064,None,1916.1148320820064,None,5.0,2.7345510769519024,1916.1148320820064,None,1916.1148320820064,None,2.0,3.390402025950607,1918.398244776996,None,1916.1148320820064,None,2.0,4.59663222101517,1919.064558178012,None,1916.1148320820064,None,space,0.1956350600230507,4.630751681805123,None,1916.1148320820064,None,1916.1148320820064,None,,,,,,,,,1,2022_Mar_29_1240,SAR-soap,2021.1.2,60.0307664912876,
115,Trial # 111,Group1-stimuli/group1-block1/fake-group2-b1/encoded_Group2_IMG_5433.jpg,0,encoded_Group2_IMG_5433.jpg,,,,,0.0,110.0,110.0,110.0,,,,,,,,,,,,,,,,,,,,,,,,,,,,,,,,,,,,,1920.966149515996,None,1920.966149515996,None,1920.966149515996,None,2.0,1.5023962880368344,1920.966149515996,None,1920.966149515996,None,1.0,2.8919053340214305,1922.0156741699905,None,1920.966149515996,None,1.0,4.463175042998046,1923.4164789289932,None,1920.966149515996,None,space,0.2393087210366502,4.498301693820395,None,1920.966149515996,None,1920.966149515996,None,,,,,,,,,1,2022_Mar_29_1240,SAR-soap,2021.1.2,60.0307664912876,
116,Trial # 112,Group1-stimuli/group1-block1/real-group1-b1/Group1_IMG_0252.jpg,1,Group1_IMG_0252.jpg,,,,,0.0,111.0,111.0,111.0,,,,,,,,,,,,,,,,,,,,,,,,,,,,,,,,,,,,,1925.7502710709812,None,1925.7502710709812,None,1925.7502710709812,None,5.0,1.9783750709611925,1925.7502710709812,None,1925.7502710709812,None,4.0,4.400624771020375,1927.2851241520257,None,1925.7502710709812,None,2.0,5.741304207011126,1928.950971701997,None,1925.7502710709812,None,space,0.3290133959962986,5.768763315747492,None,1925.7502710709812,None,1925.7502710709812,None,,,,,,,,,1,2022_Mar_29_1240,SAR-soap,2021.1.2,60.0307664912876,
117,Trial # 113,Group1-stimuli/group1-block1/real-group1-b1/Group1_IMG_9720.jpg,1,Group1_IMG_9720.jpg,,,,,0.0,112.0,112.0,112.0,,,,,,,,,,,,,,,,,,,,,,,,,,,,,,,,,,,,,1931.885119769024,None,1931.885119769024,None,1931.885119769024,None,6.0,6.710302178980783,1931.885119769024,None,1931.885119769024,None,6.0,2.347940084000584,1933.119126051024,None,1931.885119769024,None,3.0,7.821251733985264,1933.785884268,None,1931.885119769024,None,space,0.1596935199922882,7.845588599157054,None,1931.885119769024,None,1931.885119769024,None,,,,,,,,,1,2022_Mar_29_1240,SAR-soap,2021.1.2,60.0307664912876,
118,Trial # 114,Group1-stimuli/group1-block1/fake-group2-b1/encoded_Group2_IMG_0550.jpg,0,encoded_Group2_IMG_0550.jpg,,,,,0.0,113.0,113.0,113.0,,,,,,,,,,,,,,,,,,,,,,,,,,,,,,,,,,,,,1939.9202871620075,None,1939.9202871620075,None,1939.9202871620075,None,4.0,1.969583431025967,1939.9202871620075,None,1939.9202871620075,None,2.0,3.757362244999968,1941.438615883992,None,1939.9202871620075,None,2.0,4.630281982012093,1942.1059644190243,None,1939.9202871620075,None,space,0.1802139449864626,4.664714023761917,None,1939.9202871620075,None,1939.9202871620075,None,,,,,,,,,1,2022_Mar_29_1240,SAR-soap,2021.1.2,60.0307664912876,
119,Trial # 115,Group1-stimuli/group1-block1/real-group1-b1/Group1_IMG_9915.jpg,1,Group1_IMG_9915.jpg,,,,,0.0,114.0,114.0,114.0,,,,,,,,,,,,,,,,,,,,,,,,,,,,,,,,,,,,,1944.8061372130176,None,1944.8061372130176,None,1944.8061372130176,None,2.0,1.509263459010981,1944.8061372130176,None,1944.8061372130176,None,1.0,4.997712938988116,1945.857818847988,None,1944.8061372130176,None,1.0,5.769676905998495,1948.556855453004,None,1944.8061372130176,None,space,0.0019378540455363,5.7927235791576095,None,1944.8061372130176,None,1944.8061372130176,None,,,,,,,,,1,2022_Mar_29_1240,SAR-soap,2021.1.2,60.0307664912876,
120,Trial # 116,Group1-stimuli/group1-block1/real-group1-b1/Group1_IMG_9850.jpg,1,Group1_IMG_9850.jpg,,,,,0.0,115.0,115.0,115.0,,,,,,,,,,,,,,,,,,,,,,,,,,,,,,,,,,,,,1950.6585600459948,None,1950.6585600459948,None,1950.6585600459948,None,1.0,1.719743371999357,1950.6585600459948,None,1950.6585600459948,None,1.0,2.007426288968418,1951.92633623298,None,1950.6585600459948,None,3.0,4.046146414009854,1952.224840409006,None,1950.6585600459948,None,space,1.2704387650010176,3.179805284773465,None,1950.6585600459948,None,1950.6585600459948,None,,,,,,,,,1,2022_Mar_29_1240,SAR-soap,2021.1.2,60.0307664912876,
121,Trial # 117,Group1-stimuli/group1-block1/real-group1-b1/Group1_IMG_3579.jpg,1,Group1_IMG_3579.jpg,,,,,0.0,116.0,116.0,116.0,,,,,,,,,,,,,,,,,,,,,,,,,,,,,,,,,,,,,1955.1762290369952,None,1955.1762290369952,None,1955.1762290369952,None,5.0,3.5397915589855984,1955.1762290369952,None,1955.1762290369952,None,3.0,4.4615854160510935,1958.2605183260168,None,1955.1762290369952,None,3.0,5.867726667027455,1958.827591981972,None,1955.1762290369952,None,space,-0.8054746660054661,5.888882715778891,None,1955.1762290369952,None,1955.1762290369952,None,,,,,,,,,1,2022_Mar_29_1240,SAR-soap,2021.1.2,60.0307664912876,
122,Trial # 118,Group1-stimuli/group1-block1/fake-group2-b1/encoded_Group2_IMG_0377.jpg,0,encoded_Group2_IMG_0377.jpg,,,,,0.0,117.0,117.0,117.0,,,,,,,,,,,,,,,,,,,,,,,,,,,,,,,,,,,,,1961.0944919129836,None,1961.0944919129836,None,1961.0944919129836,None,3.0,2.4366228069993667,1961.0944919129836,None,1961.0944919129836,None,2.0,3.2079782930086367,1962.2616881760189,None,1961.0944919129836,None,2.0,4.579429686011281,1963.8617343169756,None,1961.0944919129836,None,space,-4.494439799978864,4.614492649794556,None,1961.0944919129836,None,1961.0944919129836,None,,,,,,,,,1,2022_Mar_29_1240,SAR-soap,2021.1.2,60.0307664912876,
123,Trial # 119,Group1-stimuli/group1-block1/real-group1-b1/Group1_IMG_0469.jpg,1,Group1_IMG_0469.jpg,,,,,0.0,118.0,118.0,118.0,,,,,,,,,,,,,,,,,,,,,,,,,,,,,,,,,,,,,1965.729977787996,None,1965.729977787996,None,1965.729977787996,None,1.0,1.734573644993361,1965.729977787996,None,1965.729977787996,None,1.0,2.522816854005214,1967.0137237849997,None,1965.729977787996,None,1.0,3.1956693420070224,1967.8128659109932,None,1965.729977787996,None,space,-3.146048243972473,3.226988094800617,None,1965.729977787996,None,1965.729977787996,None,,,,,,,,,1,2022_Mar_29_1240,SAR-soap,2021.1.2,60.0307664912876,
124,Trial # 120,Group1-stimuli/group1-block1/fake-group2-b1/encoded_Group2_IMG_0100.jpg,0,encoded_Group2_IMG_0100.jpg,,,,,0.0,119.0,119.0,119.0,,,,,,,,,,,,,,,,,,,,,,,,,,,,,,,,,,,,,1968.9796020520157,None,1968.9796020520157,None,1968.9796020520157,None,2.0,3.567030525999144,1968.9796020520157,None,1968.9796020520157,None,2.0,5.056680133973714,1972.0992214569703,None,1968.9796020520157,None,1.0,12.328960582963193,1973.5981746399773,None,1968.9796020520157,None,space,3.1210071239620447,9.424813252815513,None,1968.9796020520157,None,1968.9796020520157,None,,,,,,,,,1,2022_Mar_29_1240,SAR-soap,2021.1.2,60.0307664912876,
125,Trial # 121,Group1-stimuli/group1-block1/real-group1-b1/Group1_IMG_5359.jpg,1,Group1_IMG_5359.jpg,,,,,0.0,120.0,120.0,120.0,,,,,,,,,,,,,,,,,,,,,,,,,,,,,,,,,,,,,1981.5679684579957,None,1981.5679684579957,None,1981.5679684579957,None,6.0,2.149671279010363,1981.5679684579957,None,1981.5679684579957,None,2.0,5.390417240967508,1982.817965432012,None,1981.5679684579957,None,3.0,7.661220819980372,1985.553321090003,None,1981.5679684579957,None,space,1.5374035860295407,6.560144312854391,None,1981.5679684579957,None,1981.5679684579957,None,,,,,,,,,1,2022_Mar_29_1240,SAR-soap,2021.1.2,60.0307664912876,
126,Trial # 122,Group1-stimuli/group1-block1/fake-group2-b1/encoded_Group2_IMG_0304.jpg,0,encoded_Group2_IMG_0304.jpg,,,,,0.0,121.0,121.0,121.0,,,,,,,,,,,,,,,,,,,,,,,,,,,,,,,,,,,,,1989.7033360420028,None,1989.7033360420028,None,1989.7033360420028,None,6.0,2.3313235259847715,1989.7033360420028,None,1989.7033360420028,None,4.0,3.253010980959516,1991.5874151290045,None,1989.7033360420028,None,3.0,3.8923383119981736,1992.5209022809868,None,1989.7033360420028,None,space,0.2186448539723642,3.921102938125841,None,1989.7033360420028,None,1989.7033360420028,None,,,,,,,,,1,2022_Mar_29_1240,SAR-soap,2021.1.2,60.0307664912876,
127,Trial # 123,Group1-stimuli/group1-block1/real-group1-b1/Group1_IMG_0306.jpg,1,Group1_IMG_0306.jpg,,,,,0.0,122.0,122.0,122.0,,,,,,,,,,,,,,,,,,,,,,,,,,,,,,,,,,,,,1993.887940682005,None,1993.887940682005,None,1993.887940682005,None,6.0,124.75620106898714,1993.887940682005,None,1993.887940682005,None,5.0,128.2974094899837,2109.5402724909945,None,1993.887940682005,None,3.0,123.90018546098143,2112.7414389550104,None,1993.887940682005,None,space,6.774423131952062,122.73437588475645,None,1993.887940682005,None,1993.887940682005,None,,,,,,,,,1,2022_Mar_29_1240,SAR-soap,2021.1.2,60.0307664912876,
128,Trial # 124,Group1-stimuli/group1-block1/real-group1-b1/Group1_IMG_0224.jpg,1,Group1_IMG_0224.jpg,,,,,0.0,123.0,123.0,123.0,,,,,,,,,,,,,,,,,,,,,,,,,,,,,,,,,,,,,2123.461301631003,None,2123.461301631003,None,2123.461301631003,None,7.0,1.5754456129507162,2123.461301631003,None,2123.461301631003,None,4.0,2.2314738240092997,2124.579280422011,None,2123.461301631003,None,2.0,3.303937036951538,2125.244739577989,None,2123.461301631003,None,space,0.8607625029981136,3.329063401790336,None,2123.461301631003,None,2123.461301631003,None,,,,,,,,,1,2022_Mar_29_1240,SAR-soap,2021.1.2,60.0307664912876,
129,Trial # 125,Group1-stimuli/group1-block1/real-group1-b1/Group1_IMG_9889.jpg,1,Group1_IMG_9889.jpg,,,,,0.0,124.0,124.0,124.0,,,,,,,,,,,,,,,,,,,,,,,,,,,,,,,,,,,,,2127.6797247990035,None,2127.6797247990035,None,2127.6797247990035,None,2.0,1.865788867988158,2127.6797247990035,None,2127.6797247990035,None,2.0,2.9538614519988187,2129.097201629018,None,2127.6797247990035,None,2.0,4.960198902001139,2130.1964626549743,None,2127.6797247990035,None,space,0.1527269060024991,4.990251068840735,None,2127.6797247990035,None,2127.6797247990035,None,,,,,,,,,1,2022_Mar_29_1240,SAR-soap,2021.1.2,60.0307664912876,
130,Trial # 126,Group1-stimuli/group1-block1/real-group1-b1/Group1_IMG_0293.jpg,1,Group1_IMG_0293.jpg,,,,,0.0,125.0,125.0,125.0,,,,,,,,,,,,,,,,,,,,,,,,,,,,,,,,,,,,,2132.864951446012,None,2132.864951446012,None,2132.864951446012,None,1.0,1.5354937549564056,2132.864951446012,None,2132.864951446012,None,1.0,1.8571192139643244,2133.948693512997,None,2132.864951446012,None,1.0,2.2623448229860514,2134.280631688016,None,2132.864951446012,None,space,0.172469686018303,2.296578466775827,None,2132.864951446012,None,2132.864951446012,None,,,,,,,,,1,2022_Mar_29_1240,SAR-soap,2021.1.2,60.0307664912876,
131,Trial # 127,Group1-stimuli/group1-block1/fake-group2-b1/encoded_Group2_IMG_0321.jpg,0,encoded_Group2_IMG_0321.jpg,,,,,0.0,126.0,126.0,126.0,,,,,,,,,,,,,,,,,,,,,,,,,,,,,,,,,,,,,2135.36557712598,None,2135.36557712598,None,2135.36557712598,None,4.0,7.704900185985025,2135.36557712598,None,2135.36557712598,None,3.0,11.57999167504022,2141.917122031969,None,2135.36557712598,None,2.0,12.41642231401056,2144.0174697589828,None,2135.36557712598,None,space,0.629301298991777,12.453043318761049,None,2135.36557712598,None,2135.36557712598,None,,,,,,,,,1,2022_Mar_29_1240,SAR-soap,2021.1.2,60.0307664912876,
132,Trial # 128,Group1-stimuli/group1-block1/fake-group2-b1/encoded_Group2_IMG_0400.jpg,0,encoded_Group2_IMG_0400.jpg,,,,,0.0,127.0,127.0,127.0,,,,,,,,,,,,,,,,,,,,,,,,,,,,,,,,,,,,,2148.48556685698,None,2148.48556685698,None,2148.48556685698,None,5.0,4.367357532959431,2148.48556685698,None,2148.48556685698,None,3.0,3.706283540988807,2150.8880727979704,None,2148.48556685698,None,2.0,5.645871881046332,2151.754124562023,None,2148.48556685698,None,space,1.6867756089777686,5.6772329157684,None,2148.48556685698,None,2148.48556685698,None,,,,,,,,,1,2022_Mar_29_1240,SAR-soap,2021.1.2,60.0307664912876,
133,Trial # 129,Group1-stimuli/group1-block1/fake-group2-b1/encoded_Group2_IMG_0443.jpg,0,encoded_Group2_IMG_0443.jpg,,,,,0.0,128.0,128.0,128.0,,,,,,,,,,,,,,,,,,,,,,,,,,,,,,,,,,,,,2155.8884787819698,None,2155.8884787819698,None,2155.8884787819698,None,7.0,2.61873992101755,2155.8884787819698,None,2155.8884787819698,None,6.0,3.0403317870222963,2158.055503263022,None,2155.8884787819698,None,5.0,4.279225099016912,2158.4887257040245,None,2155.8884787819698,None,space,1.9811957919737324,3.8799580837367103,None,2155.8884787819698,None,2155.8884787819698,None,,,,,,,,,1,2022_Mar_29_1240,SAR-soap,2021.1.2,60.0307664912876,
134,Trial # 130,Group1-stimuli/group1-block1/fake-group2-b1/encoded_Group2_IMG_0542.jpg,0,encoded_Group2_IMG_0542.jpg,,,,,0.0,129.0,129.0,129.0,,,,,,,,,,,,,,,,,,,,,,,,,,,,,,,,,,,,,2161.7735340570216,None,2161.7735340570216,None,2161.7735340570216,None,4.0,6.163278202002402,2161.7735340570216,None,2161.7735340570216,None,2.0,2.983685503946617,2163.5568170070183,None,2161.7735340570216,None,2.0,3.957059342996217,2164.324187788996,None,2161.7735340570216,None,space,2.347017740015872,3.983734378183726,None,2161.7735340570216,None,2161.7735340570216,None,,,,,,,,,1,2022_Mar_29_1240,SAR-soap,2021.1.2,60.0307664912876,
135,Trial # 131,Group1-stimuli/group1-block1/real-group1-b1/Group1_IMG_0885.jpg,1,Group1_IMG_0885.jpg,,,,,0.0,130.0,130.0,130.0,,,,,,,,,,,,,,,,,,,,,,,,,,,,,,,,,,,,,2168.1413465819787,None,2168.1413465819787,None,2168.1413465819787,None,7.0,1.8848007839987984,2168.1413465819787,None,2168.1413465819787,None,6.0,2.472857679997105,2169.575108848978,None,2168.1413465819787,None,6.0,3.214589237992186,2170.1749382179696,None,2168.1413465819787,None,space,1.543514946999494,3.246700820804108,None,2168.1413465819787,None,2168.1413465819787,None,,,,,,,,,1,2022_Mar_29_1240,SAR-soap,2021.1.2,60.0307664912876,
136,Trial # 132,Group1-stimuli/group1-block1/real-group1-b1/Group1_IMG_0375.jpg,1,Group1_IMG_0375.jpg,,,,,0.0,131.0,131.0,131.0,,,,,,,,,,,,,,,,,,,,,,,,,,,,,,,,,,,,,2172.977162825002,None,2172.977162825002,None,2172.977162825002,None,2.0,2.361358451016713,2172.977162825002,None,2172.977162825002,None,1.0,3.7837544860085472,2174.8773701229948,None,2172.977162825002,None,1.0,4.087967565981671,2175.811046553019,None,2172.977162825002,None,space,0.2421243140124716,4.114621297165286,None,2172.977162825002,None,2172.977162825002,None,,,,,,,,,1,2022_Mar_29_1240,SAR-soap,2021.1.2,60.0307664912876,
137,Trial # 133,Group1-stimuli/group1-block1/fake-group2-b1/encoded_Group2_IMG_7351.jpg,0,encoded_Group2_IMG_7351.jpg,,,,,0.0,132.0,132.0,132.0,,,,,,,,,,,,,,,,,,,,,,,,,,,,,,,,,,,,,2177.377644375025,None,2177.377644375025,None,2177.377644375025,None,5.0,2.4703219099901617,2177.377644375025,None,2177.377644375025,None,4.0,5.06062198797008,2179.395725041977,None,2177.377644375025,None,4.0,23.170519995037463,2180.628979691013,None,2177.377644375025,None,space,1.822427789971698,21.85675034520682,None,2177.377644375025,None,2177.377644375025,None,,,,,,,,,1,2022_Mar_29_1240,SAR-soap,2021.1.2,60.0307664912876,
138,Trial # 134,Group1-stimuli/group1-block1/fake-group2-b1/encoded_Group2_IMG_0416.jpg,0,encoded_Group2_IMG_0416.jpg,,,,,0.0,133.0,133.0,133.0,,,,,,,,,,,,,,,,,,,,,,,,,,,,,,,,,,,,,2201.1691887709894,None,2201.1691887709894,None,2201.1691887709894,None,7.0,1.8161985910264773,2201.1691887709894,None,2201.1691887709894,None,5.0,2.905540598963853,2202.535407412972,None,2201.1691887709894,None,3.0,5.711804609978572,2203.635836919013,None,2201.1691887709894,None,space,5.17668313003378,5.742967480269726,None,2201.1691887709894,None,2201.1691887709894,None,,,,,,,,,1,2022_Mar_29_1240,SAR-soap,2021.1.2,60.0307664912876,
139,Trial # 135,Group1-stimuli/group1-block1/fake-group2-b1/encoded_Group2_IMG_0139.jpg,0,encoded_Group2_IMG_0139.jpg,,,,,0.0,134.0,134.0,134.0,,,,,,,,,,,,,,,,,,,,,,,,,,,,,,,,,,,,,2212.15587321599,None,2212.15587321599,None,2212.15587321599,None,2.0,1.6431672060280107,2212.15587321599,None,2212.15587321599,None,2.0,2.8315381259890278,2213.3390618690173,None,2212.15587321599,None,1.0,5.671262715011835,2214.5392121199984,None,2212.15587321599,None,space,1.0404835189692676,5.696623599797022,None,2212.15587321599,None,2212.15587321599,None,,,,,,,,,1,2022_Mar_29_1240,SAR-soap,2021.1.2,60.0307664912876,
140,Trial # 136,Group1-stimuli/group1-block1/real-group1-b1/Group1_IMG_9677.jpg,1,Group1_IMG_9677.jpg,,,,,0.0,135.0,135.0,135.0,,,,,,,,,,,,,,,,,,,,,,,,,,,,,,,,,,,,,2218.941088143969,None,2218.941088143969,None,2218.941088143969,None,5.0,2.396713065041695,2218.941088143969,None,2218.941088143969,None,2.0,3.151228985982016,2220.8761716570007,None,2218.941088143969,None,2.0,4.490362464974169,2221.642090438981,None,2218.941088143969,None,space,4.712306872999761,3.850520719191991,None,2218.941088143969,None,2218.941088143969,None,,,,,,,,,1,2022_Mar_29_1240,SAR-soap,2021.1.2,60.0307664912876,
141,Trial # 137,Group1-stimuli/group1-block1/fake-group2-b1/encoded_Group2_IMG_5982.jpg,0,encoded_Group2_IMG_5982.jpg,,,,,0.0,136.0,136.0,136.0,,,,,,,,,,,,,,,,,,,,,,,,,,,,,,,,,,,,,2227.526361751021,None,2227.526361751021,None,2227.526361751021,None,4.0,26.35409762902418,2227.526361751021,None,2227.526361751021,None,2.0,28.110396148986183,2253.435176545987,None,2227.526361751021,None,2.0,29.682716465031262,2254.6352444330114,None,2227.526361751021,None,space,0.5481856460100971,29.712441483163275,None,2227.526361751021,None,2227.526361751021,None,,,,,,,,,1,2022_Mar_29_1240,SAR-soap,2021.1.2,60.0307664912876,
142,Trial # 138,Group1-stimuli/group1-block1/fake-group2-b1/encoded_Group2_IMG_1144.jpg,0,encoded_Group2_IMG_1144.jpg,,,,,0.0,137.0,137.0,137.0,,,,,,,,,,,,,,,,,,,,,,,,,,,,,,,,,,,,,2257.819127257972,None,2257.819127257972,None,2257.819127257972,None,7.0,1.7466053759562783,2257.819127257972,None,2257.819127257972,None,6.0,3.036076744960156,2259.120553822024,None,2257.819127257972,None,5.0,3.607637059991248,2260.420513195975,None,2257.819127257972,None,space,0.4497098060091957,3.636539844213985,None,2257.819127257972,None,2257.819127257972,None,,,,,,,,,1,2022_Mar_29_1240,SAR-soap,2021.1.2,60.0307664912876,
143,Trial # 139,Group1-stimuli/group1-block1/fake-group2-b1/encoded_Group2_IMG_0315.jpg,0,encoded_Group2_IMG_0315.jpg,,,,,0.0,138.0,138.0,138.0,,,,,,,,,,,,,,,,,,,,,,,,,,,,,,,,,,,,,2261.9368743259693,None,2261.9368743259693,None,2261.9368743259693,None,5.0,5.015453731000889,2261.9368743259693,None,2261.9368743259693,None,3.0,6.7525547739933245,2265.0548288039863,None,2261.9368743259693,None,2.0,7.759045829006936,2267.45679989201,None,2261.9368743259693,None,space,0.6142306950059719,7.786527432210278,None,2261.9368743259693,None,2261.9368743259693,None,,,,,,,,,1,2022_Mar_29_1240,SAR-soap,2021.1.2,60.0307664912876,
144,Trial # 140,Group1-stimuli/group1-block1/real-group1-b1/Group1_IMG_130.jpg,1,Group1_IMG_130.jpg,,,,,0.0,139.0,139.0,139.0,,,,,,,,,,,,,,,,,,,,,,,,,,,,,,,,,,,,,2270.3905035289936,None,2270.3905035289936,None,2270.3905035289936,None,7.0,1.5193666060222313,2270.3905035289936,None,2270.3905035289936,None,7.0,7.24375893198885,2271.458085738006,None,2270.3905035289936,None,5.0,5.214177994988859,2271.890573351993,None,2270.3905035289936,None,space,2.168725852970965,5.247497057833243,None,2270.3905035289936,None,2270.3905035289936,None,,,,,,,,,1,2022_Mar_29_1240,SAR-soap,2021.1.2,60.0307664912876,
145,Trial # 141,Group1-stimuli/group1-block1/real-group1-b1/Group1_IMG_0024.jpg,1,Group1_IMG_0024.jpg,,,,,0.0,140.0,140.0,140.0,,,,,,,,,,,,,,,,,,,,,,,,,,,,,,,,,,,,,2277.8261471849983,None,2277.8261471849983,None,2277.8261471849983,None,5.0,4.443890866998117,2277.8261471849983,None,2277.8261471849983,None,7.0,3.915735270013101,2280.394673398987,None,2277.8261471849983,None,5.0,7.187836346973199,2281.294269072998,None,2277.8261471849983,None,space,1.7414665920077823,7.211636640189681,None,2277.8261471849983,None,2277.8261471849983,None,,,,,,,,,1,2022_Mar_29_1240,SAR-soap,2021.1.2,60.0307664912876,
146,Trial # 142,Group1-stimuli/group1-block1/fake-group2-b1/encoded_Group2_IMG_5012.jpg,0,encoded_Group2_IMG_5012.jpg,,,,,0.0,141.0,141.0,141.0,,,,,,,,,,,,,,,,,,,,,,,,,,,,,,,,,,,,,2286.828795307025,None,2286.828795307025,None,2286.828795307025,None,5.0,4.90287576202536,2286.828795307025,None,2286.828795307025,None,3.0,6.307246059004683,2288.528848676011,None,2286.828795307025,None,3.0,7.045902324025519,2292.6975647989893,None,2286.828795307025,None,space,0.1431696070358157,7.078984915802721,None,2286.828795307025,None,2286.828795307025,None,,,,,,,,,1,2022_Mar_29_1240,SAR-soap,2021.1.2,60.0307664912876,
147,Trial # 143,Group1-stimuli/group1-block1/fake-group2-b1/encoded_Group2_IMG_0209.jpg,0,encoded_Group2_IMG_0209.jpg,,,,,0.0,142.0,142.0,142.0,,,,,,,,,,,,,,,,,,,,,,,,,,,,,,,,,,,,,2294.080643035006,None,2294.080643035006,None,2294.080643035006,None,3.0,3.9318855269812047,2294.080643035006,None,2294.080643035006,None,2.0,7.004967954999302,2295.3157479789807,None,2294.080643035006,None,2.0,7.677158901991788,2300.649998171022,None,2294.080643035006,None,space,0.1445612909737974,7.706610843189992,None,2294.080643035006,None,2294.080643035006,None,,,,,,,,,1,2022_Mar_29_1240,SAR-soap,2021.1.2,60.0307664912876,
148,Trial # 144,Group1-stimuli/group1-block1/real-group1-b1/Group1_IMG_0373.jpg,1,Group1_IMG_0373.jpg,,,,,0.0,143.0,143.0,143.0,,,,,,,,,,,,,,,,,,,,,,,,,,,,,,,,,,,,,2301.983792771003,None,2301.983792771003,None,2301.983792771003,None,4.0,63.86575069301762,2301.983792771003,None,2301.983792771003,None,2.0,54.53526185301598,2351.41502192599,None,2301.983792771003,None,2.0,56.27381196903298,2356.084392683988,None,2301.983792771003,None,space,7.780023850966245,56.30410366482101,None,2301.983792771003,None,2301.983792771003,None,,,,,,,,,1,2022_Mar_29_1240,SAR-soap,2021.1.2,60.0307664912876,
149,Trial # 145,Group1-stimuli/group1-block1/real-group1-b1/Group1_IMG_5899.jpg,1,Group1_IMG_5899.jpg,,,,,0.0,144.0,144.0,144.0,,,,,,,,,,,,,,,,,,,,,,,,,,,,,,,,,,,,,2366.1205472199945,None,2366.1205472199945,None,2366.1205472199945,None,4.0,1.2838692300138064,2366.1205472199945,None,2366.1205472199945,None,3.0,2.038702692021616,2366.954290374997,None,2366.1205472199945,None,4.0,10.581052950001322,2367.720764529018,None,2366.1205472199945,None,space,7.813968539005145,2.8774982097675093,None,2366.1205472199945,None,2366.1205472199945,None,,,,,,,,,1,2022_Mar_29_1240,SAR-soap,2021.1.2,60.0307664912876,
150,Trial # 146,Group1-stimuli/group1-block1/real-group1-b1/Group1_IMG_0162.jpg,1,Group1_IMG_0162.jpg,,,,,0.0,145.0,145.0,145.0,,,,,,,,,,,,,,,,,,,,,,,,,,,,,,,,,,,,,2376.856547844014,None,2376.856547844014,None,2376.856547844014,None,7.0,1.6654854289954528,2376.856547844014,None,2376.856547844014,None,6.0,2.15535005700076,2378.0734161959845,None,2376.856547844014,None,5.0,2.892849124968052,2378.573398343986,None,2376.856547844014,None,space,0.2911771319922991,2.9233479617978446,None,2376.856547844014,None,2376.856547844014,None,,,,,,,,,1,2022_Mar_29_1240,SAR-soap,2021.1.2,60.0307664912876,
151,Trial # 147,Group1-stimuli/group1-block1/real-group1-b1/Group1_IMG_0543.jpg,1,Group1_IMG_0543.jpg,,,,,0.0,146.0,146.0,146.0,,,,,,,,,,,,,,,,,,,,,,,,,,,,,,,,,,,,,2380.107416728977,None,2380.107416728977,None,2380.107416728977,None,4.0,2.236818307021167,2380.107416728977,None,2380.107416728977,None,2.0,2.8914557130192406,2381.891240507015,None,2380.107416728977,None,3.0,3.530426500015892,2382.557998230972,None,2380.107416728977,None,space,0.2385686690104194,3.5627316148020327,None,2380.107416728977,None,2380.107416728977,None,,,,,,,,,1,2022_Mar_29_1240,SAR-soap,2021.1.2,60.0307664912876,
152,Trial # 148,Group1-stimuli/group1-block1/fake-group2-b1/encoded_Group2_IMG_0355.jpg,0,encoded_Group2_IMG_0355.jpg,,,,,0.0,147.0,147.0,147.0,,,,,,,,,,,,,,,,,,,,,,,,,,,,,,,,,,,,,2383.9589434150257,None,2383.9589434150257,None,2383.9589434150257,None,5.0,2.1370209609740414,2383.9589434150257,None,2383.9589434150257,None,2.0,5.225262369029224,2385.6432850729907,None,2383.9589434150257,None,3.0,3.996611793001648,2386.3100953890244,None,2383.9589434150257,None,space,1.584510735992808,4.03165284980787,None,2383.9589434150257,None,2383.9589434150257,None,,,,,,,,,1,2022_Mar_29_1240,SAR-soap,2021.1.2,60.0307664912876,
153,Trial # 149,Group1-stimuli/group1-block1/real-group1-b1/Group1_IMG_9765.jpg,1,Group1_IMG_9765.jpg,,,,,0.0,148.0,148.0,148.0,,,,,,,,,,,,,,,,,,,,,,,,,,,,,,,,,,,,,2389.608999862976,None,2389.608999862976,None,2389.608999862976,None,7.0,2.063759315002244,2389.608999862976,None,2389.608999862976,None,7.0,2.452486358990427,2391.228295221983,None,2389.608999862976,None,5.0,4.590364135976415,2391.628369893995,None,2389.608999862976,None,space,0.3804238860029727,4.619488404830918,None,2389.608999862976,None,2389.608999862976,None,,,,,,,,,1,2022_Mar_29_1240,SAR-soap,2021.1.2,60.0307664912876,
154,Trial # 150,Group1-stimuli/group1-block1/fake-group2-b1/encoded_Group2_IMG_1378.jpg,0,encoded_Group2_IMG_1378.jpg,,,,,0.0,149.0,149.0,149.0,,,,,,,,,,,,,,,,,,,,,,,,,,,,,,,,,,,,,2394.678573047975,None,2394.678573047975,None,2394.678573047975,None,6.0,2.3775283580180258,2394.678573047975,None,2394.678573047975,None,7.0,3.084670177020598,2395.780096173985,None,2394.678573047975,None,4.0,5.520986739022192,2397.312995827,None,2394.678573047975,None,space,2.115790659969207,4.346233986783773,None,2394.678573047975,None,2394.678573047975,None,,,,,,,,,1,2022_Mar_29_1240,SAR-soap,2021.1.2,60.0307664912876,
155,Trial # 1,Group1-stimuli/group1-block2/fake-group2-b2/encoded_Group2_IMG_0155.jpg,0,encoded_Group2_IMG_0155.jpg,,,,,,,,,0.0,0.0,0.0,0.0,,,,,,,,,,,,,,,,,,,,,,,,,,,,,,,,,2439.525040709996,None,2439.525040709996,None,2439.525040709996,None,6.0,3.2501417819876224,2439.525040709996,None,2439.525040709996,None,6.0,23.011277140001766,2442.326656968973,None,2439.525040709996,None,4.0,11.680774311011191,2443.192843699013,None,2439.525040709996,None,space,14.568587208981626,9.00942223891616,None,2439.525040709996,None,2439.525040709996,None,2432.406422099972,None,2432.406422099972,None,2432.406422099972,None,2400.6645165809896,None,1,2022_Mar_29_1240,SAR-soap,2021.1.2,60.0307664912876,
156,Trial # 2,Group1-stimuli/group1-block2/real-group1-b2/Group1_IMG_0519.jpg,1,Group1_IMG_0519.jpg,,,,,,,,,0.0,1.0,1.0,1.0,,,,,,,,,,,,,,,,,,,,,,,,,,,,,,,,,2463.1829445940093,None,2463.1829445940093,None,2463.1829445940093,None,5.0,9.336152487958316,2463.1829445940093,None,2463.1829445940093,None,6.0,10.458850435970817,2472.0704235039884,None,2463.1829445940093,None,6.0,12.596301521989515,2473.203210295993,None,2463.1829445940093,None,space,1.0412955440115184,12.128805391606877,None,2463.1829445940093,None,2463.1829445940093,None,,,,,,,,,1,2022_Mar_29_1240,SAR-soap,2021.1.2,60.0307664912876,
157,Trial # 3,Group1-stimuli/group1-block2/fake-group2-b2/encoded_Group2_IMG_0135.jpg,0,encoded_Group2_IMG_0135.jpg,,,,,,,,,0.0,2.0,2.0,2.0,,,,,,,,,,,,,,,,,,,,,,,,,,,,,,,,,2476.4370751500246,None,2476.4370751500246,None,2476.4370751500246,None,4.0,2.691366876009852,2476.4370751500246,None,2476.4370751500246,None,1.0,7.71433603996411,2478.671442924009,None,2476.4370751500246,None,2.0,9.688512480992358,2481.0725109960185,None,2476.4370751500246,None,space,0.551087561994791,9.276376469410025,None,2476.4370751500246,None,2476.4370751500246,None,,,,,,,,,1,2022_Mar_29_1240,SAR-soap,2021.1.2,60.0307664912876,
158,Trial # 4,Group1-stimuli/group1-block2/real-group1-b2/Group1_IMG_5310.jpg,1,Group1_IMG_5310.jpg,,,,,,,,,0.0,3.0,3.0,3.0,,,,,,,,,,,,,,,,,,,,,,,,,,,,,,,,,2486.3240852470044,None,2486.3240852470044,None,2486.3240852470044,None,6.0,2.140619144018274,2486.3240852470044,None,2486.3240852470044,None,7.0,2.731044705025852,2488.0071320189745,None,2486.3240852470044,None,5.0,3.735415808972903,2488.6070964019746,None,2486.3240852470044,None,space,0.0380527069792151,3.759154558822047,None,2486.3240852470044,None,2486.3240852470044,None,,,,,,,,,1,2022_Mar_29_1240,SAR-soap,2021.1.2,60.0307664912876,
159,Trial # 5,Group1-stimuli/group1-block2/real-group1-b2/Group1_IMG_0522.jpg,1,Group1_IMG_0522.jpg,,,,,,,,,0.0,4.0,4.0,4.0,,,,,,,,,,,,,,,,,,,,,,,,,,,,,,,,,2490.1573599060066,None,2490.1573599060066,None,2490.1573599060066,None,6.0,1.588213782000821,2490.1573599060066,None,2490.1573599060066,None,7.0,2.6439315680181608,2491.3083536539925,None,2490.1573599060066,None,5.0,3.714953863993287,2492.375022123975,None,2490.1573599060066,None,space,0.6374769579852,3.316725156852044,None,2490.1573599060066,None,2490.1573599060066,None,,,,,,,,,1,2022_Mar_29_1240,SAR-soap,2021.1.2,60.0307664912876,
160,Trial # 6,Group1-stimuli/group1-block2/fake-group2-b2/encoded_Group2_IMG_0484.jpg,0,encoded_Group2_IMG_0484.jpg,,,,,,,,,0.0,5.0,5.0,5.0,,,,,,,,,,,,,,,,,,,,,,,,,,,,,,,,,2494.1757904249826,None,2494.1757904249826,None,2494.1757904249826,None,4.0,1.8069443779531864,2494.1757904249826,None,2494.1757904249826,None,2.0,2.628666115982924,2495.5275182860205,None,2494.1757904249826,None,2.0,4.167510027997196,2496.360822351009,None,2494.1757904249826,None,space,0.2325779649545438,4.18853234720882,None,2494.1757904249826,None,2494.1757904249826,None,,,,,,,,,1,2022_Mar_29_1240,SAR-soap,2021.1.2,60.0307664912876,
161,Trial # 7,Group1-stimuli/group1-block2/fake-group2-b2/encoded_Group2_IMG_5948.jpg,0,encoded_Group2_IMG_5948.jpg,,,,,,,,,0.0,6.0,6.0,6.0,,,,,,,,,,,,,,,,,,,,,,,,,,,,,,,,,2498.610490177991,None,2498.610490177991,None,2498.610490177991,None,1.0,1.597482449025847,2498.610490177991,None,2498.610490177991,None,2.0,2.05246051796712,2499.760768563021,None,2498.610490177991,None,2.0,2.625479141017422,2500.227148363017,None,2498.610490177991,None,space,0.3066700859926641,2.654058169166092,None,2498.610490177991,None,2498.610490177991,None,,,,,,,,,1,2022_Mar_29_1240,SAR-soap,2021.1.2,60.0307664912876,
162,Trial # 8,Group1-stimuli/group1-block2/fake-group2-b2/encoded_Group2_IMG_3591.jpg,0,encoded_Group2_IMG_3591.jpg,,,,,,,,,0.0,7.0,7.0,7.0,,,,,,,,,,,,,,,,,,,,,,,,,,,,,,,,,2501.6286746059777,None,2501.6286746059777,None,2501.6286746059777,None,3.0,3.705631504009944,2501.6286746059777,None,2501.6286746059777,None,2.0,4.59518477198435,2504.878802720981,None,2501.6286746059777,None,3.0,15.969663466967177,2505.7803590879776,None,2501.6286746059777,None,space,1.2154162930091843,15.993659639148971,None,2501.6286746059777,None,2501.6286746059777,None,,,,,,,,,1,2022_Mar_29_1240,SAR-soap,2021.1.2,60.0307664912876,
