,Trial_num,image_path,ground_truth,image_name,demos.thisRepN,demos.thisTrialN,demos.thisN,demos.thisIndex,block_1.thisRepN,block_1.thisTrialN,block_1.thisN,block_1.thisIndex,block_2.thisRepN,block_2.thisTrialN,block_2.thisN,block_2.thisIndex,text_3.started,text_3.stopped,Task.started,Task.stopped,text_10.started,text_10.stopped,key_resp.keys,key_resp.rt,key_resp.started,key_resp.stopped,image_2.started,image_2.stopped,text_5.started,text_5.stopped,image_3.started,image_3.stopped,text_6.started,text_6.stopped,translucency.started,translucency.stopped,see_throughness.started,see_throughness.stopped,glow.started,glow.stopped,key_resp_10.keys,key_resp_10.rt,key_resp_10.started,key_resp_10.stopped,instruction.started,instruction.stopped,text_12.started,text_12.stopped,Trial_number.started,Trial_number.stopped,image.started,image.stopped,Instruction.started,Instruction.stopped,translucency_score.response,translucency_score.rt,translucency_score.started,translucency_score.stopped,Translucency.started,Translucency.stopped,seethroughness_score.response,seethroughness_score.rt,seethroughness_score.started,seethroughness_score.stopped,SeeThroughness.started,SeeThroughness.stopped,glow_score.response,glow_score.rt,glow_score.started,glow_score.stopped,Glow.started,Glow.stopped,to_next.keys,to_next.rt,to_next.started,to_next.stopped,grading_label_left.started,grading_label_left.stopped,grading_label_right.started,grading_label_right.stopped,instruct1.started,instruct1.stopped,instruct2.started,instruct2.stopped,text_4.started,text_4.stopped,text_2.started,text_2.stopped,session,date,expName,psychopyVersion,frameRate,Unnamed: 94
0,,,,,,,,,,,,,,,,,16.24942641297821,None,32.99779648601543,None,53.42077009798959,None,space,49.43970097391866,58.388209545984864,None,,,,,,,,,,,,,,,,,,,,,,,,,,,,,,,,,,,,,,,,,,,,,,,,,,,,,,,,,,,,,,,1,2022_Apr_01_1317,SAR-soap,2021.1.2,60.00827312906842,
1,,,,,,,,,,,,,,,,,,,,,,,,,,,108.32052274700254,None,108.32052274700254,None,117.15661686798558,None,117.15661686798558,None,129.41062760306522,None,129.41062760306522,None,129.41062760306522,None,space,32.393199895042926,129.41062760306522,None,,,,,,,,,,,,,,,,,,,,,,,,,,,,,,,,,,,,,,,,,,,,,1,2022_Apr_01_1317,SAR-soap,2021.1.2,60.00827312906842,
2,Demo 1,demo/Demo_IMG_0974.jpg,demo,Demo_IMG_0974.jpg,0.0,0.0,0.0,0.0,,,,,,,,,,,,,,,,,,,,,,,,,,,,,,,,,,,,,129.41062760306522,None,161.83997958502732,None,167.68797237798572,None,167.68797237798572,None,167.68797237798572,None,6.0,47.65321528306231,167.68797237798572,None,167.68797237798572,None,5.0,46.12454667093698,193.62965724105013,None,167.68797237798572,None,5.0,61.56833112402819,213.35266313701868,None,167.68797237798572,None,space,1.8547876999946311,61.59183226979803,None,167.68797237798572,None,167.68797237798572,None,,,,,,,,,1,2022_Apr_01_1317,SAR-soap,2021.1.2,60.00827312906842,
3,Demo 2,demo/Demo_IMG_1024.jpg,demo,Demo_IMG_1024.jpg,0.0,1.0,1.0,1.0,,,,,,,,,,,,,,,,,,,,,,,,,,,,,,,,,,,,,,,,,231.2074295170605,None,231.2074295170605,None,231.2074295170605,None,1.0,4.90551722899545,231.2074295170605,None,231.2074295170605,None,1.0,5.845176880946383,235.66021958901547,None,231.2074295170605,None,1.0,7.051165848970413,236.60991644498424,None,231.2074295170605,None,space,1.9954658510396257,7.070441274088807,None,231.2074295170605,None,231.2074295170605,None,,,,,,,,,1,2022_Apr_01_1317,SAR-soap,2021.1.2,60.00827312906842,
4,Demo 3,demo/Demo_seed_80003.png,demo,Demo_seed_80003.png,0.0,2.0,2.0,2.0,,,,,,,,,,,,,,,,,,,,,,,,,,,,,,,,,,,,,,,,,240.3608755080495,None,240.3608755080495,None,240.3608755080495,None,6.0,5.192781297024339,240.3608755080495,None,240.3608755080495,None,4.0,7.965063776005991,245.0958279139595,None,240.3608755080495,None,6.0,11.206084521021694,247.8793816700345,None,240.3608755080495,None,space,4.424062431091443,9.69644877803512,None,240.3608755080495,None,240.3608755080495,None,,,,,,,,,1,2022_Apr_01_1317,SAR-soap,2021.1.2,60.00827312906842,
5,Trial # 1,Group1-stimuli/group1-block1/real-group1-b1/Group1_IMG_0022.jpg,1,Group1_IMG_0022.jpg,,,,,0.0,0.0,0.0,0.0,,,,,,,,,,,,,,,,,,,,,,,,,,,,,,,,,,,,,277.33835597196594,None,277.33835597196594,None,277.33835597196594,None,2.0,8.185503509012051,277.33835597196594,None,277.33835597196594,None,1.0,23.24640464701224,285.07437150296755,None,277.33835597196594,None,3.0,27.652630422031507,300.1468652880285,None,277.33835597196594,None,space,1.5369895090116188,27.68425908824429,None,277.33835597196594,None,277.33835597196594,None,254.48220484296328,None,254.48220484296328,None,254.48220484296328,None,,,1,2022_Apr_01_1317,SAR-soap,2021.1.2,60.00827312906842,
6,Trial # 2,Group1-stimuli/group1-block1/fake-group2-b1/encoded_Group2_IMG_0386.jpg,0,encoded_Group2_IMG_0386.jpg,,,,,0.0,1.0,1.0,1.0,,,,,,,,,,,,,,,,,,,,,,,,,,,,,,,,,,,,,306.6146196729969,None,306.6146196729969,None,306.6146196729969,None,4.0,4.560799118014984,306.6146196729969,None,306.6146196729969,None,3.0,10.818909174995497,310.7157084030332,None,306.6146196729969,None,5.0,12.824390309979208,316.9837996379938,None,306.6146196729969,None,space,1.0838694769190624,12.851258444599807,None,306.6146196729969,None,306.6146196729969,None,,,,,,,,,1,2022_Apr_01_1317,SAR-soap,2021.1.2,60.00827312906842,
7,Trial # 3,Group1-stimuli/group1-block1/real-group1-b1/Group1_IMG_9704.jpg,1,Group1_IMG_9704.jpg,,,,,0.0,2.0,2.0,2.0,,,,,,,,,,,,,,,,,,,,,,,,,,,,,,,,,,,,,320.5852633960312,None,320.5852633960312,None,320.5852633960312,None,1.0,3.3787929270183668,320.5852633960312,None,320.5852633960312,None,1.0,4.4676297180121765,323.50437079695985,None,320.5852633960312,None,2.0,5.440333981066942,324.604400417069,None,320.5852633960312,None,space,1.4348140739602968,5.465485494583845,None,320.5852633960312,None,320.5852633960312,None,,,,,,,,,1,2022_Apr_01_1317,SAR-soap,2021.1.2,60.00827312906842,
8,Trial # 4,Group1-stimuli/group1-block1/real-group1-b1/Group1_IMG_0406.jpg,1,Group1_IMG_0406.jpg,,,,,0.0,3.0,3.0,3.0,,,,,,,,,,,,,,,,,,,,,,,,,,,,,,,,,,,,,327.5376279699849,None,327.5376279699849,None,327.5376279699849,None,3.0,7.043987171025947,327.5376279699849,None,327.5376279699849,None,2.0,9.716269482974894,334.1235964320367,None,327.5376279699849,None,2.0,14.122590251034126,336.80672035203315,None,327.5376279699849,None,space,0.4286858810810372,14.145307169412265,None,327.5376279699849,None,327.5376279699849,None,,,,,,,,,1,2022_Apr_01_1317,SAR-soap,2021.1.2,60.00827312906842,
9,Trial # 5,Group1-stimuli/group1-block1/fake-group2-b1/encoded_Group2_IMG_0364.jpg,0,encoded_Group2_IMG_0364.jpg,,,,,0.0,4.0,4.0,4.0,,,,,,,,,,,,,,,,,,,,,,,,,,,,,,,,,,,,,342.1418372420594,None,342.1418372420594,None,342.1418372420594,None,1.0,1.926919740973972,342.1418372420594,None,342.1418372420594,None,1.0,2.9502880439395085,343.6102518689586,None,342.1418372420594,None,1.0,3.6882457089377567,344.6431161710061,None,342.1418372420594,None,space,0.2685364739736542,3.71266402467154,None,342.1418372420594,None,342.1418372420594,None,,,,,,,,,1,2022_Apr_01_1317,SAR-soap,2021.1.2,60.00827312906842,
10,Trial # 6,Group1-stimuli/group1-block1/fake-group2-b1/encoded_Group2_IMG_0407.jpg,0,encoded_Group2_IMG_0407.jpg,,,,,0.0,5.0,5.0,5.0,,,,,,,,,,,,,,,,,,,,,,,,,,,,,,,,,,,,,346.1764137389837,None,346.1764137389837,None,346.1764137389837,None,2.0,4.626622912008315,346.1764137389837,None,346.1764137389837,None,2.0,8.751264572958462,350.3447326819878,None,346.1764137389837,None,2.0,8.089334607939236,351.8782551540062,None,346.1764137389837,None,space,1.3521684959996492,8.114083642489277,None,346.1764137389837,None,346.1764137389837,None,,,,,,,,,1,2022_Apr_01_1317,SAR-soap,2021.1.2,60.00827312906842,
11,Trial # 7,Group1-stimuli/group1-block1/real-group1-b1/Group1_IMG_0428.jpg,1,Group1_IMG_0428.jpg,,,,,0.0,6.0,6.0,6.0,,,,,,,,,,,,,,,,,,,,,,,,,,,,,,,,,,,,,355.6798785469728,None,355.6798785469728,None,355.6798785469728,None,6.0,6.043874281924218,355.6798785469728,None,355.6798785469728,None,5.0,9.518386172014289,361.2646679079626,None,355.6798785469728,None,5.0,15.75833976501599,364.74908359895926,None,355.6798785469728,None,space,0.3964364549610764,15.782211046549492,None,355.6798785469728,None,355.6798785469728,None,,,,,,,,,1,2022_Apr_01_1317,SAR-soap,2021.1.2,60.00827312906842,
12,Trial # 8,Group1-stimuli/group1-block1/fake-group2-b1/encoded_Group2_IMG_0474.jpg,0,encoded_Group2_IMG_0474.jpg,,,,,0.0,7.0,7.0,7.0,,,,,,,,,,,,,,,,,,,,,,,,,,,,,,,,,,,,,371.8839136400493,None,371.8839136400493,None,371.8839136400493,None,1.0,2.310187204973772,371.8839136400493,None,371.8839136400493,None,1.0,3.1662360390182585,373.735529629048,None,371.8839136400493,None,1.0,3.904888653079979,374.6021996290656,None,371.8839136400493,None,space,0.2449910059804096,3.928852218668908,None,371.8839136400493,None,371.8839136400493,None,,,,,,,,,1,2022_Apr_01_1317,SAR-soap,2021.1.2,60.00827312906842,
13,Trial # 9,Group1-stimuli/group1-block1/fake-group2-b1/encoded_Group2_IMG_1506.jpg,0,encoded_Group2_IMG_1506.jpg,,,,,0.0,8.0,8.0,8.0,,,,,,,,,,,,,,,,,,,,,,,,,,,,,,,,,,,,,376.1024298020639,None,376.1024298020639,None,376.1024298020639,None,6.0,2.609096345026046,376.1024298020639,None,376.1024298020639,None,6.0,4.93090250599198,378.2539840060053,None,376.1024298020639,None,5.0,11.337678707903253,380.58679384202696,None,376.1024298020639,None,space,0.711744696018286,11.36284552863799,None,376.1024298020639,None,376.1024298020639,None,,,,,,,,,1,2022_Apr_01_1317,SAR-soap,2021.1.2,60.00827312906842,
14,Trial # 10,Group1-stimuli/group1-block1/real-group1-b1/Group1_IMG_9789.jpg,1,Group1_IMG_9789.jpg,,,,,0.0,9.0,9.0,9.0,,,,,,,,,,,,,,,,,,,,,,,,,,,,,,,,,,,,,388.2238027109997,None,388.2238027109997,None,388.2238027109997,None,1.0,2.2438280939823017,388.2238027109997,None,388.2238027109997,None,1.0,2.8327010589418933,390.00690144801047,None,388.2238027109997,None,1.0,3.5036626239307225,390.6068932680646,None,388.2238027109997,None,space,0.3630362859694287,3.528432452469133,None,388.2238027109997,None,388.2238027109997,None,,,,,,,,,1,2022_Apr_01_1317,SAR-soap,2021.1.2,60.00827312906842,
15,Trial # 11,Group1-stimuli/group1-block1/real-group1-b1/Group1_IMG_9778.jpg,1,Group1_IMG_9778.jpg,,,,,0.0,10.0,10.0,10.0,,,,,,,,,,,,,,,,,,,,,,,,,,,,,,,,,,,,,392.1241477660369,None,392.1241477660369,None,392.1241477660369,None,6.0,34.03859106602613,392.1241477660369,None,392.1241477660369,None,5.0,38.44547756202519,425.7184139629826,None,392.1241477660369,None,5.0,40.01784523506649,430.1368099580286,None,392.1241477660369,None,space,1.3819135470548645,40.04449303855654,None,392.1241477660369,None,392.1241477660369,None,,,,,,,,,1,2022_Apr_01_1317,SAR-soap,2021.1.2,60.00827312906842,
16,Trial # 12,Group1-stimuli/group1-block1/real-group1-b1/Group1_IMG_9813.jpg,1,Group1_IMG_9813.jpg,,,,,0.0,11.0,11.0,11.0,,,,,,,,,,,,,,,,,,,,,,,,,,,,,,,,,,,,,433.60403886204585,None,433.60403886204585,None,433.60403886204585,None,1.0,5.628590586944483,433.60403886204585,None,433.60403886204585,None,1.0,6.285790454014204,438.7725639140699,None,433.60403886204585,None,1.0,7.023715843097307,439.4385356400162,None,433.60403886204585,None,space,0.6164325979771093,7.049721214571036,None,433.60403886204585,None,433.60403886204585,None,,,,,,,,,1,2022_Apr_01_1317,SAR-soap,2021.1.2,60.00827312906842,
17,Trial # 13,Group1-stimuli/group1-block1/real-group1-b1/Group1_IMG_0516.jpg,1,Group1_IMG_0516.jpg,,,,,0.0,12.0,12.0,12.0,,,,,,,,,,,,,,,,,,,,,,,,,,,,,,,,,,,,,441.30548581201583,None,441.30548581201583,None,441.30548581201583,None,5.0,4.329462165012956,441.30548581201583,None,441.30548581201583,None,4.0,12.119614989962429,445.1743948820513,None,441.30548581201583,None,6.0,13.126980740926228,452.97567908803467,None,441.30548581201583,None,space,0.6995018660090864,13.153228267561644,None,441.30548581201583,None,441.30548581201583,None,,,,,,,,,1,2022_Apr_01_1317,SAR-soap,2021.1.2,60.00827312906842,
18,Trial # 14,Group1-stimuli/group1-block1/fake-group2-b1/encoded_Group2_IMG_0038.jpg,0,encoded_Group2_IMG_0038.jpg,,,,,0.0,13.0,13.0,13.0,,,,,,,,,,,,,,,,,,,,,,,,,,,,,,,,,,,,,455.2105038400041,None,455.2105038400041,None,455.2105038400041,None,5.0,3.576942970976233,455.2105038400041,None,455.2105038400041,None,4.0,4.532894026953727,458.32836894202046,None,455.2105038400041,None,6.0,5.805150032043457,459.2953157930169,None,455.2105038400041,None,space,0.5228677770355716,5.82931968558114,None,455.2105038400041,None,455.2105038400041,None,,,,,,,,,1,2022_Apr_01_1317,SAR-soap,2021.1.2,60.00827312906842,
19,Trial # 15,Group1-stimuli/group1-block1/real-group1-b1/Group1_IMG_5984.jpg,1,Group1_IMG_5984.jpg,,,,,0.0,14.0,14.0,14.0,,,,,,,,,,,,,,,,,,,,,,,,,,,,,,,,,,,,,461.5793351790635,None,461.5793351790635,None,461.5793351790635,None,1.0,2.2296673139790077,461.5793351790635,None,461.5793351790635,None,1.0,2.8523309079464525,463.363239096012,None,461.5793351790635,None,1.0,3.591282351058908,463.99659546196926,None,461.5793351790635,None,space,0.3873470569960773,3.617697001551278,None,461.5793351790635,None,461.5793351790635,None,,,,,,,,,1,2022_Apr_01_1317,SAR-soap,2021.1.2,60.00827312906842,
20,Trial # 16,Group1-stimuli/group1-block1/real-group1-b1/Group1_IMG_0383.jpg,1,Group1_IMG_0383.jpg,,,,,0.0,15.0,15.0,15.0,,,,,,,,,,,,,,,,,,,,,,,,,,,,,,,,,,,,,465.6300811970141,None,465.6300811970141,None,465.6300811970141,None,6.0,3.4738221879815683,465.6300811970141,None,465.6300811970141,None,5.0,5.313836590969004,468.6480898200534,None,465.6300811970141,None,6.0,6.417591289966367,470.4987763160607,None,465.6300811970141,None,space,0.2466386769665405,6.439232389559038,None,465.6300811970141,None,465.6300811970141,None,,,,,,,,,1,2022_Apr_01_1317,SAR-soap,2021.1.2,60.00827312906842,
21,Trial # 17,Group1-stimuli/group1-block1/fake-group2-b1/encoded_Group2_IMG_0456.jpg,0,encoded_Group2_IMG_0456.jpg,,,,,0.0,16.0,16.0,16.0,,,,,,,,,,,,,,,,,,,,,,,,,,,,,,,,,,,,,472.365519233048,None,472.365519233048,None,472.365519233048,None,5.0,8.928686474915594,472.365519233048,None,472.365519233048,None,5.0,11.119455454056151,480.8353383999784,None,472.365519233048,None,5.0,13.592532982002012,483.0361900629941,None,472.365519233048,None,space,0.3257964620133862,13.616107374662532,None,472.365519233048,None,472.365519233048,None,,,,,,,,,1,2022_Apr_01_1317,SAR-soap,2021.1.2,60.00827312906842,
22,Trial # 18,Group1-stimuli/group1-block1/fake-group2-b1/encoded_Group2_IMG_8390.jpg,0,encoded_Group2_IMG_8390.jpg,,,,,0.0,17.0,17.0,17.0,,,,,,,,,,,,,,,,,,,,,,,,,,,,,,,,,,,,,486.3200898600044,None,486.3200898600044,None,486.3200898600044,None,6.0,2.096787652000785,486.3200898600044,None,486.3200898600044,None,5.0,3.6533922200324014,487.9709514550632,None,486.3200898600044,None,6.0,5.626821028999984,489.5379746330436,None,486.3200898600044,None,space,1.3245671100448817,5.655164121650159,None,486.3200898600044,None,486.3200898600044,None,,,,,,,,,1,2022_Apr_01_1317,SAR-soap,2021.1.2,60.00827312906842,
23,Trial # 19,Group1-stimuli/group1-block1/real-group1-b1/Group1_IMG_0011.jpg,1,Group1_IMG_0011.jpg,,,,,0.0,18.0,18.0,18.0,,,,,,,,,,,,,,,,,,,,,,,,,,,,,,,,,,,,,493.3394101510057,None,493.3394101510057,None,493.3394101510057,None,6.0,2.676540081971325,493.3394101510057,None,493.3394101510057,None,5.0,5.565672466065735,495.55624775995966,None,493.3394101510057,None,6.0,6.903330226079561,498.4579000789672,None,493.3394101510057,None,space,0.2777870399877429,6.927675282582641,None,493.3394101510057,None,493.3394101510057,None,,,,,,,,,1,2022_Apr_01_1317,SAR-soap,2021.1.2,60.00827312906842,
24,Trial # 20,Group1-stimuli/group1-block1/fake-group2-b1/encoded_Group2_IMG_0328.jpg,0,encoded_Group2_IMG_0328.jpg,,,,,0.0,19.0,19.0,19.0,,,,,,,,,,,,,,,,,,,,,,,,,,,,,,,,,,,,,500.5741831520572,None,500.5741831520572,None,500.5741831520572,None,1.0,1.747249991982244,500.5741831520572,None,500.5741831520572,None,1.0,2.270642804913223,501.8745229750639,None,500.5741831520572,None,2.0,3.877042827894911,502.40787872707006,None,500.5741831520572,None,space,0.1638624729821458,3.906034011510201,None,500.5741831520572,None,500.5741831520572,None,,,,,,,,,1,2022_Apr_01_1317,SAR-soap,2021.1.2,60.00827312906842,
25,Trial # 21,Group1-stimuli/group1-block1/fake-group2-b1/encoded_Group2_IMG_0163.jpg,0,encoded_Group2_IMG_0163.jpg,,,,,0.0,20.0,20.0,20.0,,,,,,,,,,,,,,,,,,,,,,,,,,,,,,,,,,,,,504.65858940500766,None,504.65858940500766,None,504.65858940500766,None,6.0,4.198286100989208,504.65858940500766,None,504.65858940500766,None,6.0,5.88720974791795,508.4112732510548,None,504.65858940500766,None,5.0,7.826885851914994,510.1104515059851,None,504.65858940500766,None,space,0.392946038977243,7.854188111494295,None,504.65858940500766,None,504.65858940500766,None,,,,,,,,,1,2022_Apr_01_1317,SAR-soap,2021.1.2,60.00827312906842,
26,Trial # 22,Group1-stimuli/group1-block1/real-group1-b1/Group1_IMG_9862.jpg,1,Group1_IMG_9862.jpg,,,,,0.0,21.0,21.0,21.0,,,,,,,,,,,,,,,,,,,,,,,,,,,,,,,,,,,,,512.9444718930172,None,512.9444718930172,None,512.9444718930172,None,1.0,2.1105291160056368,512.9444718930172,None,512.9444718930172,None,1.0,2.867057712050155,514.5958708230173,None,512.9444718930172,None,1.0,3.737759476993233,515.3621565450449,None,512.9444718930172,None,space,0.3044301929185167,3.7628110515652224,None,512.9444718930172,None,512.9444718930172,None,,,,,,,,,1,2022_Apr_01_1317,SAR-soap,2021.1.2,60.00827312906842,
27,Trial # 23,Group1-stimuli/group1-block1/fake-group2-b1/encoded_Group2_IMG_0296.jpg,0,encoded_Group2_IMG_0296.jpg,,,,,0.0,22.0,22.0,22.0,,,,,,,,,,,,,,,,,,,,,,,,,,,,,,,,,,,,,517.0462983140023,None,517.0462983140023,None,517.0462983140023,None,6.0,6.483300289022736,517.0462983140023,None,517.0462983140023,None,6.0,7.239855645922944,523.0830155289732,None,517.0462983140023,None,6.0,8.778668707003817,523.849139736034,None,517.0462983140023,None,space,0.2149854820454493,8.80645993957296,None,517.0462983140023,None,517.0462983140023,None,,,,,,,,,1,2022_Apr_01_1317,SAR-soap,2021.1.2,60.00827312906842,
28,Trial # 24,Group1-stimuli/group1-block1/fake-group2-b1/encoded_Group2_IMG_0503.jpg,0,encoded_Group2_IMG_0503.jpg,,,,,0.0,23.0,23.0,23.0,,,,,,,,,,,,,,,,,,,,,,,,,,,,,,,,,,,,,526.0986264339881,None,526.0986264339881,None,526.0986264339881,None,6.0,1.880115050938912,526.0986264339881,None,526.0986264339881,None,6.0,2.601955904974602,527.5330266390229,None,526.0986264339881,None,5.0,3.7077998409513375,528.2662153900601,None,526.0986264339881,None,space,0.2221540079917758,3.735995166469365,None,526.0986264339881,None,526.0986264339881,None,,,,,,,,,1,2022_Apr_01_1317,SAR-soap,2021.1.2,60.00827312906842,
29,Trial # 25,Group1-stimuli/group1-block1/fake-group2-b1/encoded_Group2_IMG_9804.jpg,0,encoded_Group2_IMG_9804.jpg,,,,,0.0,24.0,24.0,24.0,,,,,,,,,,,,,,,,,,,,,,,,,,,,,,,,,,,,,530.0830440940335,None,530.0830440940335,None,530.0830440940335,None,1.0,2.281119658960961,530.0830440940335,None,530.0830440940335,None,1.0,3.0370686550159007,531.9168124040589,None,530.0830440940335,None,1.0,4.344004810089245,532.6837839990621,None,530.0830440940335,None,space,0.6123994659865275,4.373401137534529,None,530.0830440940335,None,530.0830440940335,None,,,,,,,,,1,2022_Apr_01_1317,SAR-soap,2021.1.2,60.00827312906842,
30,Trial # 26,Group1-stimuli/group1-block1/real-group1-b1/Group1_IMG_0391.jpg,1,Group1_IMG_0391.jpg,,,,,0.0,25.0,25.0,25.0,,,,,,,,,,,,,,,,,,,,,,,,,,,,,,,,,,,,,535.1188863159623,None,535.1188863159623,None,535.1188863159623,None,5.0,2.8076355810044333,535.1188863159623,None,535.1188863159623,None,4.0,5.548646815004759,537.4686738690361,None,535.1188863159623,None,6.0,6.5552417419385165,540.2201580280671,None,535.1188863159623,None,space,0.2325617350870743,6.578122943639755,None,535.1188863159623,None,535.1188863159623,None,,,,,,,,,1,2022_Apr_01_1317,SAR-soap,2021.1.2,60.00827312906842,
31,Trial # 27,Group1-stimuli/group1-block1/fake-group2-b1/encoded_Group2_IMG_3584.jpg,0,encoded_Group2_IMG_3584.jpg,,,,,0.0,26.0,26.0,26.0,,,,,,,,,,,,,,,,,,,,,,,,,,,,,,,,,,,,,541.9539207390044,None,541.9539207390044,None,541.9539207390044,None,6.0,4.9945543189533055,541.9539207390044,None,541.9539207390044,None,4.0,7.752300451975316,546.4880133960396,None,541.9539207390044,None,5.0,10.423851945903152,549.2567207009997,None,541.9539207390044,None,space,0.1780659329378977,10.448831722605972,None,541.9539207390044,None,541.9539207390044,None,,,,,,,,,1,2022_Apr_01_1317,SAR-soap,2021.1.2,60.00827312906842,
32,Trial # 28,Group1-stimuli/group1-block1/fake-group2-b1/encoded_Group2_IMG_0434.jpg,0,encoded_Group2_IMG_0434.jpg,,,,,0.0,27.0,27.0,27.0,,,,,,,,,,,,,,,,,,,,,,,,,,,,,,,,,,,,,552.6227509940509,None,552.6227509940509,None,552.6227509940509,None,6.0,4.9764322709525,552.6227509940509,None,552.6227509940509,None,6.0,5.898639953928068,557.141736502992,None,552.6227509940509,None,6.0,8.272594933048822,558.075691911974,None,552.6227509940509,None,space,1.4423908479511738,8.295336227631196,None,552.6227509940509,None,552.6227509940509,None,,,,,,,,,1,2022_Apr_01_1317,SAR-soap,2021.1.2,60.00827312906842,
33,Trial # 29,Group1-stimuli/group1-block1/fake-group2-b1/encoded_Group2_IMG_9575.jpg,0,encoded_Group2_IMG_9575.jpg,,,,,0.0,28.0,28.0,28.0,,,,,,,,,,,,,,,,,,,,,,,,,,,,,,,,,,,,,562.3933520240244,None,562.3933520240244,None,562.3933520240244,None,2.0,4.463173636002466,562.3933520240244,None,562.3933520240244,None,1.0,6.35397567495238,566.4115803879686,None,562.3933520240244,None,2.0,8.759522781940177,568.3127255899599,None,562.3933520240244,None,space,1.1319146869936958,8.78766006056685,None,562.3933520240244,None,562.3933520240244,None,,,,,,,,,1,2022_Apr_01_1317,SAR-soap,2021.1.2,60.00827312906842,
34,Trial # 30,Group1-stimuli/group1-block1/fake-group2-b1/encoded_Group2_IMG_1025.jpg,0,encoded_Group2_IMG_1025.jpg,,,,,0.0,29.0,29.0,29.0,,,,,,,,,,,,,,,,,,,,,,,,,,,,,,,,,,,,,572.3297663590638,None,572.3297663590638,None,572.3297663590638,None,1.0,2.281485829036683,572.3297663590638,None,572.3297663590638,None,1.0,2.9042479309719056,574.1647677910514,None,572.3297663590638,None,1.0,3.609092667000368,574.7978820139542,None,572.3297663590638,None,space,1.8839970061089844,3.6374058926012367,None,572.3297663590638,None,572.3297663590638,None,,,,,,,,,1,2022_Apr_01_1317,SAR-soap,2021.1.2,60.00827312906842,
35,Trial # 31,Group1-stimuli/group1-block1/real-group1-b1/Group1_IMG_0502.jpg,1,Group1_IMG_0502.jpg,,,,,0.0,30.0,30.0,30.0,,,,,,,,,,,,,,,,,,,,,,,,,,,,,,,,,,,,,577.89753143501,None,577.89753143501,None,577.89753143501,None,6.0,2.7958643790334463,577.89753143501,None,577.89753143501,None,5.0,3.635956853046082,580.2323781810701,None,577.89753143501,None,6.0,4.707646723021753,581.0821623790544,None,577.89753143501,None,space,0.7519280930282548,4.733543680631556,None,577.89753143501,None,577.89753143501,None,,,,,,,,,1,2022_Apr_01_1317,SAR-soap,2021.1.2,60.00827312906842,
36,Trial # 32,Group1-stimuli/group1-block1/real-group1-b1/Group1_IMG_0182.jpg,1,Group1_IMG_0182.jpg,,,,,0.0,31.0,31.0,31.0,,,,,,,,,,,,,,,,,,,,,,,,,,,,,,,,,,,,,583.4172425450524,None,583.4172425450524,None,583.4172425450524,None,6.0,2.1960947499610484,583.4172425450524,None,583.4172425450524,None,6.0,3.0015863499138504,585.1512334210565,None,583.4172425450524,None,5.0,4.539423138019629,585.9677106209565,None,583.4172425450524,None,space,1.2726904429728163,4.565304934629239,None,583.4172425450524,None,583.4172425450524,None,,,,,,,,,1,2022_Apr_01_1317,SAR-soap,2021.1.2,60.00827312906842,
37,Trial # 33,Group1-stimuli/group1-block1/fake-group2-b1/encoded_Group2_IMG_2728.jpg,0,encoded_Group2_IMG_2728.jpg,,,,,0.0,32.0,32.0,32.0,,,,,,,,,,,,,,,,,,,,,,,,,,,,,,,,,,,,,589.2848187380005,None,589.2848187380005,None,589.2848187380005,None,2.0,2.048287032986991,589.2848187380005,None,589.2848187380005,None,1.0,3.27054301998578,590.8863992489642,None,589.2848187380005,None,2.0,4.776212914963253,592.1187226299662,None,589.2848187380005,None,space,2.2729734469903637,4.8060074265813455,None,589.2848187380005,None,589.2848187380005,None,,,,,,,,,1,2022_Apr_01_1317,SAR-soap,2021.1.2,60.00827312906842,
38,Trial # 34,Group1-stimuli/group1-block1/fake-group2-b1/encoded_Group2_IMG_4867.jpg,0,encoded_Group2_IMG_4867.jpg,,,,,0.0,33.0,33.0,33.0,,,,,,,,,,,,,,,,,,,,,,,,,,,,,,,,,,,,,596.4042569190497,None,596.4042569190497,None,596.4042569190497,None,6.0,4.31624133803416,596.4042569190497,None,596.4042569190497,None,6.0,5.405331032932736,600.2729462260613,None,596.4042569190497,None,6.0,6.077103720977902,601.3726036089938,None,596.4042569190497,None,space,0.7094548649620265,6.106721399584785,None,596.4042569190497,None,596.4042569190497,None,,,,,,,,,1,2022_Apr_01_1317,SAR-soap,2021.1.2,60.00827312906842,
39,Trial # 35,Group1-stimuli/group1-block1/real-group1-b1/Group1_IMG_9894.jpg,1,Group1_IMG_9894.jpg,,,,,0.0,34.0,34.0,34.0,,,,,,,,,,,,,,,,,,,,,,,,,,,,,,,,,,,,,603.256121819024,None,603.256121819024,None,603.256121819024,None,1.0,3.062361414078623,603.256121819024,None,603.256121819024,None,1.0,3.818904121988453,605.8735475860303,None,603.256121819024,None,1.0,4.52358949102927,606.6397812099895,None,603.256121819024,None,space,0.6563720740377903,4.550642255577259,None,603.256121819024,None,603.256121819024,None,,,,,,,,,1,2022_Apr_01_1317,SAR-soap,2021.1.2,60.00827312906842,
40,Trial # 36,Group1-stimuli/group1-block1/fake-group2-b1/encoded_Group2_IMG_0444.jpg,0,encoded_Group2_IMG_0444.jpg,,,,,0.0,35.0,35.0,35.0,,,,,,,,,,,,,,,,,,,,,,,,,,,,,,,,,,,,,608.4914640979841,None,608.4914640979841,None,608.4914640979841,None,6.0,2.181799288955517,608.4914640979841,None,608.4914640979841,None,5.0,8.789494156022556,610.2257346189581,None,608.4914640979841,None,6.0,9.327473194920458,611.4752404299797,None,608.4914640979841,None,space,1.2684876300627366,9.357177552534267,None,608.4914640979841,None,608.4914640979841,None,,,,,,,,,1,2022_Apr_01_1317,SAR-soap,2021.1.2,60.00827312906842,
41,Trial # 37,Group1-stimuli/group1-block1/real-group1-b1/Group1_IMG_2656.jpg,1,Group1_IMG_2656.jpg,,,,,0.0,36.0,36.0,36.0,,,,,,,,,,,,,,,,,,,,,,,,,,,,,,,,,,,,,619.1613884529797,None,619.1613884529797,None,619.1613884529797,None,1.0,8.231450587976724,619.1613884529797,None,619.1613884529797,None,1.0,8.853775202063844,626.9467151260469,None,619.1613884529797,None,2.0,9.527184159029275,627.5795786649687,None,619.1613884529797,None,space,0.3011868270114064,9.553869634517469,None,619.1613884529797,None,619.1613884529797,None,,,,,,,,,1,2022_Apr_01_1317,SAR-soap,2021.1.2,60.00827312906842,
42,Trial # 38,Group1-stimuli/group1-block1/real-group1-b1/Group1_IMG_0207.jpg,1,Group1_IMG_0207.jpg,,,,,0.0,37.0,37.0,37.0,,,,,,,,,,,,,,,,,,,,,,,,,,,,,,,,,,,,,629.0809904399794,None,629.0809904399794,None,629.0809904399794,None,1.0,1.9909430580446497,629.0809904399794,None,629.0809904399794,None,1.0,2.512653789017349,630.6142905580346,None,629.0809904399794,None,2.0,3.2522661139955744,631.1481033450691,None,629.0809904399794,None,space,0.2200292600318789,3.273237328627147,None,629.0809904399794,None,629.0809904399794,None,,,,,,,,,1,2022_Apr_01_1317,SAR-soap,2021.1.2,60.00827312906842,
43,Trial # 39,Group1-stimuli/group1-block1/real-group1-b1/Group1_IMG_9638.jpg,1,Group1_IMG_9638.jpg,,,,,0.0,38.0,38.0,38.0,,,,,,,,,,,,,,,,,,,,,,,,,,,,,,,,,,,,,632.6147411160637,None,632.6147411160637,None,632.6147411160637,None,6.0,1.9764312920160592,632.6147411160637,None,632.6147411160637,None,5.0,2.899631390930153,634.1330470900284,None,632.6147411160637,None,7.0,4.569968800991774,635.0662820449797,None,632.6147411160637,None,space,0.9168190630152822,3.8935190027114,None,632.6147411160637,None,632.6147411160637,None,,,,,,,,,1,2022_Apr_01_1317,SAR-soap,2021.1.2,60.00827312906842,
44,Trial # 40,Group1-stimuli/group1-block1/real-group1-b1/Group1_IMG_0148.jpg,1,Group1_IMG_0148.jpg,,,,,0.0,39.0,39.0,39.0,,,,,,,,,,,,,,,,,,,,,,,,,,,,,,,,,,,,,637.4665494690416,None,637.4665494690416,None,637.4665494690416,None,7.0,3.2791361939162016,637.4665494690416,None,637.4665494690416,None,7.0,7.7695969979977235,640.2844991399907,None,637.4665494690416,None,6.0,9.707823241013102,644.785455123987,None,637.4665494690416,None,space,1.2459297319874167,9.734155430691317,None,637.4665494690416,None,637.4665494690416,None,,,,,,,,,1,2022_Apr_01_1317,SAR-soap,2021.1.2,60.00827312906842,
45,Trial # 41,Group1-stimuli/group1-block1/real-group1-b1/Group1_IMG_2891.jpg,1,Group1_IMG_2891.jpg,,,,,0.0,40.0,40.0,40.0,,,,,,,,,,,,,,,,,,,,,,,,,,,,,,,,,,,,,648.4703908009687,None,648.4703908009687,None,648.4703908009687,None,2.0,2.2641424399334937,648.4703908009687,None,648.4703908009687,None,1.0,3.152951305033639,650.2868884260533,None,648.4703908009687,None,2.0,4.0236640989314765,651.1872795950621,None,648.4703908009687,None,space,0.8555409220280126,4.051190025638789,None,648.4703908009687,None,648.4703908009687,None,,,,,,,,,1,2022_Apr_01_1317,SAR-soap,2021.1.2,60.00827312906842,
46,Trial # 42,Group1-stimuli/group1-block1/real-group1-b1/Group1_IMG_0157.jpg,1,Group1_IMG_0157.jpg,,,,,0.0,41.0,41.0,41.0,,,,,,,,,,,,,,,,,,,,,,,,,,,,,,,,,,,,,653.4221979409922,None,653.4221979409922,None,653.4221979409922,None,7.0,2.5454245189903304,653.4221979409922,None,653.4221979409922,None,7.0,5.903006399050355,655.505308481981,None,653.4221979409922,None,7.0,12.476263573975302,658.8741416289704,None,653.4221979409922,None,space,0.3155296959448606,12.50093722960446,None,653.4221979409922,None,653.4221979409922,None,,,,,,,,,1,2022_Apr_01_1317,SAR-soap,2021.1.2,60.00827312906842,
47,Trial # 43,Group1-stimuli/group1-block1/real-group1-b1/Group1_IMG_9833.jpg,1,Group1_IMG_9833.jpg,,,,,0.0,42.0,42.0,42.0,,,,,,,,,,,,,,,,,,,,,,,,,,,,,,,,,,,,,666.2750148250489,None,666.2750148250489,None,666.2750148250489,None,1.0,3.379851331934333,666.2750148250489,None,666.2750148250489,None,1.0,3.9340880010277033,669.1931999169756,None,666.2750148250489,None,1.0,4.60706528602168,669.75965584605,None,666.2750148250489,None,space,0.2909238630672917,4.632658310583793,None,666.2750148250489,None,666.2750148250489,None,,,,,,,,,1,2022_Apr_01_1317,SAR-soap,2021.1.2,60.00827312906842,
48,Trial # 44,Group1-stimuli/group1-block1/fake-group2-b1/encoded_Group2_IMG_2230.jpg,0,encoded_Group2_IMG_2230.jpg,,,,,0.0,43.0,43.0,43.0,,,,,,,,,,,,,,,,,,,,,,,,,,,,,,,,,,,,,671.2106035629986,None,671.2106035629986,None,671.2106035629986,None,6.0,2.163453876040876,671.2106035629986,None,671.2106035629986,None,5.0,3.054486406967044,672.9267790979939,None,671.2106035629986,None,6.0,4.225582986022346,673.8276899709599,None,671.2106035629986,None,space,0.3147776469122618,4.254563085734844,None,671.2106035629986,None,671.2106035629986,None,,,,,,,,,1,2022_Apr_01_1317,SAR-soap,2021.1.2,60.00827312906842,
49,Trial # 45,Group1-stimuli/group1-block1/real-group1-b1/Group1_IMG_9966.jpg,1,Group1_IMG_9966.jpg,,,,,0.0,44.0,44.0,44.0,,,,,,,,,,,,,,,,,,,,,,,,,,,,,,,,,,,,,675.8287069220096,None,675.8287069220096,None,675.8287069220096,None,6.0,2.5566340839723125,675.8287069220096,None,675.8287069220096,None,5.0,3.3470854060724378,677.9289642740041,None,675.8287069220096,None,7.0,5.91766858601477,678.7298611099832,None,675.8287069220096,None,space,0.2851123010041192,5.94018847157713,None,675.8287069220096,None,675.8287069220096,None,,,,,,,,,1,2022_Apr_01_1317,SAR-soap,2021.1.2,60.00827312906842,
50,Trial # 46,Group1-stimuli/group1-block1/real-group1-b1/Group1_IMG_0239.jpg,1,Group1_IMG_0239.jpg,,,,,0.0,45.0,45.0,45.0,,,,,,,,,,,,,,,,,,,,,,,,,,,,,,,,,,,,,682.0961017230293,None,682.0961017230293,None,682.0961017230293,None,2.0,27.169615383958444,682.0961017230293,None,682.0961017230293,None,1.0,28.05859869695269,708.8053917400539,None,682.0961017230293,None,2.0,28.798118041013367,709.7064306960674,None,682.0961017230293,None,space,0.573209555936046,28.82244576665107,None,682.0961017230293,None,682.0961017230293,None,,,,,,,,,1,2022_Apr_01_1317,SAR-soap,2021.1.2,60.00827312906842,
51,Trial # 47,Group1-stimuli/group1-block1/fake-group2-b1/encoded_Group2_IMG_0536.jpg,0,encoded_Group2_IMG_0536.jpg,,,,,0.0,46.0,46.0,46.0,,,,,,,,,,,,,,,,,,,,,,,,,,,,,,,,,,,,,711.5397555070231,None,711.5397555070231,None,711.5397555070231,None,1.0,4.262800285010599,711.5397555070231,None,711.5397555070231,None,1.0,4.834330327110365,713.6233306679642,None,711.5397555070231,None,1.0,5.80555860302411,715.924260439002,None,711.5397555070231,None,space,0.3140271260635927,5.833484914619476,None,711.5397555070231,None,711.5397555070231,None,,,,,,,,,1,2022_Apr_01_1317,SAR-soap,2021.1.2,60.00827312906842,
52,Trial # 48,Group1-stimuli/group1-block1/fake-group2-b1/encoded_Group2_IMG_0521.jpg,0,encoded_Group2_IMG_0521.jpg,,,,,0.0,47.0,47.0,47.0,,,,,,,,,,,,,,,,,,,,,,,,,,,,,,,,,,,,,717.7079716259614,None,717.7079716259614,None,717.7079716259614,None,5.0,9.433849978027864,717.7079716259614,None,717.7079716259614,None,4.0,17.310538899037056,721.0920087350532,None,717.7079716259614,None,4.0,21.282831597025503,728.4123883260181,None,717.7079716259614,None,space,11.389421880012378,12.274802207597531,None,717.7079716259614,None,717.7079716259614,None,,,,,,,,,1,2022_Apr_01_1317,SAR-soap,2021.1.2,60.00827312906842,
53,Trial # 49,Group1-stimuli/group1-block1/fake-group2-b1/encoded_Group2_IMG_9924.jpg,0,encoded_Group2_IMG_9924.jpg,,,,,0.0,48.0,48.0,48.0,,,,,,,,,,,,,,,,,,,,,,,,,,,,,,,,,,,,,741.3981920139631,None,741.3981920139631,None,741.3981920139631,None,1.0,2.198239722987637,741.3981920139631,None,741.3981920139631,None,1.0,3.321157819940709,743.1492673109751,None,741.3981920139631,None,1.0,4.125619339989498,744.282744813012,None,741.3981920139631,None,space,0.2898975750431418,4.1550392776262015,None,741.3981920139631,None,741.3981920139631,None,,,,,,,,,1,2022_Apr_01_1317,SAR-soap,2021.1.2,60.00827312906842,
54,Trial # 50,Group1-stimuli/group1-block1/real-group1-b1/Group1_IMG_9730.jpg,1,Group1_IMG_9730.jpg,,,,,0.0,49.0,49.0,49.0,,,,,,,,,,,,,,,,,,,,,,,,,,,,,,,,,,,,,745.882902849,None,745.882902849,None,745.882902849,None,7.0,3.0130578640382737,745.882902849,None,745.882902849,None,7.0,3.935013982001692,748.4345260970294,None,745.882902849,None,6.0,5.640868108021095,749.3675851550652,None,745.882902849,None,space,1.0642533090431243,5.667727825581096,None,745.882902849,None,745.882902849,None,,,,,,,,,1,2022_Apr_01_1317,SAR-soap,2021.1.2,60.00827312906842,
55,Trial # 51,Group1-stimuli/group1-block1/real-group1-b1/Group1_IMG_0053.jpg,1,Group1_IMG_0053.jpg,,,,,0.0,50.0,50.0,50.0,,,,,,,,,,,,,,,,,,,,,,,,,,,,,,,,,,,,,752.6681439359672,None,752.6681439359672,None,752.6681439359672,None,1.0,2.007129800971597,752.6681439359672,None,752.6681439359672,None,1.0,2.6286290920106694,754.2193063430022,None,752.6681439359672,None,1.0,3.966958574019373,754.8525407629786,None,752.6681439359672,None,space,0.2029108370188623,3.988761118147522,None,752.6681439359672,None,752.6681439359672,None,,,,,,,,,1,2022_Apr_01_1317,SAR-soap,2021.1.2,60.00827312906842,
56,Trial # 52,Group1-stimuli/group1-block1/real-group1-b1/Group1_IMG_9698.jpg,1,Group1_IMG_9698.jpg,,,,,0.0,51.0,51.0,51.0,,,,,,,,,,,,,,,,,,,,,,,,,,,,,,,,,,,,,756.9196047349833,None,756.9196047349833,None,756.9196047349833,None,1.0,1.948978387983516,756.9196047349833,None,756.9196047349833,None,1.0,2.803692950052209,758.4212918910198,None,756.9196047349833,None,1.0,3.676426299032755,759.2879673340358,None,756.9196047349833,None,space,0.9705005979631096,3.703810236300342,None,756.9196047349833,None,756.9196047349833,None,,,,,,,,,1,2022_Apr_01_1317,SAR-soap,2021.1.2,60.00827312906842,
57,Trial # 53,Group1-stimuli/group1-block1/fake-group2-b1/encoded_Group2_IMG_0553.jpg,0,encoded_Group2_IMG_0553.jpg,,,,,0.0,52.0,52.0,52.0,,,,,,,,,,,,,,,,,,,,,,,,,,,,,,,,,,,,,761.6379264909774,None,761.6379264909774,None,761.6379264909774,None,1.0,1.8321326209697872,761.6379264909774,None,761.6379264909774,None,1.0,2.5222548480378464,763.0219072010368,None,761.6379264909774,None,1.0,3.1601705299690366,763.7219020799967,None,761.6379264909774,None,space,0.4173793030204251,3.18961570749525,None,761.6379264909774,None,761.6379264909774,None,,,,,,,,,1,2022_Apr_01_1317,SAR-soap,2021.1.2,60.00827312906842,
58,Trial # 54,Group1-stimuli/group1-block1/fake-group2-b1/encoded_Group2_IMG_9758.jpg,0,encoded_Group2_IMG_9758.jpg,,,,,0.0,53.0,53.0,53.0,,,,,,,,,,,,,,,,,,,,,,,,,,,,,,,,,,,,,765.2722102910047,None,765.2722102910047,None,765.2722102910047,None,6.0,9.815608614007942,765.2722102910047,None,765.2722102910047,None,6.0,10.938463960075753,774.6428106749663,None,765.2722102910047,None,7.0,12.478259293944577,775.7756228409708,None,765.2722102910047,None,space,0.2639287959318608,12.505692540667953,None,765.2722102910047,None,765.2722102910047,None,,,,,,,,,1,2022_Apr_01_1317,SAR-soap,2021.1.2,60.00827312906842,
59,Trial # 55,Group1-stimuli/group1-block1/fake-group2-b1/encoded_Group2_IMG_0339.jpg,0,encoded_Group2_IMG_0339.jpg,,,,,0.0,54.0,54.0,54.0,,,,,,,,,,,,,,,,,,,,,,,,,,,,,,,,,,,,,778.059013311984,None,778.059013311984,None,778.059013311984,None,1.0,2.448388035991229,778.059013311984,None,778.059013311984,None,1.0,3.738083651987836,780.061469043023,None,778.059013311984,None,1.0,4.543436013045721,781.3605874830391,None,778.059013311984,None,space,0.2760329049779102,4.5726454014657065,None,778.059013311984,None,778.059013311984,None,,,,,,,,,1,2022_Apr_01_1317,SAR-soap,2021.1.2,60.00827312906842,
60,Trial # 56,Group1-stimuli/group1-block1/real-group1-b1/Group1_IMG_0314.jpg,1,Group1_IMG_0314.jpg,,,,,0.0,55.0,55.0,55.0,,,,,,,,,,,,,,,,,,,,,,,,,,,,,,,,,,,,,782.9611602670047,None,782.9611602670047,None,782.9611602670047,None,1.0,1.7778680949704722,782.9611602670047,None,782.9611602670047,None,1.0,2.5348071670159698,784.2785137089668,None,782.9611602670047,None,1.0,3.2406694190576677,785.0456822230481,None,782.9611602670047,None,space,0.2279189500259235,3.265154942637309,None,782.9611602670047,None,782.9611602670047,None,,,,,,,,,1,2022_Apr_01_1317,SAR-soap,2021.1.2,60.00827312906842,
61,Trial # 57,Group1-stimuli/group1-block1/fake-group2-b1/encoded_Group2_IMG_0532.jpg,0,encoded_Group2_IMG_0532.jpg,,,,,0.0,56.0,56.0,56.0,,,,,,,,,,,,,,,,,,,,,,,,,,,,,,,,,,,,,786.4619512449717,None,786.4619512449717,None,786.4619512449717,None,5.0,4.5319817090639845,786.4619512449717,None,786.4619512449717,None,4.0,12.823497729026712,790.5470986689907,None,786.4619512449717,None,6.0,14.063191128894688,798.8504483860452,None,786.4619512449717,None,space,-11.82221822498832,14.091704948572442,None,786.4619512449717,None,786.4619512449717,None,,,,,,,,,1,2022_Apr_01_1317,SAR-soap,2021.1.2,60.00827312906842,
62,Trial # 58,Group1-stimuli/group1-block1/fake-group2-b1/encoded_Group2_IMG_0462.jpg,0,encoded_Group2_IMG_0462.jpg,,,,,0.0,57.0,57.0,57.0,,,,,,,,,,,,,,,,,,,,,,,,,,,,,,,,,,,,,800.5673647730146,None,800.5673647730146,None,800.5673647730146,None,6.0,5.231646252912469,800.5673647730146,None,800.5673647730146,None,5.0,6.120688238996081,805.3520916280104,None,800.5673647730146,None,6.0,6.993171681999229,806.2512910639634,None,800.5673647730146,None,space,0.2946519489632919,7.021665341570042,None,800.5673647730146,None,800.5673647730146,None,,,,,,,,,1,2022_Apr_01_1317,SAR-soap,2021.1.2,60.00827312906842,
63,Trial # 59,Group1-stimuli/group1-block1/real-group1-b1/Group1_IMG_0172.jpg,1,Group1_IMG_0172.jpg,,,,,0.0,58.0,58.0,58.0,,,,,,,,,,,,,,,,,,,,,,,,,,,,,,,,,,,,,807.901509784977,None,807.901509784977,None,807.901509784977,None,2.0,1.9465928350109607,807.901509784977,None,807.901509784977,None,1.0,2.935747040086426,809.4037124880124,None,807.901509784977,None,1.0,3.6079763000598177,810.4035700119566,None,807.901509784977,None,space,0.4543599979951978,3.6343101415550336,None,807.901509784977,None,807.901509784977,None,,,,,,,,,1,2022_Apr_01_1317,SAR-soap,2021.1.2,60.00827312906842,
64,Trial # 60,Group1-stimuli/group1-block1/real-group1-b1/Group1_IMG_4841.jpg,1,Group1_IMG_4841.jpg,,,,,0.0,59.0,59.0,59.0,,,,,,,,,,,,,,,,,,,,,,,,,,,,,,,,,,,,,812.0371020530583,None,812.0371020530583,None,812.0371020530583,None,6.0,6.396462911972776,812.0371020530583,None,812.0371020530583,None,6.0,9.069570888997989,816.5213198800338,None,812.0371020530583,None,7.0,10.675620177993553,820.6558253080584,None,812.0371020530583,None,space,0.2851929569151252,10.701640385668725,None,812.0371020530583,None,812.0371020530583,None,,,,,,,,,1,2022_Apr_01_1317,SAR-soap,2021.1.2,60.00827312906842,
65,Trial # 61,Group1-stimuli/group1-block1/fake-group2-b1/encoded_Group2_IMG_0352.jpg,0,encoded_Group2_IMG_0352.jpg,,,,,0.0,60.0,60.0,60.0,,,,,,,,,,,,,,,,,,,,,,,,,,,,,,,,,,,,,823.040092054056,None,823.040092054056,None,823.040092054056,None,1.0,16.653851923998445,823.040092054056,None,823.040092054056,None,1.0,17.609672612976283,839.2460001900326,None,823.040092054056,None,1.0,18.28045690304134,840.2133131760638,None,823.040092054056,None,space,0.8942479679826647,18.311327340546995,None,823.040092054056,None,823.040092054056,None,,,,,,,,,1,2022_Apr_01_1317,SAR-soap,2021.1.2,60.00827312906842,
66,Trial # 62,Group1-stimuli/group1-block1/fake-group2-b1/encoded_Group2_IMG_9726.jpg,0,encoded_Group2_IMG_9726.jpg,,,,,0.0,61.0,61.0,61.0,,,,,,,,,,,,,,,,,,,,,,,,,,,,,,,,,,,,,842.2624383369694,None,842.2624383369694,None,842.2624383369694,None,6.0,2.914778806967661,842.2624383369694,None,842.2624383369694,None,6.0,4.553007801994681,844.7313019359717,None,842.2624383369694,None,6.0,6.259398526977748,846.3807199459989,None,842.2624383369694,None,space,0.3079380560666322,6.287511950591579,None,842.2624383369694,None,842.2624383369694,None,,,,,,,,,1,2022_Apr_01_1317,SAR-soap,2021.1.2,60.00827312906842,
67,Trial # 63,Group1-stimuli/group1-block1/fake-group2-b1/encoded_Group2_IMG_9785.jpg,0,encoded_Group2_IMG_9785.jpg,,,,,0.0,62.0,62.0,62.0,,,,,,,,,,,,,,,,,,,,,,,,,,,,,,,,,,,,,848.8993595630163,None,848.8993595630163,None,848.8993595630163,None,6.0,3.146474553039297,848.8993595630163,None,848.8993595630163,None,4.0,6.004251609905623,851.6000486980192,None,848.8993595630163,None,5.0,7.875315857003443,852.4326794260414,None,848.8993595630163,None,space,0.5267865379573777,7.904562423704192,None,848.8993595630163,None,848.8993595630163,None,,,,,,,,,1,2022_Apr_01_1317,SAR-soap,2021.1.2,60.00827312906842,
68,Trial # 64,Group1-stimuli/group1-block1/fake-group2-b1/encoded_Group2_IMG_0440.jpg,0,encoded_Group2_IMG_0440.jpg,,,,,0.0,63.0,63.0,63.0,,,,,,,,,,,,,,,,,,,,,,,,,,,,,,,,,,,,,857.350722135976,None,857.350722135976,None,857.350722135976,None,6.0,2.898326216032729,857.350722135976,None,857.350722135976,None,6.0,4.320581860956736,859.802114118007,None,857.350722135976,None,5.0,6.594911353080533,861.235473615001,None,857.350722135976,None,space,0.4292594289872795,6.623990399530157,None,857.350722135976,None,857.350722135976,None,,,,,,,,,1,2022_Apr_01_1317,SAR-soap,2021.1.2,60.00827312906842,
69,Trial # 65,Group1-stimuli/group1-block1/fake-group2-b1/encoded_Group2_IMG_1695.jpg,0,encoded_Group2_IMG_1695.jpg,,,,,0.0,64.0,64.0,64.0,,,,,,,,,,,,,,,,,,,,,,,,,,,,,,,,,,,,,864.4199072719784,None,864.4199072719784,None,864.4199072719784,None,1.0,2.362525557982736,864.4199072719784,None,864.4199072719784,None,1.0,3.0852527290117,866.3378115959931,None,864.4199072719784,None,1.0,3.9918457160238177,867.0704566000495,None,864.4199072719784,None,space,1.698453118908219,4.0194653775542974,None,864.4199072719784,None,864.4199072719784,None,,,,,,,,,1,2022_Apr_01_1317,SAR-soap,2021.1.2,60.00827312906842,
70,Trial # 66,Group1-stimuli/group1-block1/real-group1-b1/Group1_IMG_0552.jpg,1,Group1_IMG_0552.jpg,,,,,0.0,65.0,65.0,65.0,,,,,,,,,,,,,,,,,,,,,,,,,,,,,,,,,,,,,870.1712473309599,None,870.1712473309599,None,870.1712473309599,None,1.0,2.1281364660244435,870.1712473309599,None,870.1712473309599,None,1.0,2.7508324939990416,871.8384244079934,None,870.1712473309599,None,1.0,3.8238748849835247,872.4720806400292,None,870.1712473309599,None,space,0.1616878600325435,3.848839070647955,None,870.1712473309599,None,870.1712473309599,None,,,,,,,,,1,2022_Apr_01_1317,SAR-soap,2021.1.2,60.00827312906842,
71,Trial # 67,Group1-stimuli/group1-block1/real-group1-b1/Group1_IMG_1029.jpg,1,Group1_IMG_1029.jpg,,,,,0.0,66.0,66.0,66.0,,,,,,,,,,,,,,,,,,,,,,,,,,,,,,,,,,,,,874.2062127670506,None,874.2062127670506,None,874.2062127670506,None,6.0,2.928441062103957,874.2062127670506,None,874.2062127670506,None,5.0,19.9907118199626,876.673793966067,None,874.2062127670506,None,5.0,18.760055974009447,889.5785355350235,None,874.2062127670506,None,space,1.765667716041207,18.786482139490545,None,874.2062127670506,None,874.2062127670506,None,,,,,,,,,1,2022_Apr_01_1317,SAR-soap,2021.1.2,60.00827312906842,
72,Trial # 68,Group1-stimuli/group1-block1/fake-group2-b1/encoded_Group2_IMG_6517.jpg,0,encoded_Group2_IMG_6517.jpg,,,,,0.0,67.0,67.0,67.0,,,,,,,,,,,,,,,,,,,,,,,,,,,,,,,,,,,,,894.7624267230276,None,894.7624267230276,None,894.7624267230276,None,1.0,2.330301586072892,894.7624267230276,None,894.7624267230276,None,1.0,2.8526657570619136,896.6464129630476,None,894.7624267230276,None,1.0,3.491940670995973,897.1793079980416,None,894.7624267230276,None,space,0.3116354929516092,3.520285553648137,None,894.7624267230276,None,894.7624267230276,None,,,,,,,,,1,2022_Apr_01_1317,SAR-soap,2021.1.2,60.00827312906842,
73,Trial # 69,Group1-stimuli/group1-block1/fake-group2-b1/encoded_Group2_IMG_0002.jpg,0,encoded_Group2_IMG_0002.jpg,,,,,0.0,68.0,68.0,68.0,,,,,,,,,,,,,,,,,,,,,,,,,,,,,,,,,,,,,898.6302026300691,None,898.6302026300691,None,898.6302026300691,None,6.0,1.881651637959294,898.6302026300691,None,898.6302026300691,None,5.0,4.238160134991631,900.065363436006,None,898.6302026300691,None,5.0,5.677787407999858,902.4317277310184,None,898.6302026300691,None,space,0.2520185830071568,5.705619111540727,None,898.6302026300691,None,898.6302026300691,None,,,,,,,,,1,2022_Apr_01_1317,SAR-soap,2021.1.2,60.00827312906842,
74,Trial # 70,Group1-stimuli/group1-block1/real-group1-b1/Group1_IMG_0495.jpg,1,Group1_IMG_0495.jpg,,,,,0.0,69.0,69.0,69.0,,,,,,,,,,,,,,,,,,,,,,,,,,,,,,,,,,,,,904.616376616992,None,904.616376616992,None,904.616376616992,None,1.0,1.9618090679869056,904.616376616992,None,904.616376616992,None,1.0,2.5170776890590787,906.1323800310493,None,904.616376616992,None,1.0,3.390410915017128,906.6999441389926,None,904.616376616992,None,space,0.1754481029929593,3.41638251056429,None,904.616376616992,None,904.616376616992,None,,,,,,,,,1,2022_Apr_01_1317,SAR-soap,2021.1.2,60.00827312906842,
75,Trial # 71,Group1-stimuli/group1-block1/real-group1-b1/Group1_IMG_1391.jpg,1,Group1_IMG_1391.jpg,,,,,0.0,70.0,70.0,70.0,,,,,,,,,,,,,,,,,,,,,,,,,,,,,,,,,,,,,908.250482170959,None,908.250482170959,None,908.250482170959,None,6.0,3.745797437033616,908.250482170959,None,908.250482170959,None,4.0,6.236855585011654,911.5506456260337,None,908.250482170959,None,6.0,8.94247421505861,914.0524615329924,None,908.250482170959,None,space,0.1166312660789117,8.967800753656775,None,908.250482170959,None,908.250482170959,None,,,,,,,,,1,2022_Apr_01_1317,SAR-soap,2021.1.2,60.00827312906842,
76,Trial # 72,Group1-stimuli/group1-block1/real-group1-b1/Group1_IMG_0343.jpg,1,Group1_IMG_0343.jpg,,,,,0.0,71.0,71.0,71.0,,,,,,,,,,,,,,,,,,,,,,,,,,,,,,,,,,,,,917.3859300370096,None,917.3859300370096,None,917.3859300370096,None,2.0,5.146466506063007,917.3859300370096,None,917.3859300370096,None,1.0,3.085523421992548,919.354177535046,None,917.3859300370096,None,1.0,4.457335031009279,920.0202666079858,None,917.3859300370096,None,space,0.8819193070521578,4.4829901196062565,None,917.3859300370096,None,917.3859300370096,None,,,,,,,,,1,2022_Apr_01_1317,SAR-soap,2021.1.2,60.00827312906842,
77,Trial # 73,Group1-stimuli/group1-block1/fake-group2-b1/encoded_Group2_IMG_9810.jpg,0,encoded_Group2_IMG_9810.jpg,,,,,0.0,72.0,72.0,72.0,,,,,,,,,,,,,,,,,,,,,,,,,,,,,,,,,,,,,922.770771902986,None,922.770771902986,None,922.770771902986,None,1.0,1.698856356088072,922.770771902986,None,922.770771902986,None,1.0,2.353952683042735,924.0223290580324,None,922.770771902986,None,1.0,3.9266838850453496,924.6888989809668,None,922.770771902986,None,space,0.4375837410334497,3.9548541845288128,None,922.770771902986,None,922.770771902986,None,,,,,,,,,1,2022_Apr_01_1317,SAR-soap,2021.1.2,60.00827312906842,
78,Trial # 74,Group1-stimuli/group1-block1/fake-group2-b1/encoded_Group2_IMG_5900.jpg,0,encoded_Group2_IMG_5900.jpg,,,,,0.0,73.0,73.0,73.0,,,,,,,,,,,,,,,,,,,,,,,,,,,,,,,,,,,,,927.2222458890174,None,927.2222458890174,None,927.2222458890174,None,1.0,2.278394723078236,927.2222458890174,None,927.2222458890174,None,1.0,3.002289769006893,929.0404247060652,None,927.2222458890174,None,1.0,3.972486548940651,929.774185249,None,927.2222458890174,None,space,0.200396366068162,3.9975813305936754,None,927.2222458890174,None,927.2222458890174,None,,,,,,,,,1,2022_Apr_01_1317,SAR-soap,2021.1.2,60.00827312906842,
79,Trial # 75,Group1-stimuli/group1-block1/real-group1-b1/Group1_IMG_9679.jpg,1,Group1_IMG_9679.jpg,,,,,0.0,74.0,74.0,74.0,,,,,,,,,,,,,,,,,,,,,,,,,,,,,,,,,,,,,931.4573632529936,None,931.4573632529936,None,931.4573632529936,None,1.0,6.246051196008921,931.4573632529936,None,931.4573632529936,None,1.0,6.834861873998307,937.2591657000594,None,931.4573632529936,None,1.0,7.542082751053385,937.8582288039617,None,931.4573632529936,None,space,0.2531728140311315,7.568419694551267,None,931.4573632529936,None,931.4573632529936,None,,,,,,,,,1,2022_Apr_01_1317,SAR-soap,2021.1.2,60.00827312906842,
80,Trial # 76,Group1-stimuli/group1-block1/fake-group2-b1/encoded_Group2_IMG_4249.jpg,0,encoded_Group2_IMG_4249.jpg,,,,,0.0,75.0,75.0,75.0,,,,,,,,,,,,,,,,,,,,,,,,,,,,,,,,,,,,,939.3101554850582,None,939.3101554850582,None,939.3101554850582,None,5.0,3.4645253070630133,939.3101554850582,None,939.3101554850582,None,5.0,5.654351013945416,942.326886221068,None,939.3101554850582,None,5.0,7.05933965893928,944.5277280199808,None,939.3101554850582,None,space,0.8933123910101131,7.089111083652824,None,939.3101554850582,None,939.3101554850582,None,,,,,,,,,1,2022_Apr_01_1317,SAR-soap,2021.1.2,60.00827312906842,
81,Trial # 77,Group1-stimuli/group1-block1/fake-group2-b1/encoded_Group2_IMG_0174.jpg,0,encoded_Group2_IMG_0174.jpg,,,,,0.0,76.0,76.0,76.0,,,,,,,,,,,,,,,,,,,,,,,,,,,,,,,,,,,,,947.3113701819676,None,947.3113701819676,None,947.3113701819676,None,2.0,3.265523379086517,947.3113701819676,None,947.3113701819676,None,1.0,4.754327444941737,950.1307679209858,None,947.3113701819676,None,2.0,10.795414439053276,951.6304028839804,None,947.3113701819676,None,space,1.2445950410328803,10.824040740611965,None,947.3113701819676,None,947.3113701819676,None,,,,,,,,,1,2022_Apr_01_1317,SAR-soap,2021.1.2,60.00827312906842,
82,Trial # 78,Group1-stimuli/group1-block1/fake-group2-b1/encoded_Group2_IMG_0475.jpg,0,encoded_Group2_IMG_0475.jpg,,,,,0.0,77.0,77.0,77.0,,,,,,,,,,,,,,,,,,,,,,,,,,,,,,,,,,,,,959.416225456982,None,959.416225456982,None,959.416225456982,None,1.0,2.514825513935648,959.416225456982,None,959.416225456982,None,1.0,3.0708483839407563,961.482841646066,None,959.416225456982,None,1.0,3.775943114073016,962.049439726048,None,959.416225456982,None,space,1.0550372659927234,3.80605465953704,None,959.416225456982,None,959.416225456982,None,,,,,,,,,1,2022_Apr_01_1317,SAR-soap,2021.1.2,60.00827312906842,
83,Trial # 79,Group1-stimuli/group1-block1/fake-group2-b1/encoded_Group2_IMG_9751.jpg,0,encoded_Group2_IMG_9751.jpg,,,,,0.0,78.0,78.0,78.0,,,,,,,,,,,,,,,,,,,,,,,,,,,,,,,,,,,,,964.3015739920083,None,964.3015739920083,None,964.3015739920083,None,5.0,2.364823902025819,964.3015739920083,None,964.3015739920083,None,4.0,3.421012034988962,966.218051961041,None,964.3015739920083,None,5.0,4.694754854077473,967.2846649059792,None,964.3015739920083,None,space,0.7165987530024722,4.722457373631187,None,964.3015739920083,None,964.3015739920083,None,,,,,,,,,1,2022_Apr_01_1317,SAR-soap,2021.1.2,60.00827312906842,
84,Trial # 80,Group1-stimuli/group1-block1/fake-group2-b1/encoded_Group2_IMG_0492.jpg,0,encoded_Group2_IMG_0492.jpg,,,,,0.0,79.0,79.0,79.0,,,,,,,,,,,,,,,,,,,,,,,,,,,,,,,,,,,,,969.769996449002,None,969.769996449002,None,969.769996449002,None,1.0,2.548532995977439,969.769996449002,None,969.769996449002,None,1.0,3.1709985740017146,971.8702427879908,None,969.769996449002,None,1.0,3.743217676063068,972.5022717680548,None,969.769996449002,None,space,0.727695454028435,3.7712515485472977,None,969.769996449002,None,969.769996449002,None,,,,,,,,,1,2022_Apr_01_1317,SAR-soap,2021.1.2,60.00827312906842,
85,Trial # 81,Group1-stimuli/group1-block1/real-group1-b1/Group1_IMG_0535.jpg,1,Group1_IMG_0535.jpg,,,,,0.0,80.0,80.0,80.0,,,,,,,,,,,,,,,,,,,,,,,,,,,,,,,,,,,,,974.2873914280208,None,974.2873914280208,None,974.2873914280208,None,2.0,6.713946491014212,974.2873914280208,None,974.2873914280208,None,1.0,7.518755018012598,979.6399747170508,None,974.2873914280208,None,1.0,8.458158810972236,981.3723377269926,None,974.2873914280208,None,space,2.4034600249724463,8.483779845642857,None,974.2873914280208,None,974.2873914280208,None,,,,,,,,,1,2022_Apr_01_1317,SAR-soap,2021.1.2,60.00827312906842,
86,Trial # 82,Group1-stimuli/group1-block1/real-group1-b1/Group1_IMG_0077.jpg,1,Group1_IMG_0077.jpg,,,,,0.0,81.0,81.0,81.0,,,,,,,,,,,,,,,,,,,,,,,,,,,,,,,,,,,,,985.2407266970258,None,985.2407266970258,None,985.2407266970258,None,6.0,9.76331133802887,985.2407266970258,None,985.2407266970258,None,5.0,11.785314281005412,994.5436308670324,None,985.2407266970258,None,7.0,13.158336778986268,996.5772328909952,None,985.2407266970258,None,space,2.8533767729531974,13.18333794164937,None,985.2407266970258,None,985.2407266970258,None,,,,,,,,,1,2022_Apr_01_1317,SAR-soap,2021.1.2,60.00827312906842,
87,Trial # 83,Group1-stimuli/group1-block1/fake-group2-b1/encoded_Group2_IMG_9702.jpg,0,encoded_Group2_IMG_9702.jpg,,,,,0.0,82.0,82.0,82.0,,,,,,,,,,,,,,,,,,,,,,,,,,,,,,,,,,,,,1001.2954091109568,None,1001.2954091109568,None,1001.2954091109568,None,2.0,4.483172390027903,1001.2954091109568,None,1001.2954091109568,None,1.0,3.4885543200653046,1003.4800804239932,None,1001.2954091109568,None,1.0,5.161226805998012,1004.3472215509972,None,1001.2954091109568,None,space,1.263549079070799,5.190693147480488,None,1001.2954091109568,None,1001.2954091109568,None,,,,,,,,,1,2022_Apr_01_1317,SAR-soap,2021.1.2,60.00827312906842,
88,Trial # 84,Group1-stimuli/group1-block1/real-group1-b1/Group1_IMG_0357.jpg,1,Group1_IMG_0357.jpg,,,,,0.0,83.0,83.0,83.0,,,,,,,,,,,,,,,,,,,,,,,,,,,,,,,,,,,,,1007.7636533799814,None,1007.7636533799814,None,1007.7636533799814,None,1.0,2.8627984899794683,1007.7636533799814,None,1007.7636533799814,None,1.0,3.7025003529852256,1010.1818563720444,None,1007.7636533799814,None,1.0,5.040195567999035,1011.0315009349724,None,1007.7636533799814,None,space,2.527822806034237,5.068467671633698,None,1007.7636533799814,None,1007.7636533799814,None,,,,,,,,,1,2022_Apr_01_1317,SAR-soap,2021.1.2,60.00827312906842,
89,Trial # 85,Group1-stimuli/group1-block1/real-group1-b1/Group1_IMG_9772.jpg,1,Group1_IMG_9772.jpg,,,,,0.0,84.0,84.0,84.0,,,,,,,,,,,,,,,,,,,,,,,,,,,,,,,,,,,,,1015.4001922300084,None,1015.4001922300084,None,1015.4001922300084,None,6.0,3.061289336998016,1015.4001922300084,None,1015.4001922300084,None,5.0,4.051383390906267,1017.999868361978,None,1015.4001922300084,None,6.0,5.023204125929624,1019.0018728970316,None,1015.4001922300084,None,space,0.7324046189896762,5.050427753594704,None,1015.4001922300084,None,1015.4001922300084,None,,,,,,,,,1,2022_Apr_01_1317,SAR-soap,2021.1.2,60.00827312906842,
90,Trial # 86,Group1-stimuli/group1-block1/real-group1-b1/Group1_IMG_0482.jpg,1,Group1_IMG_0482.jpg,,,,,0.0,85.0,85.0,85.0,,,,,,,,,,,,,,,,,,,,,,,,,,,,,,,,,,,,,1021.2342144059947,None,1021.2342144059947,None,1021.2342144059947,None,1.0,3.311081771971658,1021.2342144059947,None,1021.2342144059947,None,1.0,4.100176264997572,1024.0863006419968,None,1021.2342144059947,None,1.0,4.739463294041343,1024.8855691640638,None,1021.2342144059947,None,space,0.9812785140238702,4.764924216666259,None,1021.2342144059947,None,1021.2342144059947,None,,,,,,,,,1,2022_Apr_01_1317,SAR-soap,2021.1.2,60.00827312906842,
91,Trial # 87,Group1-stimuli/group1-block1/real-group1-b1/Group1_IMG_0299.jpg,1,Group1_IMG_0299.jpg,,,,,0.0,86.0,86.0,86.0,,,,,,,,,,,,,,,,,,,,,,,,,,,,,,,,,,,,,1027.0033131330274,None,1027.0033131330274,None,1027.0033131330274,None,6.0,2.997107982053421,1027.0033131330274,None,1027.0033131330274,None,6.0,6.987220525043085,1029.5555726300229,None,1027.0033131330274,None,6.0,9.026373990927825,1033.5559729790548,None,1027.0033131330274,None,space,1.7125058299861848,9.052234736620449,None,1027.0033131330274,None,1027.0033131330274,None,,,,,,,,,1,2022_Apr_01_1317,SAR-soap,2021.1.2,60.00827312906842,
92,Trial # 88,Group1-stimuli/group1-block1/fake-group2-b1/encoded_Group2_IMG_0301.jpg,0,encoded_Group2_IMG_0301.jpg,,,,,0.0,87.0,87.0,87.0,,,,,,,,,,,,,,,,,,,,,,,,,,,,,,,,,,,,,1037.8068285039626,None,1037.8068285039626,None,1037.8068285039626,None,6.0,2.2658075540093705,1037.8068285039626,None,1037.8068285039626,None,6.0,3.28723089909181,1039.6246810259763,None,1037.8068285039626,None,6.0,5.360604764078744,1040.6570302209584,None,1037.8068285039626,None,space,1.3850886020809412,5.388604832696728,None,1037.8068285039626,None,1037.8068285039626,None,,,,,,,,,1,2022_Apr_01_1317,SAR-soap,2021.1.2,60.00827312906842,
93,Trial # 89,Group1-stimuli/group1-block1/fake-group2-b1/encoded_Group2_IMG_5136.jpg,0,encoded_Group2_IMG_5136.jpg,,,,,0.0,88.0,88.0,88.0,,,,,,,,,,,,,,,,,,,,,,,,,,,,,,,,,,,,,1044.6086690729717,None,1044.6086690729717,None,1044.6086690729717,None,6.0,3.597767919069156,1044.6086690729717,None,1044.6086690729717,None,5.0,4.587704458041117,1047.7602578550575,None,1044.6086690729717,None,7.0,5.858643408981152,1048.7598130230326,None,1044.6086690729717,None,space,1.121494160965085,5.890026464592665,None,1044.6086690729717,None,1044.6086690729717,None,,,,,,,,,1,2022_Apr_01_1317,SAR-soap,2021.1.2,60.00827312906842,
94,Trial # 90,Group1-stimuli/group1-block1/real-group1-b1/Group1_IMG_0460.jpg,1,Group1_IMG_0460.jpg,,,,,0.0,89.0,89.0,89.0,,,,,,,,,,,,,,,,,,,,,,,,,,,,,,,,,,,,,1051.6435368079692,None,1051.6435368079692,None,1051.6435368079692,None,6.0,15.350139556918291,1051.6435368079692,None,1051.6435368079692,None,5.0,16.239414702053182,1066.5487764930583,None,1051.6435368079692,None,6.0,17.978246707003564,1067.4490999289555,None,1051.6435368079692,None,space,0.7102100319461897,18.005592038622126,None,1051.6435368079692,None,1051.6435368079692,None,,,,,,,,,1,2022_Apr_01_1317,SAR-soap,2021.1.2,60.00827312906842,
95,Trial # 91,Group1-stimuli/group1-block1/fake-group2-b1/encoded_Group2_IMG_0068.jpg,0,encoded_Group2_IMG_0068.jpg,,,,,0.0,90.0,90.0,90.0,,,,,,,,,,,,,,,,,,,,,,,,,,,,,,,,,,,,,1070.4002791770035,None,1070.4002791770035,None,1070.4002791770035,None,6.0,2.947302341926843,1070.4002791770035,None,1070.4002791770035,None,5.0,4.637816670932807,1072.9009037240176,None,1070.4002791770035,None,6.0,5.776272094924934,1074.6019657059803,None,1070.4002791770035,None,space,1.1097484329948202,5.805438653565943,None,1070.4002791770035,None,1070.4002791770035,None,,,,,,,,,1,2022_Apr_01_1317,SAR-soap,2021.1.2,60.00827312906842,
96,Trial # 92,Group1-stimuli/group1-block1/real-group1-b1/Group1_IMG_0337.jpg,1,Group1_IMG_0337.jpg,,,,,0.0,91.0,91.0,91.0,,,,,,,,,,,,,,,,,,,,,,,,,,,,,,,,,,,,,1077.3512511249864,None,1077.3512511249864,None,1077.3512511249864,None,2.0,2.296724902931601,1077.3512511249864,None,1077.3512511249864,None,1.0,2.9856068789958954,1079.2034806800075,None,1077.3512511249864,None,1.0,3.5916893900139257,1079.9027900389628,None,1077.3512511249864,None,space,0.8216605439083651,3.6183526526438072,None,1077.3512511249864,None,1077.3512511249864,None,,,,,,,,,1,2022_Apr_01_1317,SAR-soap,2021.1.2,60.00827312906842,
97,Trial # 93,Group1-stimuli/group1-block1/fake-group2-b1/encoded_Group2_IMG_0346.jpg,0,encoded_Group2_IMG_0346.jpg,,,,,0.0,92.0,92.0,92.0,,,,,,,,,,,,,,,,,,,,,,,,,,,,,,,,,,,,,1081.8197315289872,None,1081.8197315289872,None,1081.8197315289872,None,2.0,2.1653306749649346,1081.8197315289872,None,1081.8197315289872,None,1.0,2.8209763600025326,1083.538791936007,None,1081.8197315289872,None,1.0,3.491444783983752,1084.2051999709802,None,1081.8197315289872,None,space,0.6048249499872327,3.523013061610982,None,1081.8197315289872,None,1081.8197315289872,None,,,,,,,,,1,2022_Apr_01_1317,SAR-soap,2021.1.2,60.00827312906842,
98,Trial # 94,Group1-stimuli/group1-block1/real-group1-b1/Group1_IMG_4253.jpg,1,Group1_IMG_4253.jpg,,,,,0.0,93.0,93.0,93.0,,,,,,,,,,,,,,,,,,,,,,,,,,,,,,,,,,,,,1085.987925147987,None,1085.987925147987,None,1085.987925147987,None,6.0,2.695027597947046,1085.987925147987,None,1085.987925147987,None,5.0,3.518290752079338,1088.240256348974,None,1085.987925147987,None,6.0,4.256974342977628,1089.0734199279686,None,1085.987925147987,None,space,0.9425317880231888,4.283814995549619,None,1085.987925147987,None,1085.987925147987,None,,,,,,,,,1,2022_Apr_01_1317,SAR-soap,2021.1.2,60.00827312906842,
99,Trial # 95,Group1-stimuli/group1-block1/fake-group2-b1/encoded_Group2_IMG_9280.jpg,0,encoded_Group2_IMG_9280.jpg,,,,,0.0,94.0,94.0,94.0,,,,,,,,,,,,,,,,,,,,,,,,,,,,,,,,,,,,,1091.2561403040309,None,1091.2561403040309,None,1091.2561403040309,None,6.0,2.4317343319999054,1091.2561403040309,None,1091.2561403040309,None,5.0,3.2880316670052707,1093.241400012048,None,1091.2561403040309,None,7.0,5.260781776974909,1094.108102933038,None,1091.2561403040309,None,space,0.7867812420008704,5.289455689606257,None,1091.2561403040309,None,1091.2561403040309,None,,,,,,,,,1,2022_Apr_01_1317,SAR-soap,2021.1.2,60.00827312906842,
100,Trial # 96,Group1-stimuli/group1-block1/real-group1-b1/Group1_IMG_0417.jpg,1,Group1_IMG_0417.jpg,,,,,0.0,95.0,95.0,95.0,,,,,,,,,,,,,,,,,,,,,,,,,,,,,,,,,,,,,1097.3583387860565,None,1097.3583387860565,None,1097.3583387860565,None,5.0,5.079757085070014,1097.3583387860565,None,1097.3583387860565,None,3.0,6.719902344048023,1100.3766122050583,None,1097.3583387860565,None,4.0,9.225159157067536,1102.776856441982,None,1097.3583387860565,None,space,0.9010038659907876,9.25244335772004,None,1097.3583387860565,None,1097.3583387860565,None,,,,,,,,,1,2022_Apr_01_1317,SAR-soap,2021.1.2,60.00827312906842,
101,Trial # 97,Group1-stimuli/group1-block1/fake-group2-b1/encoded_Group2_IMG_9695.jpg,0,encoded_Group2_IMG_9695.jpg,,,,,0.0,96.0,96.0,96.0,,,,,,,,,,,,,,,,,,,,,,,,,,,,,,,,,,,,,1107.593853797065,None,1107.593853797065,None,1107.593853797065,None,1.0,2.612534525920637,1107.593853797065,None,1107.593853797065,None,1.0,3.2029501689830795,1109.745502001024,None,1107.593853797065,None,1.0,3.973229166003875,1110.3458082909929,None,1107.593853797065,None,space,1.1320077639538797,4.000240592402406,None,1107.593853797065,None,1107.593853797065,None,,,,,,,,,1,2022_Apr_01_1317,SAR-soap,2021.1.2,60.00827312906842,
102,Trial # 98,Group1-stimuli/group1-block1/real-group1-b1/Group1_IMG_1160.jpg,1,Group1_IMG_1160.jpg,,,,,0.0,97.0,97.0,97.0,,,,,,,,,,,,,,,,,,,,,,,,,,,,,,,,,,,,,1112.7458907490363,None,1112.7458907490363,None,1112.7458907490363,None,6.0,2.094579578959383,1112.7458907490363,None,1112.7458907490363,None,4.0,6.585048668086529,1114.3814872320509,None,1112.7458907490363,None,5.0,7.323950705002062,1118.881847686018,None,1112.7458907490363,None,space,1.2130965419346469,7.349155169562437,None,1112.7458907490363,None,1112.7458907490363,None,,,,,,,,,1,2022_Apr_01_1317,SAR-soap,2021.1.2,60.00827312906842,
103,Trial # 99,Group1-stimuli/group1-block1/real-group1-b1/Group1_IMG_0448.jpg,1,Group1_IMG_0448.jpg,,,,,0.0,98.0,98.0,98.0,,,,,,,,,,,,,,,,,,,,,,,,,,,,,,,,,,,,,1121.3324251220329,None,1121.3324251220329,None,1121.3324251220329,None,5.0,2.464235753985122,1121.3324251220329,None,1121.3324251220329,None,3.0,7.45361976895947,1123.3504309089622,None,1121.3324251220329,None,4.0,8.059319527936168,1124.8174123370554,None,1121.3324251220329,None,space,0.9498300839914008,8.086892983526923,None,1121.3324251220329,None,1121.3324251220329,None,,,,,,,,,1,2022_Apr_01_1317,SAR-soap,2021.1.2,60.00827312906842,
104,Trial # 100,Group1-stimuli/group1-block1/fake-group2-b1/encoded_Group2_IMG_0393.jpg,0,encoded_Group2_IMG_0393.jpg,,,,,0.0,99.0,99.0,99.0,,,,,,,,,,,,,,,,,,,,,,,,,,,,,,,,,,,,,1130.4023937099846,None,1130.4023937099846,None,1130.4023937099846,None,5.0,3.1821097451029345,1130.4023937099846,None,1130.4023937099846,None,4.0,4.271971365087666,1133.1353912190534,None,1130.4023937099846,None,5.0,4.979490472003818,1134.2374407600146,None,1130.4023937099846,None,space,0.8601198190590367,5.007630879525095,None,1130.4023937099846,None,1130.4023937099846,None,,,,,,,,,1,2022_Apr_01_1317,SAR-soap,2021.1.2,60.00827312906842,
105,Trial # 101,Group1-stimuli/group1-block1/real-group1-b1/Group1_IMG_0090.jpg,1,Group1_IMG_0090.jpg,,,,,0.0,100.0,100.0,100.0,,,,,,,,,,,,,,,,,,,,,,,,,,,,,,,,,,,,,1136.303191691055,None,1136.303191691055,None,1136.303191691055,None,1.0,1.9116090689785776,1136.303191691055,None,1136.303191691055,None,1.0,3.101533652981743,1137.7535263099708,None,1136.303191691055,None,1.0,3.940385179943405,1138.9551625050372,None,1136.303191691055,None,space,0.7686467599123716,3.966381986625493,None,1136.303191691055,None,1136.303191691055,None,,,,,,,,,1,2022_Apr_01_1317,SAR-soap,2021.1.2,60.00827312906842,
106,Trial # 102,Group1-stimuli/group1-block1/real-group1-b1/Group1_IMG_0310.jpg,1,Group1_IMG_0310.jpg,,,,,0.0,101.0,101.0,101.0,,,,,,,,,,,,,,,,,,,,,,,,,,,,,,,,,,,,,1141.0722960770363,None,1141.0722960770363,None,1141.0722960770363,None,1.0,2.0621508039766923,1141.0722960770363,None,1141.0722960770363,None,1.0,2.61821772903204,1142.68893140601,None,1141.0722960770363,None,1.0,3.3236026070080698,1143.256796804024,None,1141.0722960770363,None,space,1.0164325650548562,3.351988876471296,None,1141.0722960770363,None,1141.0722960770363,None,,,,,,,,,1,2022_Apr_01_1317,SAR-soap,2021.1.2,60.00827312906842,
107,Trial # 103,Group1-stimuli/group1-block1/fake-group2-b1/encoded_Group2_IMG_0528.jpg,0,encoded_Group2_IMG_0528.jpg,,,,,0.0,102.0,102.0,102.0,,,,,,,,,,,,,,,,,,,,,,,,,,,,,,,,,,,,,1145.4733700960642,None,1145.4733700960642,None,1145.4733700960642,None,5.0,3.5324149059597403,1145.4733700960642,None,1145.4733700960642,None,4.0,4.15502695098985,1148.558595901006,None,1145.4733700960642,None,5.0,6.29225774097722,1149.1909992339788,None,1145.4733700960642,None,space,0.944298447924666,6.322748557664454,None,1145.4733700960642,None,1145.4733700960642,None,,,,,,,,,1,2022_Apr_01_1317,SAR-soap,2021.1.2,60.00827312906842,
108,Trial # 104,Group1-stimuli/group1-block1/fake-group2-b1/encoded_Group2_IMG_1975.jpg,0,encoded_Group2_IMG_1975.jpg,,,,,0.0,103.0,103.0,103.0,,,,,,,,,,,,,,,,,,,,,,,,,,,,,,,,,,,,,1152.775345350965,None,1152.775345350965,None,1152.775345350965,None,2.0,2.116139149060473,1152.775345350965,None,1152.775345350965,None,1.0,2.7726541289594024,1154.443629616988,None,1152.775345350965,None,1.0,3.344542314996943,1155.1101524790283,None,1152.775345350965,None,space,0.7371717559872195,3.373097645700909,None,1152.775345350965,None,1152.775345350965,None,,,,,,,,,1,2022_Apr_01_1317,SAR-soap,2021.1.2,60.00827312906842,
109,Trial # 105,Group1-stimuli/group1-block1/fake-group2-b1/encoded_Group2_IMG_0052.jpg,0,encoded_Group2_IMG_0052.jpg,,,,,0.0,104.0,104.0,104.0,,,,,,,,,,,,,,,,,,,,,,,,,,,,,,,,,,,,,1156.9260371780256,None,1156.9260371780256,None,1156.9260371780256,None,1.0,1.9489695439115169,1156.9260371780256,None,1156.9260371780256,None,1.0,2.4717862949473783,1158.4279045490548,None,1156.9260371780256,None,1.0,3.1093640830367804,1158.9612917460036,None,1156.9260371780256,None,space,0.6349441240308806,3.138285065535456,None,1156.9260371780256,None,1156.9260371780256,None,,,,,,,,,1,2022_Apr_01_1317,SAR-soap,2021.1.2,60.00827312906842,
110,Trial # 106,Group1-stimuli/group1-block1/fake-group2-b1/encoded_Group2_IMG_0225.jpg,0,encoded_Group2_IMG_0225.jpg,,,,,0.0,105.0,105.0,105.0,,,,,,,,,,,,,,,,,,,,,,,,,,,,,,,,,,,,,1160.7442008299986,None,1160.7442008299986,None,1160.7442008299986,None,5.0,2.1478480639634654,1160.7442008299986,None,1160.7442008299986,None,4.0,2.7710508280433714,1162.4444809439592,None,1160.7442008299986,None,5.0,3.577638307004236,1163.077789206989,None,1160.7442008299986,None,space,0.6851947769755498,3.607540686498396,None,1160.7442008299986,None,1160.7442008299986,None,,,,,,,,,1,2022_Apr_01_1317,SAR-soap,2021.1.2,60.00827312906842,
111,Trial # 107,Group1-stimuli/group1-block1/real-group1-b1/Group1_IMG_2231.jpg,1,Group1_IMG_2231.jpg,,,,,0.0,106.0,106.0,106.0,,,,,,,,,,,,,,,,,,,,,,,,,,,,,,,,,,,,,1165.0624654190617,None,1165.0624654190617,None,1165.0624654190617,None,5.0,1.8780162340262905,1165.0624654190617,None,1165.0624654190617,None,4.0,2.4013242260552943,1166.495836516027,None,1165.0624654190617,None,5.0,3.0724552730098367,1167.0293166650226,None,1165.0624654190617,None,space,0.6844358600210398,3.099664509529248,None,1165.0624654190617,None,1165.0624654190617,None,,,,,,,,,1,2022_Apr_01_1317,SAR-soap,2021.1.2,60.00827312906842,
112,Trial # 108,Group1-stimuli/group1-block1/real-group1-b1/Group1_IMG_0217.jpg,1,Group1_IMG_0217.jpg,,,,,0.0,107.0,107.0,107.0,,,,,,,,,,,,,,,,,,,,,,,,,,,,,,,,,,,,,1168.8978826539824,None,1168.8978826539824,None,1168.8978826539824,None,5.0,11.68226519797463,1168.8978826539824,None,1168.8978826539824,None,4.0,12.439392931992188,1180.1176399750402,None,1168.8978826539824,None,5.0,14.378091962076724,1180.8849080110667,None,1168.8978826539824,None,space,0.9240707469871268,14.402456399518996,None,1168.8978826539824,None,1168.8978826539824,None,,,,,,,,,1,2022_Apr_01_1317,SAR-soap,2021.1.2,60.00827312906842,
113,Trial # 109,Group1-stimuli/group1-block1/real-group1-b1/Group1_IMG_0264.jpg,1,Group1_IMG_0264.jpg,,,,,0.0,108.0,108.0,108.0,,,,,,,,,,,,,,,,,,,,,,,,,,,,,,,,,,,,,1184.2348750770325,None,1184.2348750770325,None,1184.2348750770325,None,6.0,6.362598067964427,1184.2348750770325,None,1184.2348750770325,None,5.0,7.518147191032767,1190.15413756005,None,1184.2348750770325,None,7.0,14.759747625910675,1191.32083131501,None,1184.2348750770325,None,space,1.280454722000286,14.787269889609888,None,1184.2348750770325,None,1184.2348750770325,None,,,,,,,,,1,2022_Apr_01_1317,SAR-soap,2021.1.2,60.00827312906842,
114,Trial # 110,Group1-stimuli/group1-block1/fake-group2-b1/encoded_Group2_IMG_0254.jpg,0,encoded_Group2_IMG_0254.jpg,,,,,0.0,109.0,109.0,109.0,,,,,,,,,,,,,,,,,,,,,,,,,,,,,,,,,,,,,1200.339561122004,None,1200.339561122004,None,1200.339561122004,None,1.0,3.415731990011409,1200.339561122004,None,1200.339561122004,None,1.0,3.939158275024965,1203.30860011396,None,1200.339561122004,None,1.0,4.543837471981533,1203.8411401340272,None,1200.339561122004,None,space,0.7712119619827718,4.573518123477697,None,1200.339561122004,None,1200.339561122004,None,,,,,,,,,1,2022_Apr_01_1317,SAR-soap,2021.1.2,60.00827312906842,
115,Trial # 111,Group1-stimuli/group1-block1/fake-group2-b1/encoded_Group2_IMG_5433.jpg,0,encoded_Group2_IMG_5433.jpg,,,,,0.0,110.0,110.0,110.0,,,,,,,,,,,,,,,,,,,,,,,,,,,,,,,,,,,,,1205.7253885390237,None,1205.7253885390237,None,1205.7253885390237,None,1.0,1.7808707359945402,1205.7253885390237,None,1205.7253885390237,None,1.0,3.2043955209665,1207.0588071669918,None,1205.7253885390237,None,1.0,3.7773728920146814,1208.492552987067,None,1205.7253885390237,None,space,0.7055899309925735,3.805867430637591,None,1205.7253885390237,None,1205.7253885390237,None,,,,,,,,,1,2022_Apr_01_1317,SAR-soap,2021.1.2,60.00827312906842,
116,Trial # 112,Group1-stimuli/group1-block1/real-group1-b1/Group1_IMG_0252.jpg,1,Group1_IMG_0252.jpg,,,,,0.0,111.0,111.0,111.0,,,,,,,,,,,,,,,,,,,,,,,,,,,,,,,,,,,,,1210.2764978370396,None,1210.2764978370396,None,1210.2764978370396,None,2.0,1.9785722480155528,1210.2764978370396,None,1210.2764978370396,None,1.0,2.6344323370140046,1211.8105872330489,None,1210.2764978370396,None,1.0,3.1735453800065443,1212.4764705660054,None,1210.2764978370396,None,space,0.6184400510974228,3.2005952106555924,None,1210.2764978370396,None,1210.2764978370396,None,,,,,,,,,1,2022_Apr_01_1317,SAR-soap,2021.1.2,60.00827312906842,
117,Trial # 113,Group1-stimuli/group1-block1/real-group1-b1/Group1_IMG_9720.jpg,1,Group1_IMG_9720.jpg,,,,,0.0,112.0,112.0,112.0,,,,,,,,,,,,,,,,,,,,,,,,,,,,,,,,,,,,,1214.1450187880546,None,1214.1450187880546,None,1214.1450187880546,None,7.0,2.8611831549787894,1214.1450187880546,None,1214.1450187880546,None,5.0,7.101606623036787,1215.6280664610676,None,1214.1450187880546,None,6.0,7.739677404053509,1218.6622084280243,None,1214.1450187880546,None,space,1.0235618819715455,7.765286752604879,None,1214.1450187880546,None,1214.1450187880546,None,,,,,,,,,1,2022_Apr_01_1317,SAR-soap,2021.1.2,60.00827312906842,
118,Trial # 114,Group1-stimuli/group1-block1/fake-group2-b1/encoded_Group2_IMG_0550.jpg,0,encoded_Group2_IMG_0550.jpg,,,,,0.0,113.0,113.0,113.0,,,,,,,,,,,,,,,,,,,,,,,,,,,,,,,,,,,,,1222.9464470449602,None,1222.9464470449602,None,1222.9464470449602,None,1.0,1.8322797279106453,1222.9464470449602,None,1222.9464470449602,None,1.0,2.454835072043352,1224.3319593979977,None,1222.9464470449602,None,1.0,3.1599737069336697,1224.9644291150616,None,1222.9464470449602,None,space,0.6929487900342792,3.189389942446724,None,1222.9464470449602,None,1222.9464470449602,None,,,,,,,,,1,2022_Apr_01_1317,SAR-soap,2021.1.2,60.00827312906842,
119,Trial # 115,Group1-stimuli/group1-block1/real-group1-b1/Group1_IMG_9915.jpg,1,Group1_IMG_9915.jpg,,,,,0.0,114.0,114.0,114.0,,,,,,,,,,,,,,,,,,,,,,,,,,,,,,,,,,,,,1226.848382823984,None,1226.848382823984,None,1226.848382823984,None,1.0,1.9291064669378104,1226.848382823984,None,1226.848382823984,None,1.0,2.7198290969245136,1228.33256402798,None,1226.848382823984,None,1.0,3.392523664981127,1229.1330638669897,None,1226.848382823984,None,space,0.7255052890395746,3.4183898515766487,None,1226.848382823984,None,1226.848382823984,None,,,,,,,,,1,2022_Apr_01_1317,SAR-soap,2021.1.2,60.00827312906842,
120,Trial # 116,Group1-stimuli/group1-block1/real-group1-b1/Group1_IMG_9850.jpg,1,Group1_IMG_9850.jpg,,,,,0.0,115.0,115.0,115.0,,,,,,,,,,,,,,,,,,,,,,,,,,,,,,,,,,,,,1231.0162291460438,None,1231.0162291460438,None,1231.0162291460438,None,1.0,2.311661485000513,1231.0162291460438,None,1231.0162291460438,None,1.0,3.2348288770299405,1232.883272237959,None,1231.0162291460438,None,1.0,3.9395054259803146,1233.816854996956,None,1231.0162291460438,None,space,0.7193928860360757,3.966379308607429,None,1231.0162291460438,None,1231.0162291460438,None,,,,,,,,,1,2022_Apr_01_1317,SAR-soap,2021.1.2,60.00827312906842,
121,Trial # 117,Group1-stimuli/group1-block1/real-group1-b1/Group1_IMG_3579.jpg,1,Group1_IMG_3579.jpg,,,,,0.0,116.0,116.0,116.0,,,,,,,,,,,,,,,,,,,,,,,,,,,,,,,,,,,,,1235.7341267110314,None,1235.7341267110314,None,1235.7341267110314,None,6.0,3.8639740709913895,1235.7341267110314,None,1235.7341267110314,None,5.0,4.685690323007293,1239.1529301080154,None,1235.7341267110314,None,6.0,5.624690882046707,1239.9862117649757,None,1235.7341267110314,None,space,0.966003941022791,5.651513399556279,None,1235.7341267110314,None,1235.7341267110314,None,,,,,,,,,1,2022_Apr_01_1317,SAR-soap,2021.1.2,60.00827312906842,
122,Trial # 118,Group1-stimuli/group1-block1/fake-group2-b1/encoded_Group2_IMG_0377.jpg,0,encoded_Group2_IMG_0377.jpg,,,,,0.0,117.0,117.0,117.0,,,,,,,,,,,,,,,,,,,,,,,,,,,,,,,,,,,,,1242.369640046032,None,1242.369640046032,None,1242.369640046032,None,1.0,1.948726505972445,1242.369640046032,None,1242.369640046032,None,1.0,2.905256142024882,1243.870596113964,None,1242.369640046032,None,1.0,3.510421785991639,1244.8371812140103,None,1242.369640046032,None,space,0.6710713099455461,3.5406170955393463,None,1242.369640046032,None,1242.369640046032,None,,,,,,,,,1,2022_Apr_01_1317,SAR-soap,2021.1.2,60.00827312906842,
123,Trial # 119,Group1-stimuli/group1-block1/real-group1-b1/Group1_IMG_0469.jpg,1,Group1_IMG_0469.jpg,,,,,0.0,118.0,118.0,118.0,,,,,,,,,,,,,,,,,,,,,,,,,,,,,,,,,,,,,1246.620779259014,None,1246.620779259014,None,1246.620779259014,None,1.0,1.9456351329572497,1246.620779259014,None,1246.620779259014,None,1.0,2.469547160086222,1248.121164415963,None,1246.620779259014,None,1.0,3.7739905969938254,1248.6559588890525,None,1246.620779259014,None,space,0.8408298509893939,3.8020106254844,None,1246.620779259014,None,1246.620779259014,None,,,,,,,,,1,2022_Apr_01_1317,SAR-soap,2021.1.2,60.00827312906842,
124,Trial # 120,Group1-stimuli/group1-block1/fake-group2-b1/encoded_Group2_IMG_0100.jpg,0,encoded_Group2_IMG_0100.jpg,,,,,0.0,119.0,119.0,119.0,,,,,,,,,,,,,,,,,,,,,,,,,,,,,,,,,,,,,1251.305693301023,None,1251.305693301023,None,1251.305693301023,None,2.0,3.032032279064879,1251.305693301023,None,1251.305693301023,None,1.0,3.822116577997804,1253.890005788999,None,1251.305693301023,None,1.0,4.393840646021999,1254.6899672959698,None,1251.305693301023,None,space,0.8042834179941565,4.422240349696949,None,1251.305693301023,None,1251.305693301023,None,,,,,,,,,1,2022_Apr_01_1317,SAR-soap,2021.1.2,60.00827312906842,
125,Trial # 121,Group1-stimuli/group1-block1/real-group1-b1/Group1_IMG_5359.jpg,1,Group1_IMG_5359.jpg,,,,,0.0,120.0,120.0,120.0,,,,,,,,,,,,,,,,,,,,,,,,,,,,,,,,,,,,,1256.574734120979,None,1256.574734120979,None,1256.574734120979,None,4.0,6.280476558022201,1256.574734120979,None,1256.574734120979,None,3.0,7.572074229945429,1262.4093589710535,None,1256.574734120979,None,5.0,11.343130243942142,1263.71049940004,None,1256.574734120979,None,space,0.872460664017126,11.370070070610382,None,1256.574734120979,None,1256.574734120979,None,,,,,,,,,1,2022_Apr_01_1317,SAR-soap,2021.1.2,60.00827312906842,
126,Trial # 122,Group1-stimuli/group1-block1/fake-group2-b1/encoded_Group2_IMG_0304.jpg,0,encoded_Group2_IMG_0304.jpg,,,,,0.0,121.0,121.0,121.0,,,,,,,,,,,,,,,,,,,,,,,,,,,,,,,,,,,,,1268.8616659350228,None,1268.8616659350228,None,1268.8616659350228,None,6.0,6.300098182982765,1268.8616659350228,None,1268.8616659350228,None,5.0,7.022809725021944,1274.7133767870257,None,1268.8616659350228,None,6.0,8.860553933889605,1275.4476453230018,None,1268.8616659350228,None,space,0.6768232259200886,8.891484063467942,None,1268.8616659350228,None,1268.8616659350228,None,,,,,,,,,1,2022_Apr_01_1317,SAR-soap,2021.1.2,60.00827312906842,
127,Trial # 123,Group1-stimuli/group1-block1/real-group1-b1/Group1_IMG_0306.jpg,1,Group1_IMG_0306.jpg,,,,,0.0,122.0,122.0,122.0,,,,,,,,,,,,,,,,,,,,,,,,,,,,,,,,,,,,,1278.464829214965,None,1278.464829214965,None,1278.464829214965,None,5.0,3.063467356027104,1278.464829214965,None,1278.464829214965,None,4.0,3.719490621937439,1281.0823603119934,None,1278.464829214965,None,5.0,4.391188155976124,1281.7484544219917,None,1278.464829214965,None,space,0.5660758919548243,4.4179181716172025,None,1278.464829214965,None,1278.464829214965,None,,,,,,,,,1,2022_Apr_01_1317,SAR-soap,2021.1.2,60.00827312906842,
128,Trial # 124,Group1-stimuli/group1-block1/real-group1-b1/Group1_IMG_0224.jpg,1,Group1_IMG_0224.jpg,,,,,0.0,123.0,123.0,123.0,,,,,,,,,,,,,,,,,,,,,,,,,,,,,,,,,,,,,1283.4656798830256,None,1283.4656798830256,None,1283.4656798830256,None,5.0,1.9957433639792723,1283.4656798830256,None,1283.4656798830256,None,4.0,2.584711903007701,1285.0161851820303,None,1283.4656798830256,None,5.0,3.3243679919978604,1285.61592504906,None,1283.4656798830256,None,space,0.6876030170824379,3.350290928618051,None,1283.4656798830256,None,1283.4656798830256,None,,,,,,,,,1,2022_Apr_01_1317,SAR-soap,2021.1.2,60.00827312906842,
129,Trial # 125,Group1-stimuli/group1-block1/real-group1-b1/Group1_IMG_9889.jpg,1,Group1_IMG_9889.jpg,,,,,0.0,124.0,124.0,124.0,,,,,,,,,,,,,,,,,,,,,,,,,,,,,,,,,,,,,1287.533786901971,None,1287.533786901971,None,1287.533786901971,None,1.0,1.6474020270397889,1287.533786901971,None,1287.533786901971,None,1.0,2.336669838987291,1288.7342951480532,None,1287.533786901971,None,1.0,2.9410862210206687,1289.434756002971,None,1287.533786901971,None,space,0.6181406170362607,2.9691421325551346,None,1287.533786901971,None,1287.533786901971,None,,,,,,,,,1,2022_Apr_01_1317,SAR-soap,2021.1.2,60.00827312906842,
130,Trial # 126,Group1-stimuli/group1-block1/real-group1-b1/Group1_IMG_0293.jpg,1,Group1_IMG_0293.jpg,,,,,0.0,125.0,125.0,125.0,,,,,,,,,,,,,,,,,,,,,,,,,,,,,,,,,,,,,1291.1676207500277,None,1291.1676207500277,None,1291.1676207500277,None,1.0,1.9947714030276984,1291.1676207500277,None,1291.1676207500277,None,1.0,2.717961132992059,1292.7022601399804,None,1291.1676207500277,None,1.0,3.4571781910490245,1293.436299402034,None,1291.1676207500277,None,space,0.6271774630295113,3.484368995530531,None,1291.1676207500277,None,1291.1676207500277,None,,,,,,,,,1,2022_Apr_01_1317,SAR-soap,2021.1.2,60.00827312906842,
131,Trial # 127,Group1-stimuli/group1-block1/fake-group2-b1/encoded_Group2_IMG_0321.jpg,0,encoded_Group2_IMG_0321.jpg,,,,,0.0,126.0,126.0,126.0,,,,,,,,,,,,,,,,,,,,,,,,,,,,,,,,,,,,,1295.2861716450425,None,1295.2861716450425,None,1295.2861716450425,None,2.0,4.582268011989072,1295.2861716450425,None,1295.2861716450425,None,1.0,2.186627623043023,1296.5364758709911,None,1295.2861716450425,None,1.0,5.693511845078319,1297.0360092669723,None,1295.2861716450425,None,space,0.7879020959371701,5.721900715725496,None,1295.2861716450425,None,1295.2861716450425,None,,,,,,,,,1,2022_Apr_01_1317,SAR-soap,2021.1.2,60.00827312906842,
132,Trial # 128,Group1-stimuli/group1-block1/fake-group2-b1/encoded_Group2_IMG_0400.jpg,0,encoded_Group2_IMG_0400.jpg,,,,,0.0,127.0,127.0,127.0,,,,,,,,,,,,,,,,,,,,,,,,,,,,,,,,,,,,,1301.8212909010472,None,1301.8212909010472,None,1301.8212909010472,None,3.0,2.1818385999649763,1301.8212909010472,None,1301.8212909010472,None,2.0,5.404949162970297,1303.5562344229547,None,1301.8212909010472,None,2.0,6.509006875916384,1306.7892141459745,None,1301.8212909010472,None,space,0.7314148519653827,6.539852883666754,None,1301.8212909010472,None,1301.8212909010472,None,,,,,,,,,1,2022_Apr_01_1317,SAR-soap,2021.1.2,60.00827312906842,
133,Trial # 129,Group1-stimuli/group1-block1/fake-group2-b1/encoded_Group2_IMG_0443.jpg,0,encoded_Group2_IMG_0443.jpg,,,,,0.0,128.0,128.0,128.0,,,,,,,,,,,,,,,,,,,,,,,,,,,,,,,,,,,,,1309.1072749460582,None,1309.1072749460582,None,1309.1072749460582,None,4.0,2.0475377730326727,1309.1072749460582,None,1309.1072749460582,None,3.0,2.7374718580394983,1310.708692125976,None,1309.1072749460582,None,4.0,3.476102150976658,1311.4077509980416,None,1309.1072749460582,None,space,0.6483658859506249,3.5050420864718035,None,1309.1072749460582,None,1309.1072749460582,None,,,,,,,,,1,2022_Apr_01_1317,SAR-soap,2021.1.2,60.00827312906842,
134,Trial # 130,Group1-stimuli/group1-block1/fake-group2-b1/encoded_Group2_IMG_0542.jpg,0,encoded_Group2_IMG_0542.jpg,,,,,0.0,129.0,129.0,129.0,,,,,,,,,,,,,,,,,,,,,,,,,,,,,,,,,,,,,1313.2914470339892,None,1313.2914470339892,None,1313.2914470339892,None,1.0,1.6478941889945418,1313.2914470339892,None,1313.2914470339892,None,1.0,2.154668558971025,1314.4924163409742,None,1313.2914470339892,None,1.0,2.760075964033604,1315.0091958619887,None,1313.2914470339892,None,space,0.6520871600368991,2.788069564616308,None,1313.2914470339892,None,1313.2914470339892,None,,,,,,,,,1,2022_Apr_01_1317,SAR-soap,2021.1.2,60.00827312906842,
135,Trial # 131,Group1-stimuli/group1-block1/real-group1-b1/Group1_IMG_0885.jpg,1,Group1_IMG_0885.jpg,,,,,0.0,130.0,130.0,130.0,,,,,,,,,,,,,,,,,,,,,,,,,,,,,,,,,,,,,1316.776187150972,None,1316.776187150972,None,1316.776187150972,None,7.0,5.712285270914435,1316.776187150972,None,1316.776187150972,None,6.0,7.552557453978807,1319.02668989799,None,1316.776187150972,None,7.0,9.224708483088762,1320.5767987719737,None,1316.776187150972,None,space,0.8680930819828063,9.250752168591134,None,1316.776187150972,None,1316.776187150972,None,,,,,,,,,1,2022_Apr_01_1317,SAR-soap,2021.1.2,60.00827312906842,
136,Trial # 132,Group1-stimuli/group1-block1/real-group1-b1/Group1_IMG_0375.jpg,1,Group1_IMG_0375.jpg,,,,,0.0,131.0,131.0,131.0,,,,,,,,,,,,,,,,,,,,,,,,,,,,,,,,,,,,,1326.9287775050616,None,1326.9287775050616,None,1326.9287775050616,None,1.0,2.1633137660101056,1326.9287775050616,None,1326.9287775050616,None,1.0,2.886642934987321,1328.6463949959723,None,1326.9287775050616,None,1.0,3.557529982062988,1329.3806472959695,None,1326.9287775050616,None,space,0.942622976959683,3.583899191580713,None,1326.9287775050616,None,1326.9287775050616,None,,,,,,,,,1,2022_Apr_01_1317,SAR-soap,2021.1.2,60.00827312906842,
137,Trial # 133,Group1-stimuli/group1-block1/fake-group2-b1/encoded_Group2_IMG_7351.jpg,0,encoded_Group2_IMG_7351.jpg,,,,,0.0,132.0,132.0,132.0,,,,,,,,,,,,,,,,,,,,,,,,,,,,,,,,,,,,,1331.496357975062,None,1331.496357975062,None,1331.496357975062,None,5.0,2.0961500459816307,1331.496357975062,None,1331.496357975062,None,4.0,2.7205883549759164,1333.147501087049,None,1331.496357975062,None,6.0,3.793552163057029,1333.781255193055,None,1331.496357975062,None,space,0.6932565349852666,3.820875277509913,None,1331.496357975062,None,1331.496357975062,None,,,,,,,,,1,2022_Apr_01_1317,SAR-soap,2021.1.2,60.00827312906842,
138,Trial # 134,Group1-stimuli/group1-block1/fake-group2-b1/encoded_Group2_IMG_0416.jpg,0,encoded_Group2_IMG_0416.jpg,,,,,0.0,133.0,133.0,133.0,,,,,,,,,,,,,,,,,,,,,,,,,,,,,,,,,,,,,1336.0311312789563,None,1336.0311312789563,None,1336.0311312789563,None,6.0,1.6971114639891312,1336.0311312789563,None,1336.0311312789563,None,5.0,2.652033880003728,1337.2822700999675,None,1336.0311312789563,None,5.0,3.392375563038513,1338.249243392027,None,1336.0311312789563,None,space,0.67843642400112,3.4206966515630484,None,1336.0311312789563,None,1336.0311312789563,None,,,,,,,,,1,2022_Apr_01_1317,SAR-soap,2021.1.2,60.00827312906842,
139,Trial # 135,Group1-stimuli/group1-block1/fake-group2-b1/encoded_Group2_IMG_0139.jpg,0,encoded_Group2_IMG_0139.jpg,,,,,0.0,134.0,134.0,134.0,,,,,,,,,,,,,,,,,,,,,,,,,,,,,,,,,,,,,1340.1669654370053,None,1340.1669654370053,None,1340.1669654370053,None,1.0,1.8465942239854485,1340.1669654370053,None,1340.1669654370053,None,1.0,2.9034359969664365,1341.5664623599732,None,1340.1669654370053,None,1.0,3.609815948992036,1342.6340956550555,None,1340.1669654370053,None,space,0.8546741451136768,3.6383212415967137,None,1340.1669654370053,None,1340.1669654370053,None,,,,,,,,,1,2022_Apr_01_1317,SAR-soap,2021.1.2,60.00827312906842,
140,Trial # 136,Group1-stimuli/group1-block1/real-group1-b1/Group1_IMG_9677.jpg,1,Group1_IMG_9677.jpg,,,,,0.0,135.0,135.0,135.0,,,,,,,,,,,,,,,,,,,,,,,,,,,,,,,,,,,,,1344.6852430499855,None,1344.6852430499855,None,1344.6852430499855,None,2.0,1.89567692799028,1344.6852430499855,None,1344.6852430499855,None,1.0,2.5853411559946835,1346.1346681730356,None,1344.6852430499855,None,1.0,3.3901702919974923,1346.8349827190395,None,1344.6852430499855,None,space,0.5856105829589069,3.4179148204857484,None,1344.6852430499855,None,1344.6852430499855,None,,,,,,,,,1,2022_Apr_01_1317,SAR-soap,2021.1.2,60.00827312906842,
141,Trial # 137,Group1-stimuli/group1-block1/fake-group2-b1/encoded_Group2_IMG_5982.jpg,0,encoded_Group2_IMG_5982.jpg,,,,,0.0,136.0,136.0,136.0,,,,,,,,,,,,,,,,,,,,,,,,,,,,,,,,,,,,,1348.7201436089815,None,1348.7201436089815,None,1348.7201436089815,None,1.0,1.8645515160169448,1348.7201436089815,None,1348.7201436089815,None,1.0,2.3539398519787937,1350.137364931987,None,1348.7201436089815,None,1.0,2.959003855008632,1350.6372346229618,None,1348.7201436089815,None,space,0.6480175519827753,2.988663888652809,None,1348.7201436089815,None,1348.7201436089815,None,,,,,,,,,1,2022_Apr_01_1317,SAR-soap,2021.1.2,60.00827312906842,
142,Trial # 138,Group1-stimuli/group1-block1/fake-group2-b1/encoded_Group2_IMG_1144.jpg,0,encoded_Group2_IMG_1144.jpg,,,,,0.0,137.0,137.0,137.0,,,,,,,,,,,,,,,,,,,,,,,,,,,,,,,,,,,,,1352.3866914879763,None,1352.3866914879763,None,1352.3866914879763,None,6.0,2.6825444740243256,1352.3866914879763,None,1352.3866914879763,None,5.0,3.937182539957576,1354.622054863954,None,1352.3866914879763,None,7.0,5.243749823071994,1355.8876810589572,None,1352.3866914879763,None,space,0.8092682869173586,5.271247330703773,None,1352.3866914879763,None,1352.3866914879763,None,,,,,,,,,1,2022_Apr_01_1317,SAR-soap,2021.1.2,60.00827312906842,
143,Trial # 139,Group1-stimuli/group1-block1/fake-group2-b1/encoded_Group2_IMG_0315.jpg,0,encoded_Group2_IMG_0315.jpg,,,,,0.0,138.0,138.0,138.0,,,,,,,,,,,,,,,,,,,,,,,,,,,,,,,,,,,,,1358.5055009559728,None,1358.5055009559728,None,1358.5055009559728,None,2.0,2.0331207199487835,1358.5055009559728,None,1358.5055009559728,None,1.0,2.6213351449696347,1360.0902457459597,None,1358.5055009559728,None,2.0,5.3272771700285375,1360.6904376440216,None,1358.5055009559728,None,space,2.7134087190497667,3.3220060975290835,None,1358.5055009559728,None,1358.5055009559728,None,,,,,,,,,1,2022_Apr_01_1317,SAR-soap,2021.1.2,60.00827312906842,
144,Trial # 140,Group1-stimuli/group1-block1/real-group1-b1/Group1_IMG_130.jpg,1,Group1_IMG_130.jpg,,,,,0.0,139.0,139.0,139.0,,,,,,,,,,,,,,,,,,,,,,,,,,,,,,,,,,,,,1364.5744774510383,None,1364.5744774510383,None,1364.5744774510383,None,7.0,2.09488579002209,1364.5744774510383,None,1364.5744774510383,None,7.0,3.516812874004245,1366.2244357899765,None,1364.5744774510383,None,6.0,4.958247398026288,1367.6578090649564,None,1364.5744774510383,None,space,2.169349781004712,4.983236073632725,None,1364.5744774510383,None,1364.5744774510383,None,,,,,,,,,1,2022_Apr_01_1317,SAR-soap,2021.1.2,60.00827312906842,
145,Trial # 141,Group1-stimuli/group1-block1/real-group1-b1/Group1_IMG_0024.jpg,1,Group1_IMG_0024.jpg,,,,,0.0,140.0,140.0,140.0,,,,,,,,,,,,,,,,,,,,,,,,,,,,,,,,,,,,,1371.7932848680066,None,1371.7932848680066,None,1371.7932848680066,None,6.0,2.628863831982017,1371.7932848680066,None,1371.7932848680066,None,6.0,4.818591231945902,1373.9608828589553,None,1371.7932848680066,None,7.0,5.624855307978578,1376.1604206559714,None,1371.7932848680066,None,space,0.8197442940436304,5.650802250602283,None,1371.7932848680066,None,1371.7932848680066,None,,,,,,,,,1,2022_Apr_01_1317,SAR-soap,2021.1.2,60.00827312906842,
146,Trial # 142,Group1-stimuli/group1-block1/fake-group2-b1/encoded_Group2_IMG_5012.jpg,0,encoded_Group2_IMG_5012.jpg,,,,,0.0,141.0,141.0,141.0,,,,,,,,,,,,,,,,,,,,,,,,,,,,,,,,,,,,,1378.2774787120288,None,1378.2774787120288,None,1378.2774787120288,None,4.0,2.2473205459536985,1378.2774787120288,None,1378.2774787120288,None,3.0,5.503383324015886,1380.0786015250487,None,1378.2774787120288,None,4.0,9.743647256982513,1383.3475117309715,None,1378.2774787120288,None,space,3.1205102619715035,9.772843935643325,None,1378.2774787120288,None,1378.2774787120288,None,,,,,,,,,1,2022_Apr_01_1317,SAR-soap,2021.1.2,60.00827312906842,
147,Trial # 143,Group1-stimuli/group1-block1/fake-group2-b1/encoded_Group2_IMG_0209.jpg,0,encoded_Group2_IMG_0209.jpg,,,,,0.0,142.0,142.0,142.0,,,,,,,,,,,,,,,,,,,,,,,,,,,,,,,,,,,,,1391.1988030920038,None,1391.1988030920038,None,1391.1988030920038,None,1.0,2.31458137393929,1391.1988030920038,None,1391.1988030920038,None,1.0,3.1038440050324425,1393.0663916079793,None,1391.1988030920038,None,1.0,4.510342897032388,1393.8665066260146,None,1391.1988030920038,None,space,1.146036889986135,4.539201651583426,None,1391.1988030920038,None,1391.1988030920038,None,,,,,,,,,1,2022_Apr_01_1317,SAR-soap,2021.1.2,60.00827312906842,
148,Trial # 144,Group1-stimuli/group1-block1/real-group1-b1/Group1_IMG_0373.jpg,1,Group1_IMG_0373.jpg,,,,,0.0,143.0,143.0,143.0,,,,,,,,,,,,,,,,,,,,,,,,,,,,,,,,,,,,,1396.9169060600689,None,1396.9169060600689,None,1396.9169060600689,None,2.0,2.281034262967296,1396.9169060600689,None,1396.9169060600689,None,1.0,2.9700360050192103,1398.7519535219762,None,1396.9169060600689,None,1.0,3.676417696056888,1399.4523739799624,None,1396.9169060600689,None,space,1.6135972070042044,3.702003236510791,None,1396.9169060600689,None,1396.9169060600689,None,,,,,,,,,1,2022_Apr_01_1317,SAR-soap,2021.1.2,60.00827312906842,
149,Trial # 145,Group1-stimuli/group1-block1/real-group1-b1/Group1_IMG_5899.jpg,1,Group1_IMG_5899.jpg,,,,,0.0,144.0,144.0,144.0,,,,,,,,,,,,,,,,,,,,,,,,,,,,,,,,,,,,,1402.2691277479753,None,1402.2691277479753,None,1402.2691277479753,None,2.0,2.6304238479351625,1402.2691277479753,None,1402.2691277479753,None,1.0,3.4516494729323317,1404.454401310999,None,1402.2691277479753,None,1.0,4.358668804983608,1405.2866853070443,None,1402.2691277479753,None,space,0.7067139149876311,4.383733235532418,None,1402.2691277479753,None,1402.2691277479753,None,,,,,,,,,1,2022_Apr_01_1317,SAR-soap,2021.1.2,60.00827312906842,
150,Trial # 146,Group1-stimuli/group1-block1/real-group1-b1/Group1_IMG_0162.jpg,1,Group1_IMG_0162.jpg,,,,,0.0,145.0,145.0,145.0,,,,,,,,,,,,,,,,,,,,,,,,,,,,,,,,,,,,,1407.4197406440508,None,1407.4197406440508,None,1407.4197406440508,None,7.0,6.2468896500067785,1407.4197406440508,None,1407.4197406440508,None,6.0,6.986109083052725,1412.072470878018,None,1407.4197406440508,None,7.0,10.793004811974242,1413.955750816036,None,1407.4197406440508,None,space,1.2482106130337345,10.818376684561372,None,1407.4197406440508,None,1407.4197406440508,None,,,,,,,,,1,2022_Apr_01_1317,SAR-soap,2021.1.2,60.00827312906842,
151,Trial # 147,Group1-stimuli/group1-block1/real-group1-b1/Group1_IMG_0543.jpg,1,Group1_IMG_0543.jpg,,,,,0.0,146.0,146.0,146.0,,,,,,,,,,,,,,,,,,,,,,,,,,,,,,,,,,,,,1419.507929165964,None,1419.507929165964,None,1419.507929165964,None,2.0,2.9291098249377683,1419.507929165964,None,1419.507929165964,None,1.0,3.485969578032382,1421.991878721048,None,1419.507929165964,None,1.0,4.156633447972126,1422.5582697540522,None,1419.507929165964,None,space,0.7164577590301633,4.184334892663173,None,1419.507929165964,None,1419.507929165964,None,,,,,,,,,1,2022_Apr_01_1317,SAR-soap,2021.1.2,60.00827312906842,
152,Trial # 148,Group1-stimuli/group1-block1/fake-group2-b1/encoded_Group2_IMG_0355.jpg,0,encoded_Group2_IMG_0355.jpg,,,,,0.0,147.0,147.0,147.0,,,,,,,,,,,,,,,,,,,,,,,,,,,,,,,,,,,,,1424.4429233180126,None,1424.4429233180126,None,1424.4429233180126,None,2.0,2.6652248349273577,1424.4429233180126,None,1424.4429233180126,None,1.0,3.3546769509557635,1426.6595945149893,None,1424.4429233180126,None,1.0,3.960189701989293,1427.35930979799,None,1424.4429233180126,None,space,0.7492259270511568,3.988726348499768,None,1424.4429233180126,None,1424.4429233180126,None,,,,,,,,,1,2022_Apr_01_1317,SAR-soap,2021.1.2,60.00827312906842,
153,Trial # 149,Group1-stimuli/group1-block1/real-group1-b1/Group1_IMG_9765.jpg,1,Group1_IMG_9765.jpg,,,,,0.0,148.0,148.0,148.0,,,,,,,,,,,,,,,,,,,,,,,,,,,,,,,,,,,,,1429.211051477003,None,1429.211051477003,None,1429.211051477003,None,6.0,5.130667928024195,1429.211051477003,None,1429.211051477003,None,5.0,5.66893209493719,1432.878708858043,None,1429.211051477003,None,6.0,6.64001253398601,1434.4457751150476,None,1429.211051477003,None,space,0.6727937030373141,6.667885165428743,None,1429.211051477003,None,1429.211051477003,None,,,,,,,,,1,2022_Apr_01_1317,SAR-soap,2021.1.2,60.00827312906842,
154,Trial # 150,Group1-stimuli/group1-block1/fake-group2-b1/encoded_Group2_IMG_1378.jpg,0,encoded_Group2_IMG_1378.jpg,,,,,0.0,149.0,149.0,149.0,,,,,,,,,,,,,,,,,,,,,,,,,,,,,,,,,,,,,1436.5960594899952,None,1436.5960594899952,None,1436.5960594899952,None,5.0,2.281720962957479,1436.5960594899952,None,1436.5960594899952,None,4.0,3.0378106229472905,1438.4303708570078,None,1436.5960594899952,None,5.0,4.275033312034793,1439.1977640209952,None,1436.5960594899952,None,space,0.8383483889047056,4.305024836561643,None,1436.5960594899952,None,1436.5960594899952,None,,,,,,,,,1,2022_Apr_01_1317,SAR-soap,2021.1.2,60.00827312906842,
155,Trial # 1,Group1-stimuli/group1-block2/fake-group2-b2/encoded_Group2_IMG_0155.jpg,0,encoded_Group2_IMG_0155.jpg,,,,,,,,,0.0,0.0,0.0,0.0,,,,,,,,,,,,,,,,,,,,,,,,,,,,,,,,,2072.041665078956,None,2072.041665078956,None,2072.041665078956,None,6.0,4.455444802064449,2072.041665078956,None,2072.041665078956,None,5.0,5.893412164994516,2076.060658182017,None,2072.041665078956,None,6.0,6.632295341929421,2077.5102746259654,None,2072.041665078956,None,space,0.3930977700510993,6.66801574639976,None,2072.041665078956,None,2072.041665078956,None,2066.7582528999774,None,2066.7582528999774,None,2066.7582528999774,None,1441.280648945016,None,1,2022_Apr_01_1317,SAR-soap,2021.1.2,60.00827312906842,
156,Trial # 2,Group1-stimuli/group1-block2/real-group1-b2/Group1_IMG_0519.jpg,1,Group1_IMG_0519.jpg,,,,,,,,,0.0,1.0,1.0,1.0,,,,,,,,,,,,,,,,,,,,,,,,,,,,,,,,,2079.1439426910365,None,2079.1439426910365,None,2079.1439426910365,None,4.0,1.9567671180702744,2079.1439426910365,None,2079.1439426910365,None,3.0,2.745828451937996,2080.645969183999,None,2079.1439426910365,None,5.0,3.719545524101704,2081.4446004059864,None,2079.1439426910365,None,space,0.2574354979442432,3.739642786676996,None,2079.1439426910365,None,2079.1439426910365,None,,,,,,,,,1,2022_Apr_01_1317,SAR-soap,2021.1.2,60.00827312906842,
157,Trial # 3,Group1-stimuli/group1-block2/fake-group2-b2/encoded_Group2_IMG_0135.jpg,0,encoded_Group2_IMG_0135.jpg,,,,,,,,,0.0,2.0,2.0,2.0,,,,,,,,,,,,,,,,,,,,,,,,,,,,,,,,,2083.179236646043,None,2083.179236646043,None,2083.179236646043,None,1.0,1.844272362999618,2083.179236646043,None,2083.179236646043,None,1.0,2.316983580007218,2084.5478568819817,None,2083.179236646043,None,1.0,3.1894311889773235,2085.045990049024,None,2083.179236646043,None,space,0.1882132240571081,3.2132318696239963,None,2083.179236646043,None,2083.179236646043,None,,,,,,,,,1,2022_Apr_01_1317,SAR-soap,2021.1.2,60.00827312906842,
158,Trial # 4,Group1-stimuli/group1-block2/real-group1-b2/Group1_IMG_5310.jpg,1,Group1_IMG_5310.jpg,,,,,,,,,0.0,3.0,3.0,3.0,,,,,,,,,,,,,,,,,,,,,,,,,,,,,,,,,2086.61325814703,None,2086.61325814703,None,2086.61325814703,None,6.0,3.0570065380306914,2086.61325814703,None,2086.61325814703,None,4.0,4.080953761003912,2089.2136512650177,None,2086.61325814703,None,7.0,10.854672707035206,2090.2486231600637,None,2086.61325814703,None,space,0.4208304790081456,10.876635871711189,None,2086.61325814703,None,2086.61325814703,None,,,,,,,,,1,2022_Apr_01_1317,SAR-soap,2021.1.2,60.00827312906842,
159,Trial # 5,Group1-stimuli/group1-block2/real-group1-b2/Group1_IMG_0522.jpg,1,Group1_IMG_0522.jpg,,,,,,,,,0.0,4.0,4.0,4.0,,,,,,,,,,,,,,,,,,,,,,,,,,,,,,,,,2097.933676759014,None,2097.933676759014,None,2097.933676759014,None,4.0,1.8801701709162444,2097.933676759014,None,2097.933676759014,None,3.0,2.569368105963804,2099.367864751024,None,2097.933676759014,None,5.0,3.3420128390425816,2100.067424495006,None,2097.933676759014,None,space,0.267225939896889,3.368150732596405,None,2097.933676759014,None,2097.933676759014,None,,,,,,,,,1,2022_Apr_01_1317,SAR-soap,2021.1.2,60.00827312906842,
160,Trial # 6,Group1-stimuli/group1-block2/fake-group2-b2/encoded_Group2_IMG_0484.jpg,0,encoded_Group2_IMG_0484.jpg,,,,,,,,,0.0,5.0,5.0,5.0,,,,,,,,,,,,,,,,,,,,,,,,,,,,,,,,,2101.584653252969,None,2101.584653252969,None,2101.584653252969,None,2.0,1.7306186819914728,2101.584653252969,None,2101.584653252969,None,1.0,2.2199733660090715,2102.8689447330544,None,2101.584653252969,None,1.0,2.825321526033804,2103.368100819061,None,2101.584653252969,None,space,0.1802603830583393,2.854635381605476,None,2101.584653252969,None,2101.584653252969,None,,,,,,,,,1,2022_Apr_01_1317,SAR-soap,2021.1.2,60.00827312906842,
161,Trial # 7,Group1-stimuli/group1-block2/fake-group2-b2/encoded_Group2_IMG_5948.jpg,0,encoded_Group2_IMG_5948.jpg,,,,,,,,,0.0,6.0,6.0,6.0,,,,,,,,,,,,,,,,,,,,,,,,,,,,,,,,,2104.652242279961,None,2104.652242279961,None,2104.652242279961,None,1.0,1.9979183820541948,2104.652242279961,None,2104.652242279961,None,1.0,2.5874361239839345,2106.202619433985,None,2104.652242279961,None,1.0,3.1922039709752426,2106.8032932500355,None,2104.652242279961,None,space,0.2503444759640842,3.221404944662936,None,2104.652242279961,None,2104.652242279961,None,,,,,,,,,1,2022_Apr_01_1317,SAR-soap,2021.1.2,60.00827312906842,
162,Trial # 8,Group1-stimuli/group1-block2/fake-group2-b2/encoded_Group2_IMG_3591.jpg,0,encoded_Group2_IMG_3591.jpg,,,,,,,,,0.0,7.0,7.0,7.0,,,,,,,,,,,,,,,,,,,,,,,,,,,,,,,,,2108.152788673993,None,2108.152788673993,None,2108.152788673993,None,1.0,1.6979658390628174,2108.152788673993,None,2108.152788673993,None,1.0,2.1879378349985927,2109.4049486949807,None,2108.152788673993,None,1.0,2.792804032098502,2109.9041995160514,None,2108.152788673993,None,space,0.2201971899485215,2.823198548634537,None,2108.152788673993,None,2108.152788673993,None,,,,,,,,,1,2022_Apr_01_1317,SAR-soap,2021.1.2,60.00827312906842,
163,Trial # 9,Group1-stimuli/group1-block2/real-group1-b2/Group1_IMG_9835.jpg,1,Group1_IMG_9835.jpg,,,,,,,,,0.0,8.0,8.0,8.0,,,,,,,,,,,,,,,,,,,,,,,,,,,,,,,,,2111.237434742041,None,2111.237434742041,None,2111.237434742041,None,1.0,1.5056143660331145,2111.237434742041,None,2111.237434742041,None,1.0,1.993943697074428,2112.2878258470446,None,2111.237434742041,None,1.0,2.533546408987604,2112.787384039024,None,2111.237434742041,None,space,0.2118977670324966,2.554069604491815,None,2111.237434742041,None,2111.237434742041,None,,,,,,,,,1,2022_Apr_01_1317,SAR-soap,2021.1.2,60.00827312906842,
