,Trial_num,image_path,ground_truth,image_name,demos.thisRepN,demos.thisTrialN,demos.thisN,demos.thisIndex,block_1.thisRepN,block_1.thisTrialN,block_1.thisN,block_1.thisIndex,block_2.thisRepN,block_2.thisTrialN,block_2.thisN,block_2.thisIndex,text_3.started,text_3.stopped,Task.started,Task.stopped,text_10.started,text_10.stopped,key_resp.keys,key_resp.rt,key_resp.started,key_resp.stopped,image_2.started,image_2.stopped,text_5.started,text_5.stopped,image_3.started,image_3.stopped,text_6.started,text_6.stopped,translucency.started,translucency.stopped,see_throughness.started,see_throughness.stopped,glow.started,glow.stopped,key_resp_10.keys,key_resp_10.rt,key_resp_10.started,key_resp_10.stopped,instruction.started,instruction.stopped,text_12.started,text_12.stopped,Trial_number.started,Trial_number.stopped,image.started,image.stopped,Instruction.started,Instruction.stopped,translucency_score.response,translucency_score.rt,translucency_score.started,translucency_score.stopped,Translucency.started,Translucency.stopped,seethroughness_score.response,seethroughness_score.rt,seethroughness_score.started,seethroughness_score.stopped,SeeThroughness.started,SeeThroughness.stopped,glow_score.response,glow_score.rt,glow_score.started,glow_score.stopped,Glow.started,Glow.stopped,to_next.keys,to_next.rt,to_next.started,to_next.stopped,grading_label_left.started,grading_label_left.stopped,grading_label_right.started,grading_label_right.stopped,instruct1.started,instruct1.stopped,instruct2.started,instruct2.stopped,text_4.started,text_4.stopped,text_2.started,text_2.stopped,session,date,expName,psychopyVersion,Unnamed: 94
0,,,,,,,,,,,,,,,,,412.955719823949,None,421.18404574878514,None,433.7530213305727,None,space,87.59134702105075,438.7212055688724,None,,,,,,,,,,,,,,,,,,,,,,,,,,,,,,,,,,,,,,,,,,,,,,,,,,,,,,,,,,,,,,,1,2022_May_27_1515,SAR-soap,2021.1.2,
1,,,,,,,,,,,,,,,,,,,,,,,,,,,526.799053103663,None,526.799053103663,None,535.6026726653799,None,535.6026726653799,None,543.50404036697,None,543.50404036697,None,543.50404036697,None,space,21.4644675757736,543.50404036697,None,,,,,,,,,,,,,,,,,,,,,,,,,,,,,,,,,,,,,,,,,,,,,1,2022_May_27_1515,SAR-soap,2021.1.2,
2,Demo 1,demo/Demo_IMG_0974.jpg,demo,Demo_IMG_0974.jpg,0.0,0.0,0.0,0.0,,,,,,,,,,,,,,,,,,,,,,,,,,,,,,,,,,,,,543.50404036697,None,564.9950360301882,None,568.0115979816765,None,568.0115979816765,None,568.0115979816765,None,6.0,62.934784590266645,568.0115979816765,None,568.0115979816765,None,5.0,82.36342485342175,627.1631184332073,None,568.0115979816765,None,6.0,85.50259797181934,649.9210486141965,None,568.0115979816765,None,space,-31.42893434874713,85.53080972936004,None,568.0115979816765,None,568.0115979816765,None,,,,,,,,,1,2022_May_27_1515,SAR-soap,2021.1.2,
3,Demo 2,demo/Demo_IMG_1024.jpg,demo,Demo_IMG_1024.jpg,0.0,1.0,1.0,1.0,,,,,,,,,,,,,,,,,,,,,,,,,,,,,,,,,,,,,,,,,653.6213366137818,None,653.6213366137818,None,653.6213366137818,None,1.0,6.9235460218042135,653.6213366137818,None,653.6213366137818,None,1.0,12.147330335341394,660.0903755445033,None,653.6213366137818,None,1.0,18.153986901976168,665.3251059278846,None,653.6213366137818,None,space,3.0667935591191053,18.172907679341733,None,653.6213366137818,None,653.6213366137818,None,,,,,,,,,1,2022_May_27_1515,SAR-soap,2021.1.2,
4,Demo 3,demo/Demo_seed_80003.png,demo,Demo_seed_80003.png,0.0,2.0,2.0,2.0,,,,,,,,,,,,,,,,,,,,,,,,,,,,,,,,,,,,,,,,,675.0287520186976,None,675.0287520186976,None,675.0287520186976,None,4.0,7.35496358666569,675.0287520186976,None,675.0287520186976,None,3.0,13.561279249377549,681.9312977371737,None,675.0287520186976,None,5.0,20.33636269718409,688.1485558841377,None,675.0287520186976,None,space,1.859968537464738,20.3703447021544,None,675.0287520186976,None,675.0287520186976,None,,,,,,,,,1,2022_May_27_1515,SAR-soap,2021.1.2,
5,Trial # 1,Group1-stimuli/group1-block1/real-group1-b1/Group1_IMG_0022.jpg,1,Group1_IMG_0022.jpg,,,,,0.0,0.0,0.0,0.0,,,,,,,,,,,,,,,,,,,,,,,,,,,,,,,,,,,,,710.2231014212593,None,710.2231014212593,None,710.2231014212593,None,4.0,28.51723536942154,710.2231014212593,None,710.2231014212593,None,3.0,30.140378763899207,717.7578797256574,None,710.2231014212593,None,4.0,36.64797812048346,739.9153815265745,None,710.2231014212593,None,space,0.9203190905973316,36.6708092559129,None,710.2231014212593,None,710.2231014212593,None,697.2522042449564,None,697.2522042449564,None,697.2522042449564,None,,,1,2022_May_27_1515,SAR-soap,2021.1.2,
6,Trial # 2,Group1-stimuli/group1-block1/fake-group2-b1/encoded_Group2_IMG_0386.jpg,0,encoded_Group2_IMG_0386.jpg,,,,,0.0,1.0,1.0,1.0,,,,,,,,,,,,,,,,,,,,,,,,,,,,,,,,,,,,,747.8509341040626,None,747.8509341040626,None,747.8509341040626,None,2.0,9.66412902250886,747.8509341040626,None,747.8509341040626,None,2.0,19.20576509088277,757.0710227480158,None,747.8509341040626,None,2.0,21.444774698466063,763.3884625099599,None,747.8509341040626,None,space,1.0172111308202147,21.471552677452564,None,747.8509341040626,None,747.8509341040626,None,,,,,,,,,1,2022_May_27_1515,SAR-soap,2021.1.2,
7,Trial # 3,Group1-stimuli/group1-block1/real-group1-b1/Group1_IMG_9704.jpg,1,Group1_IMG_9704.jpg,,,,,0.0,2.0,2.0,2.0,,,,,,,,,,,,,,,,,,,,,,,,,,,,,,,,,,,,,770.4078340809792,None,770.4078340809792,None,770.4078340809792,None,3.0,5.913869156502187,770.4078340809792,None,770.4078340809792,None,1.0,8.286759793758392,775.8762543639168,None,770.4078340809792,None,3.0,11.526615873910488,778.2594740856439,None,770.4078340809792,None,space,1.8087269654497504,10.219938334077597,None,770.4078340809792,None,770.4078340809792,None,,,,,,,,,1,2022_May_27_1515,SAR-soap,2021.1.2,
8,Trial # 4,Group1-stimuli/group1-block1/real-group1-b1/Group1_IMG_0406.jpg,1,Group1_IMG_0406.jpg,,,,,0.0,3.0,3.0,3.0,,,,,,,,,,,,,,,,,,,,,,,,,,,,,,,,,,,,,782.5283437203616,None,782.5283437203616,None,782.5283437203616,None,3.0,70.79332550149411,782.5283437203616,None,782.5283437203616,None,2.0,72.7660472067073,851.1497454792261,None,782.5283437203616,None,3.0,74.73866686131805,854.8506460357457,None,782.5283437203616,None,space,0.6000576224178076,74.75733148213476,None,782.5283437203616,None,782.5283437203616,None,,,,,,,,,1,2022_May_27_1515,SAR-soap,2021.1.2,
9,Trial # 5,Group1-stimuli/group1-block1/fake-group2-b1/encoded_Group2_IMG_0364.jpg,0,encoded_Group2_IMG_0364.jpg,,,,,0.0,4.0,4.0,4.0,,,,,,,,,,,,,,,,,,,,,,,,,,,,,,,,,,,,,857.9351113457233,None,857.9351113457233,None,857.9351113457233,None,2.0,4.426832811906934,857.9351113457233,None,857.9351113457233,None,1.0,5.58372241165489,861.9024884179235,None,857.9351113457233,None,2.0,7.756308346055448,863.0696070417762,None,857.9351113457233,None,space,0.7883409578353167,7.779988341033459,None,857.9351113457233,None,857.9351113457233,None,,,,,,,,,1,2022_May_27_1515,SAR-soap,2021.1.2,
10,Trial # 6,Group1-stimuli/group1-block1/fake-group2-b1/encoded_Group2_IMG_0407.jpg,0,encoded_Group2_IMG_0407.jpg,,,,,0.0,5.0,5.0,5.0,,,,,,,,,,,,,,,,,,,,,,,,,,,,,,,,,,,,,866.554224902764,None,866.554224902764,None,866.554224902764,None,3.0,12.129565098322928,866.554224902764,None,866.554224902764,None,2.0,6.1662920052185655,870.1386991227046,None,866.554224902764,None,2.0,9.007043435238302,872.2724590459839,None,866.554224902764,None,space,4.374049912206829,9.031349517405031,None,866.554224902764,None,866.554224902764,None,,,,,,,,,1,2022_May_27_1515,SAR-soap,2021.1.2,
11,Trial # 7,Group1-stimuli/group1-block1/real-group1-b1/Group1_IMG_0428.jpg,1,Group1_IMG_0428.jpg,,,,,0.0,6.0,6.0,6.0,,,,,,,,,,,,,,,,,,,,,,,,,,,,,,,,,,,,,880.0248758289963,None,880.0248758289963,None,880.0248758289963,None,4.0,4.258588494732976,880.0248758289963,None,880.0248758289963,None,4.0,10.215396698564293,883.8262780942023,None,880.0248758289963,None,3.0,14.022337917238474,885.5936474399641,None,880.0248758289963,None,space,0.4628634098917246,14.04395021032542,None,880.0248758289963,None,880.0248758289963,None,,,,,,,,,1,2022_May_27_1515,SAR-soap,2021.1.2,
12,Trial # 8,Group1-stimuli/group1-block1/fake-group2-b1/encoded_Group2_IMG_0474.jpg,0,encoded_Group2_IMG_0474.jpg,,,,,0.0,7.0,7.0,7.0,,,,,,,,,,,,,,,,,,,,,,,,,,,,,,,,,,,,,894.5633115861565,None,894.5633115861565,None,894.5633115861565,None,2.0,2.408336135558784,894.5633115861565,None,894.5633115861565,None,1.0,4.231396461836994,896.5140255838633,None,894.5633115861565,None,2.0,5.9373850747942924,898.347680282779,None,894.5633115861565,None,space,0.4650125950574875,5.960084082558751,None,894.5633115861565,None,894.5633115861565,None,,,,,,,,,1,2022_May_27_1515,SAR-soap,2021.1.2,
13,Trial # 9,Group1-stimuli/group1-block1/fake-group2-b1/encoded_Group2_IMG_1506.jpg,0,encoded_Group2_IMG_1506.jpg,,,,,0.0,8.0,8.0,8.0,,,,,,,,,,,,,,,,,,,,,,,,,,,,,,,,,,,,,901.0153284510598,None,901.0153284510598,None,901.0153284510598,None,4.0,3.463717862032354,901.0153284510598,None,901.0153284510598,None,5.0,9.405522343702614,904.031970093958,None,901.0153284510598,None,4.0,11.843084276653826,906.049334020354,None,901.0153284510598,None,space,0.7512828353792429,11.870324170216918,None,901.0153284510598,None,901.0153284510598,None,,,,,,,,,1,2022_May_27_1515,SAR-soap,2021.1.2,
14,Trial # 10,Group1-stimuli/group1-block1/real-group1-b1/Group1_IMG_9789.jpg,1,Group1_IMG_9789.jpg,,,,,0.0,9.0,9.0,9.0,,,,,,,,,,,,,,,,,,,,,,,,,,,,,,,,,,,,,913.7013020962476,None,913.7013020962476,None,913.7013020962476,None,2.0,2.2917032027617097,913.7013020962476,None,913.7013020962476,None,1.0,4.163246563635767,915.5362647222356,None,913.7013020962476,None,1.0,7.704690517857671,917.4197291275486,None,913.7013020962476,None,space,0.4471810236573219,7.725373295135796,None,913.7013020962476,None,913.7013020962476,None,,,,,,,,,1,2022_May_27_1515,SAR-soap,2021.1.2,
15,Trial # 11,Group1-stimuli/group1-block1/real-group1-b1/Group1_IMG_9778.jpg,1,Group1_IMG_9778.jpg,,,,,0.0,10.0,10.0,10.0,,,,,,,,,,,,,,,,,,,,,,,,,,,,,,,,,,,,,921.9377915272488,None,921.9377915272488,None,921.9377915272488,None,3.0,2.0771498372778296,921.9377915272488,None,921.9377915272488,None,3.0,23.023195321671665,923.5554714687167,None,921.9377915272488,None,3.0,25.2281532920897,941.81076732371,None,921.9377915272488,None,space,0.4571712864562869,25.25422787014395,None,921.9377915272488,None,921.9377915272488,None,,,,,,,,,1,2022_May_27_1515,SAR-soap,2021.1.2,
16,Trial # 12,Group1-stimuli/group1-block1/real-group1-b1/Group1_IMG_9813.jpg,1,Group1_IMG_9813.jpg,,,,,0.0,11.0,11.0,11.0,,,,,,,,,,,,,,,,,,,,,,,,,,,,,,,,,,,,,947.6950985845178,None,947.6950985845178,None,947.6950985845178,None,2.0,2.7457206919789314,947.6950985845178,None,947.6950985845178,None,1.0,5.16807865165174,949.9807323236018,None,947.6950985845178,None,2.0,6.840283014811575,952.414282896556,None,947.6950985845178,None,space,0.576888314448297,6.867006502114236,None,947.6950985845178,None,947.6950985845178,None,,,,,,,,,1,2022_May_27_1515,SAR-soap,2021.1.2,
17,Trial # 13,Group1-stimuli/group1-block1/real-group1-b1/Group1_IMG_0516.jpg,1,Group1_IMG_0516.jpg,,,,,0.0,12.0,12.0,12.0,,,,,,,,,,,,,,,,,,,,,,,,,,,,,,,,,,,,,955.1822827085851,None,955.1822827085851,None,955.1822827085851,None,3.0,10.819315204396844,955.1822827085851,None,955.1822827085851,None,2.0,14.30906229559332,965.5516658397391,None,955.1822827085851,None,4.0,16.51534604281187,969.052556370385,None,955.1822827085851,None,space,0.5077193500474095,16.547684884630144,None,955.1822827085851,None,955.1822827085851,None,,,,,,,,,1,2022_May_27_1515,SAR-soap,2021.1.2,
18,Trial # 14,Group1-stimuli/group1-block1/fake-group2-b1/encoded_Group2_IMG_0038.jpg,0,encoded_Group2_IMG_0038.jpg,,,,,0.0,13.0,13.0,13.0,,,,,,,,,,,,,,,,,,,,,,,,,,,,,,,,,,,,,972.2867359751835,None,972.2867359751835,None,972.2867359751835,None,4.0,4.89876311365515,972.2867359751835,None,972.2867359751835,None,3.0,15.957938401028514,975.0879856934772,None,972.2867359751835,None,3.0,19.297644719481468,983.5063541568816,None,972.2867359751835,None,space,0.4433318097144365,19.32691441103816,None,972.2867359751835,None,972.2867359751835,None,,,,,,,,,1,2022_May_27_1515,SAR-soap,2021.1.2,
19,Trial # 15,Group1-stimuli/group1-block1/real-group1-b1/Group1_IMG_5984.jpg,1,Group1_IMG_5984.jpg,,,,,0.0,14.0,14.0,14.0,,,,,,,,,,,,,,,,,,,,,,,,,,,,,,,,,,,,,992.1096472078934,None,992.1096472078934,None,992.1096472078934,None,2.0,2.576338325627148,992.1096472078934,None,992.1096472078934,None,1.0,6.933410588651896,994.2273127641528,None,992.1096472078934,None,1.0,8.406226394698024,998.5949308471754,None,992.1096472078934,None,space,0.6597159737721086,8.430186919867992,None,992.1096472078934,None,992.1096472078934,None,,,,,,,,,1,2022_May_27_1515,SAR-soap,2021.1.2,
20,Trial # 16,Group1-stimuli/group1-block1/real-group1-b1/Group1_IMG_0383.jpg,1,Group1_IMG_0383.jpg,,,,,0.0,15.0,15.0,15.0,,,,,,,,,,,,,,,,,,,,,,,,,,,,,,,,,,,,,1001.2289809267968,None,1001.2289809267968,None,1001.2289809267968,None,5.0,2.942352256737649,1001.2289809267968,None,1001.2289809267968,None,2.0,17.136580923572183,1003.7136766137556,None,1001.2289809267968,None,6.0,19.87456271611154,1017.9177820198238,None,1001.2289809267968,None,space,3.1503557125106454,19.899038285948336,None,1001.2289809267968,None,1001.2289809267968,None,,,,,,,,,1,2022_May_27_1515,SAR-soap,2021.1.2,
21,Trial # 17,Group1-stimuli/group1-block1/fake-group2-b1/encoded_Group2_IMG_0456.jpg,0,encoded_Group2_IMG_0456.jpg,,,,,0.0,16.0,16.0,16.0,,,,,,,,,,,,,,,,,,,,,,,,,,,,,,,,,,,,,1024.319694019854,None,1024.319694019854,None,1024.319694019854,None,3.0,4.055867181159556,1024.319694019854,None,1024.319694019854,None,2.0,6.144913975149393,1027.938027812168,None,1024.319694019854,None,3.0,9.24915077071637,1030.0376242445782,None,1024.319694019854,None,space,2.943343749269843,9.28420860785991,None,1024.319694019854,None,1024.319694019854,None,,,,,,,,,1,2022_May_27_1515,SAR-soap,2021.1.2,
22,Trial # 18,Group1-stimuli/group1-block1/fake-group2-b1/encoded_Group2_IMG_8390.jpg,0,encoded_Group2_IMG_8390.jpg,,,,,0.0,17.0,17.0,17.0,,,,,,,,,,,,,,,,,,,,,,,,,,,,,,,,,,,,,1036.6230601146815,None,1036.6230601146815,None,1036.6230601146815,None,5.0,4.264300425536931,1036.6230601146815,None,1036.6230601146815,None,2.0,18.307694303803142,1040.442653032951,None,1036.6230601146815,None,6.0,21.48019942548126,1052.7614370249212,None,1036.6230601146815,None,space,0.5868181232362986,21.508205478079617,None,1036.6230601146815,None,1036.6230601146815,None,,,,,,,,,1,2022_May_27_1515,SAR-soap,2021.1.2,
23,Trial # 19,Group1-stimuli/group1-block1/real-group1-b1/Group1_IMG_0011.jpg,1,Group1_IMG_0011.jpg,,,,,0.0,18.0,18.0,18.0,,,,,,,,,,,,,,,,,,,,,,,,,,,,,,,,,,,,,1058.7802069429308,None,1058.7802069429308,None,1058.7802069429308,None,4.0,3.495019738562405,1058.7802069429308,None,1058.7802069429308,None,2.0,7.585398504510522,1061.815588789992,None,1058.7802069429308,None,4.0,10.09118434973061,1065.9164847303182,None,1058.7802069429308,None,space,0.9772589728236198,10.11560180503875,None,1058.7802069429308,None,1058.7802069429308,None,,,,,,,,,1,2022_May_27_1515,SAR-soap,2021.1.2,
24,Trial # 20,Group1-stimuli/group1-block1/fake-group2-b1/encoded_Group2_IMG_0328.jpg,0,encoded_Group2_IMG_0328.jpg,,,,,0.0,19.0,19.0,19.0,,,,,,,,,,,,,,,,,,,,,,,,,,,,,,,,,,,,,1069.9674579817802,None,1069.9674579817802,None,1069.9674579817802,None,2.0,2.0762193351984024,1069.9674579817802,None,1069.9674579817802,None,1.0,3.931943924166262,1071.5850284611806,None,1069.9674579817802,None,1.0,10.74049759376794,1073.4507148629054,None,1069.9674579817802,None,space,5.993844837881625,7.262867631390691,None,1069.9674579817802,None,1069.9674579817802,None,,,,,,,,,1,2022_May_27_1515,SAR-soap,2021.1.2,
25,Trial # 21,Group1-stimuli/group1-block1/fake-group2-b1/encoded_Group2_IMG_0163.jpg,0,encoded_Group2_IMG_0163.jpg,,,,,0.0,20.0,20.0,20.0,,,,,,,,,,,,,,,,,,,,,,,,,,,,,,,,,,,,,1083.2878748206422,None,1083.2878748206422,None,1083.2878748206422,None,4.0,4.461770562455058,1083.2878748206422,None,1083.2878748206422,None,5.0,10.269193798303604,1087.2891882574186,None,1083.2878748206422,None,3.0,12.006857342086732,1090.3738684765997,None,1083.2878748206422,None,space,0.7842138484120369,12.032132948748767,None,1083.2878748206422,None,1083.2878748206422,None,,,,,,,,,1,2022_May_27_1515,SAR-soap,2021.1.2,
26,Trial # 22,Group1-stimuli/group1-block1/real-group1-b1/Group1_IMG_9862.jpg,1,Group1_IMG_9862.jpg,,,,,0.0,21.0,21.0,21.0,,,,,,,,,,,,,,,,,,,,,,,,,,,,,,,,,,,,,1096.1751135885715,None,1096.1751135885715,None,1096.1751135885715,None,2.0,1.99383057653904,1096.1751135885715,None,1096.1751135885715,None,1.0,2.9838402876630425,1097.709388221614,None,1096.1751135885715,None,1.0,3.788780862465501,1098.7084328895437,None,1096.1751135885715,None,space,0.7873801523819566,3.81556230224669,None,1096.1751135885715,None,1096.1751135885715,None,,,,,,,,,1,2022_May_27_1515,SAR-soap,2021.1.2,
27,Trial # 23,Group1-stimuli/group1-block1/fake-group2-b1/encoded_Group2_IMG_0296.jpg,0,encoded_Group2_IMG_0296.jpg,,,,,0.0,22.0,22.0,22.0,,,,,,,,,,,,,,,,,,,,,,,,,,,,,,,,,,,,,1100.7929437486457,None,1100.7929437486457,None,1100.7929437486457,None,5.0,4.261687774211168,1100.7929437486457,None,1100.7929437486457,None,3.0,7.41931717377156,1104.6124504441395,None,1100.7929437486457,None,4.0,9.859514696523547,1107.7791502168402,None,1100.7929437486457,None,space,1.1808115486055613,9.88497442100197,None,1100.7929437486457,None,1100.7929437486457,None,,,,,,,,,1,2022_May_27_1515,SAR-soap,2021.1.2,
28,Trial # 24,Group1-stimuli/group1-block1/fake-group2-b1/encoded_Group2_IMG_0503.jpg,0,encoded_Group2_IMG_0503.jpg,,,,,0.0,23.0,23.0,23.0,,,,,,,,,,,,,,,,,,,,,,,,,,,,,,,,,,,,,1111.9140006098896,None,1111.9140006098896,None,1111.9140006098896,None,4.0,8.521687417291105,1111.9140006098896,None,1111.9140006098896,None,5.0,11.97880983632058,1119.9824682809412,None,1111.9140006098896,None,4.0,15.25188565440476,1123.4494384871796,None,1111.9140006098896,None,space,1.9142844695597887,13.919435898773372,None,1111.9140006098896,None,1111.9140006098896,None,,,,,,,,,1,2022_May_27_1515,SAR-soap,2021.1.2,
29,Trial # 25,Group1-stimuli/group1-block1/fake-group2-b1/encoded_Group2_IMG_9804.jpg,0,encoded_Group2_IMG_9804.jpg,,,,,0.0,24.0,24.0,24.0,,,,,,,,,,,,,,,,,,,,,,,,,,,,,,,,,,,,,1127.767819026485,None,1127.767819026485,None,1127.767819026485,None,2.0,3.0486393366009,1127.767819026485,None,1127.767819026485,None,1.0,4.353984562680125,1130.3703454378992,None,1127.767819026485,None,1.0,5.758365308865905,1131.68575492315,None,1127.767819026485,None,space,0.5555631350725889,5.786830271594226,None,1127.767819026485,None,1127.767819026485,None,,,,,,,,,1,2022_May_27_1515,SAR-soap,2021.1.2,
30,Trial # 26,Group1-stimuli/group1-block1/real-group1-b1/Group1_IMG_0391.jpg,1,Group1_IMG_0391.jpg,,,,,0.0,25.0,25.0,25.0,,,,,,,,,,,,,,,,,,,,,,,,,,,,,,,,,,,,,1134.153508702293,None,1134.153508702293,None,1134.153508702293,None,3.0,8.801677713170648,1134.153508702293,None,1134.153508702293,None,2.0,14.125337671488523,1142.5056748939678,None,1134.153508702293,None,2.0,16.233615366742015,1147.8411666890606,None,1134.153508702293,None,space,0.8193713668733835,16.263621259480715,None,1134.153508702293,None,1134.153508702293,None,,,,,,,,,1,2022_May_27_1515,SAR-soap,2021.1.2,
31,Trial # 27,Group1-stimuli/group1-block1/fake-group2-b1/encoded_Group2_IMG_3584.jpg,0,encoded_Group2_IMG_3584.jpg,,,,,0.0,26.0,26.0,26.0,,,,,,,,,,,,,,,,,,,,,,,,,,,,,,,,,,,,,1151.342972039245,None,1151.342972039245,None,1151.342972039245,None,3.0,4.617425804957748,1151.342972039245,None,1151.342972039245,None,3.0,10.374924964271486,1155.5111644882709,None,1151.342972039245,None,3.0,12.413480681367218,1161.2789417598397,None,1151.342972039245,None,space,0.4491131920367479,12.445120952092113,None,1151.342972039245,None,1151.342972039245,None,,,,,,,,,1,2022_May_27_1515,SAR-soap,2021.1.2,
32,Trial # 28,Group1-stimuli/group1-block1/fake-group2-b1/encoded_Group2_IMG_0434.jpg,0,encoded_Group2_IMG_0434.jpg,,,,,0.0,27.0,27.0,27.0,,,,,,,,,,,,,,,,,,,,,,,,,,,,,,,,,,,,,1164.2797217033803,None,1164.2797217033803,None,1164.2797217033803,None,5.0,12.86984078027308,1164.2797217033803,None,1164.2797217033803,None,5.0,17.743307524360716,1170.2658634306863,None,1164.2797217033803,None,5.0,20.917066293768585,1181.5859361272303,None,1164.2797217033803,None,space,0.5520257269963622,20.94546086713672,None,1164.2797217033803,None,1164.2797217033803,None,,,,,,,,,1,2022_May_27_1515,SAR-soap,2021.1.2,
33,Trial # 29,Group1-stimuli/group1-block1/fake-group2-b1/encoded_Group2_IMG_9575.jpg,0,encoded_Group2_IMG_9575.jpg,,,,,0.0,28.0,28.0,28.0,,,,,,,,,,,,,,,,,,,,,,,,,,,,,,,,,,,,,1185.8034701095894,None,1185.8034701095894,None,1185.8034701095894,None,2.0,7.180312386713922,1185.8034701095894,None,1185.8034701095894,None,1.0,10.00372382439673,1192.5384727045894,None,1185.8034701095894,None,2.0,12.243291547521949,1195.3729547197,None,1185.8034701095894,None,space,0.6835498567670584,12.269799523986876,None,1185.8034701095894,None,1185.8034701095894,None,,,,,,,,,1,2022_May_27_1515,SAR-soap,2021.1.2,
34,Trial # 30,Group1-stimuli/group1-block1/fake-group2-b1/encoded_Group2_IMG_1025.jpg,0,encoded_Group2_IMG_1025.jpg,,,,,0.0,29.0,29.0,29.0,,,,,,,,,,,,,,,,,,,,,,,,,,,,,,,,,,,,,1198.7904158951717,None,1198.7904158951717,None,1198.7904158951717,None,1.0,4.364196669310331,1198.7904158951717,None,1198.7904158951717,None,1.0,5.052728469483554,1202.708361407742,None,1198.7904158951717,None,1.0,5.824656842276454,1203.4079783596098,None,1198.7904158951717,None,space,1.4345610523596406,5.852217208594084,None,1198.7904158951717,None,1198.7904158951717,None,,,,,,,,,1,2022_May_27_1515,SAR-soap,2021.1.2,
35,Trial # 31,Group1-stimuli/group1-block1/real-group1-b1/Group1_IMG_0502.jpg,1,Group1_IMG_0502.jpg,,,,,0.0,30.0,30.0,30.0,,,,,,,,,,,,,,,,,,,,,,,,,,,,,,,,,,,,,1206.1427063420415,None,1206.1427063420415,None,1206.1427063420415,None,4.0,5.735310643911362,1206.1427063420415,None,1206.1427063420415,None,5.0,11.90891158953309,1211.4274066668004,None,1206.1427063420415,None,5.0,13.949644134379923,1217.6125747943297,None,1206.1427063420415,None,space,1.866580977104604,13.981405658647418,None,1206.1427063420415,None,1206.1427063420415,None,,,,,,,,,1,2022_May_27_1515,SAR-soap,2021.1.2,
36,Trial # 32,Group1-stimuli/group1-block1/real-group1-b1/Group1_IMG_0182.jpg,1,Group1_IMG_0182.jpg,,,,,0.0,31.0,31.0,31.0,,,,,,,,,,,,,,,,,,,,,,,,,,,,,,,,,,,,,1222.047905927524,None,1222.047905927524,None,1222.047905927524,None,4.0,4.347987866960466,1222.047905927524,None,1222.047905927524,None,5.0,7.97132261749357,1225.9497833075002,None,1222.047905927524,None,4.0,13.112827244214714,1229.5834338385612,None,1222.047905927524,None,space,0.9145354749634862,13.14054396841675,None,1222.047905927524,None,1222.047905927524,None,,,,,,,,,1,2022_May_27_1515,SAR-soap,2021.1.2,
37,Trial # 33,Group1-stimuli/group1-block1/fake-group2-b1/encoded_Group2_IMG_2728.jpg,0,encoded_Group2_IMG_2728.jpg,,,,,0.0,32.0,32.0,32.0,,,,,,,,,,,,,,,,,,,,,,,,,,,,,,,,,,,,,1236.1356613319367,None,1236.1356613319367,None,1236.1356613319367,None,3.0,39.32549977209419,1236.1356613319367,None,1236.1356613319367,None,1.0,35.996014409698546,1266.3613583482802,None,1236.1356613319367,None,1.0,38.13617318868637,1271.696242455393,None,1236.1356613319367,None,space,1.7801734190434215,38.162667997181416,None,1236.1356613319367,None,1236.1356613319367,None,,,,,,,,,1,2022_May_27_1515,SAR-soap,2021.1.2,
38,Trial # 34,Group1-stimuli/group1-block1/fake-group2-b1/encoded_Group2_IMG_4867.jpg,0,encoded_Group2_IMG_4867.jpg,,,,,0.0,33.0,33.0,33.0,,,,,,,,,,,,,,,,,,,,,,,,,,,,,,,,,,,,,1276.1150133637711,None,1276.1150133637711,None,1276.1150133637711,None,5.0,15.61690934188664,1276.1150133637711,None,1276.1150133637711,None,4.0,19.657161268405616,1287.919425252825,None,1276.1150133637711,None,5.0,21.462114792317152,1295.3372438782826,None,1276.1150133637711,None,space,0.8723375042900443,21.489783014170825,None,1276.1150133637711,None,1276.1150133637711,None,,,,,,,,,1,2022_May_27_1515,SAR-soap,2021.1.2,
39,Trial # 35,Group1-stimuli/group1-block1/real-group1-b1/Group1_IMG_9894.jpg,1,Group1_IMG_9894.jpg,,,,,0.0,34.0,34.0,34.0,,,,,,,,,,,,,,,,,,,,,,,,,,,,,,,,,,,,,1298.5374598661438,None,1298.5374598661438,None,1298.5374598661438,None,2.0,7.120064592920244,1298.5374598661438,None,1298.5374598661438,None,1.0,5.025536037050188,1299.9550780132413,None,1298.5374598661438,None,1.0,7.897338994778693,1303.12236387562,None,1298.5374598661438,None,space,0.5153668904677033,7.931141500361264,None,1298.5374598661438,None,1298.5374598661438,None,,,,,,,,,1,2022_May_27_1515,SAR-soap,2021.1.2,
40,Trial # 36,Group1-stimuli/group1-block1/fake-group2-b1/encoded_Group2_IMG_0444.jpg,0,encoded_Group2_IMG_0444.jpg,,,,,0.0,35.0,35.0,35.0,,,,,,,,,,,,,,,,,,,,,,,,,,,,,,,,,,,,,1307.0075764264911,None,1307.0075764264911,None,1307.0075764264911,None,3.0,19.902623806148767,1307.0075764264911,None,1307.0075764264911,None,1.0,22.624444561079144,1326.4628166602924,None,1307.0075764264911,None,2.0,23.529676928184927,1329.1963340518996,None,1307.0075764264911,None,space,0.4954629419371485,23.559004195034504,None,1307.0075764264911,None,1307.0075764264911,None,,,,,,,,,1,2022_May_27_1515,SAR-soap,2021.1.2,
41,Trial # 37,Group1-stimuli/group1-block1/real-group1-b1/Group1_IMG_2656.jpg,1,Group1_IMG_2656.jpg,,,,,0.0,36.0,36.0,36.0,,,,,,,,,,,,,,,,,,,,,,,,,,,,,,,,,,,,,1331.0972504103556,None,1331.0972504103556,None,1331.0972504103556,None,3.0,3.229252831079066,1331.0972504103556,None,1331.0972504103556,None,1.0,4.553122324869037,1333.8822104977444,None,1331.0972504103556,None,2.0,5.824723199009895,1335.2162487609312,None,1331.0972504103556,None,space,0.7265939302742481,5.851300066336989,None,1331.0972504103556,None,1331.0972504103556,None,,,,,,,,,1,2022_May_27_1515,SAR-soap,2021.1.2,
42,Trial # 38,Group1-stimuli/group1-block1/real-group1-b1/Group1_IMG_0207.jpg,1,Group1_IMG_0207.jpg,,,,,0.0,37.0,37.0,37.0,,,,,,,,,,,,,,,,,,,,,,,,,,,,,,,,,,,,,1337.7327256025746,None,1337.7327256025746,None,1337.7327256025746,None,2.0,3.893639591522515,1337.7327256025746,None,1337.7327256025746,None,1.0,4.68189861625433,1341.1687227636576,None,1337.7327256025746,None,1.0,5.855125529691577,1341.9673385825008,None,1337.7327256025746,None,space,0.194634766317904,5.878405570983887,None,1337.7327256025746,None,1337.7327256025746,None,,,,,,,,,1,2022_May_27_1515,SAR-soap,2021.1.2,
43,Trial # 39,Group1-stimuli/group1-block1/real-group1-b1/Group1_IMG_9638.jpg,1,Group1_IMG_9638.jpg,,,,,0.0,38.0,38.0,38.0,,,,,,,,,,,,,,,,,,,,,,,,,,,,,,,,,,,,,1343.8340592980385,None,1343.8340592980385,None,1343.8340592980385,None,5.0,4.683163322508335,1343.8340592980385,None,1343.8340592980385,None,4.0,6.84036982152611,1348.0701086483896,None,1343.8340592980385,None,6.0,8.64551357459277,1350.237470768392,None,1343.8340592980385,None,space,0.8447050182148814,8.675137612968683,None,1343.8340592980385,None,1343.8340592980385,None,,,,,,,,,1,2022_May_27_1515,SAR-soap,2021.1.2,
44,Trial # 40,Group1-stimuli/group1-block1/real-group1-b1/Group1_IMG_0148.jpg,1,Group1_IMG_0148.jpg,,,,,0.0,39.0,39.0,39.0,,,,,,,,,,,,,,,,,,,,,,,,,,,,,,,,,,,,,1353.4043932650238,None,1353.4043932650238,None,1353.4043932650238,None,5.0,7.015426232479513,1353.4043932650238,None,1353.4043932650238,None,6.0,4.58709738124162,1356.7554951095954,None,1353.4043932650238,None,6.0,9.391724047251046,1357.5557335605845,None,1353.4043932650238,None,space,2.8204525653272867,9.420144884847105,None,1353.4043932650238,None,1353.4043932650238,None,,,,,,,,,1,2022_May_27_1515,SAR-soap,2021.1.2,
45,Trial # 41,Group1-stimuli/group1-block1/real-group1-b1/Group1_IMG_2891.jpg,1,Group1_IMG_2891.jpg,,,,,0.0,40.0,40.0,40.0,,,,,,,,,,,,,,,,,,,,,,,,,,,,,,,,,,,,,1365.7093863086775,None,1365.7093863086775,None,1365.7093863086775,None,3.0,12.311663367785512,1365.7093863086775,None,1365.7093863086775,None,1.0,13.133542569354177,1377.561812190339,None,1365.7093863086775,None,2.0,16.37417341861874,1378.3959545325488,None,1365.7093863086775,None,space,0.1160356728360056,16.395911578089,None,1365.7093863086775,None,1365.7093863086775,None,,,,,,,,,1,2022_May_27_1515,SAR-soap,2021.1.2,
46,Trial # 42,Group1-stimuli/group1-block1/real-group1-b1/Group1_IMG_0157.jpg,1,Group1_IMG_0157.jpg,,,,,0.0,41.0,41.0,41.0,,,,,,,,,,,,,,,,,,,,,,,,,,,,,,,,,,,,,1382.2972548557443,None,1382.2972548557443,None,1382.2972548557443,None,6.0,3.8399739107117057,1382.2972548557443,None,1382.2972548557443,None,6.0,5.596009247004986,1385.6825084276495,None,1382.2972548557443,None,6.0,10.83577079232782,1387.448308750987,None,1382.2972548557443,None,space,0.1424714904278516,10.855302295647562,None,1382.2972548557443,None,1382.2972548557443,None,,,,,,,,,1,2022_May_27_1515,SAR-soap,2021.1.2,
47,Trial # 43,Group1-stimuli/group1-block1/real-group1-b1/Group1_IMG_9833.jpg,1,Group1_IMG_9833.jpg,,,,,0.0,42.0,42.0,42.0,,,,,,,,,,,,,,,,,,,,,,,,,,,,,,,,,,,,,1393.384282886982,None,1393.384282886982,None,1393.384282886982,None,2.0,2.961127399466932,1393.384282886982,None,1393.384282886982,None,1.0,3.684024518355727,1395.8851383058354,None,1393.384282886982,None,1.0,4.622287757694721,1396.6184513755145,None,1393.384282886982,None,space,0.5383404502645135,4.646535374224186,None,1393.384282886982,None,1393.384282886982,None,,,,,,,,,1,2022_May_27_1515,SAR-soap,2021.1.2,
48,Trial # 44,Group1-stimuli/group1-block1/fake-group2-b1/encoded_Group2_IMG_2230.jpg,0,encoded_Group2_IMG_2230.jpg,,,,,0.0,43.0,43.0,43.0,,,,,,,,,,,,,,,,,,,,,,,,,,,,,,,,,,,,,1398.6010180423036,None,1398.6010180423036,None,1398.6010180423036,None,3.0,4.613675656728447,1398.6010180423036,None,1398.6010180423036,None,4.0,6.736494087614119,1402.770098084584,None,1398.6010180423036,None,4.0,10.74249948374927,1404.9038415430114,None,1398.6010180423036,None,space,0.312557166442275,10.769623926840724,None,1398.6010180423036,None,1398.6010180423036,None,,,,,,,,,1,2022_May_27_1515,SAR-soap,2021.1.2,
49,Trial # 45,Group1-stimuli/group1-block1/real-group1-b1/Group1_IMG_9966.jpg,1,Group1_IMG_9966.jpg,,,,,0.0,44.0,44.0,44.0,,,,,,,,,,,,,,,,,,,,,,,,,,,,,,,,,,,,,1409.7385677024722,None,1409.7385677024722,None,1409.7385677024722,None,4.0,6.5697839399799705,1409.7385677024722,None,1409.7385677024722,None,4.0,10.359514094889164,1415.8576183384284,None,1409.7385677024722,None,6.0,12.631365119479597,1419.6586564444003,None,1409.7385677024722,None,space,1.5031512100249529,11.39489253424108,None,1409.7385677024722,None,1409.7385677024722,None,,,,,,,,,1,2022_May_27_1515,SAR-soap,2021.1.2,
50,Trial # 46,Group1-stimuli/group1-block1/real-group1-b1/Group1_IMG_0239.jpg,1,Group1_IMG_0239.jpg,,,,,0.0,45.0,45.0,45.0,,,,,,,,,,,,,,,,,,,,,,,,,,,,,,,,,,,,,1422.7092955680564,None,1422.7092955680564,None,1422.7092955680564,None,2.0,5.974842163734138,1422.7092955680564,None,1422.7092955680564,None,1.0,6.946932950988412,1428.2274368554354,None,1422.7092955680564,None,1.0,9.686765803955495,1429.2116125505418,None,1422.7092955680564,None,space,0.1682185605168342,9.707804245874286,None,1422.7092955680564,None,1422.7092955680564,None,,,,,,,,,1,2022_May_27_1515,SAR-soap,2021.1.2,
51,Trial # 47,Group1-stimuli/group1-block1/fake-group2-b1/encoded_Group2_IMG_0536.jpg,0,encoded_Group2_IMG_0536.jpg,,,,,0.0,46.0,46.0,46.0,,,,,,,,,,,,,,,,,,,,,,,,,,,,,,,,,,,,,1432.629516204819,None,1432.629516204819,None,1432.629516204819,None,2.0,4.046579258516431,1432.629516204819,None,1432.629516204819,None,1.0,5.669758579693735,1436.2315481808037,None,1432.629516204819,None,1.0,8.37636493332684,1437.8637249004096,None,1432.629516204819,None,space,0.9487565513700248,8.403746732510626,None,1432.629516204819,None,1432.629516204819,None,,,,,,,,,1,2022_May_27_1515,SAR-soap,2021.1.2,
52,Trial # 48,Group1-stimuli/group1-block1/fake-group2-b1/encoded_Group2_IMG_0521.jpg,0,encoded_Group2_IMG_0521.jpg,,,,,0.0,47.0,47.0,47.0,,,,,,,,,,,,,,,,,,,,,,,,,,,,,,,,,,,,,1442.0159438643605,None,1442.0159438643605,None,1442.0159438643605,None,4.0,3.5122274374589324,1442.0159438643605,None,1442.0159438643605,None,3.0,5.902301176451147,1445.0831299144777,None,1442.0159438643605,None,4.0,7.340673399157822,1447.4831529911608,None,1442.0159438643605,None,space,0.2047496810555458,7.367674293927848,None,1442.0159438643605,None,1442.0159438643605,None,,,,,,,,,1,2022_May_27_1515,SAR-soap,2021.1.2,
53,Trial # 49,Group1-stimuli/group1-block1/fake-group2-b1/encoded_Group2_IMG_9924.jpg,0,encoded_Group2_IMG_9924.jpg,,,,,0.0,48.0,48.0,48.0,,,,,,,,,,,,,,,,,,,,,,,,,,,,,,,,,,,,,1449.651169243269,None,1449.651169243269,None,1449.651169243269,None,2.0,10.667621614411471,1449.651169243269,None,1449.651169243269,None,1.0,15.03991677891463,1451.402787538245,None,1449.651169243269,None,1.0,16.64710766263306,1464.255438329652,None,1449.651169243269,None,space,0.2407936323434114,16.675749208778143,None,1449.651169243269,None,1449.651169243269,None,,,,,,,,,1,2022_May_27_1515,SAR-soap,2021.1.2,
54,Trial # 50,Group1-stimuli/group1-block1/real-group1-b1/Group1_IMG_9730.jpg,1,Group1_IMG_9730.jpg,,,,,0.0,49.0,49.0,49.0,,,,,,,,,,,,,,,,,,,,,,,,,,,,,,,,,,,,,1466.6392234703526,None,1466.6392234703526,None,1466.6392234703526,None,4.0,2.2100431881845,1466.6392234703526,None,1466.6392234703526,None,6.0,11.285166525281966,1468.3902659434823,None,1466.6392234703526,None,3.0,13.625029861927032,1472.407620480284,None,1466.6392234703526,None,space,4.198563479818404,13.649502660147846,None,1466.6392234703526,None,1466.6392234703526,None,,,,,,,,,1,2022_May_27_1515,SAR-soap,2021.1.2,
55,Trial # 51,Group1-stimuli/group1-block1/real-group1-b1/Group1_IMG_0053.jpg,1,Group1_IMG_0053.jpg,,,,,0.0,50.0,50.0,50.0,,,,,,,,,,,,,,,,,,,,,,,,,,,,,,,,,,,,,1484.5290511455387,None,1484.5290511455387,None,1484.5290511455387,None,2.0,13.670433568768203,1484.5290511455387,None,1484.5290511455387,None,1.0,10.24224492162466,1492.0304155414924,None,1484.5290511455387,None,1.0,12.04839491378516,1494.331450374797,None,1484.5290511455387,None,space,2.26980343926698,12.079543605446815,None,1484.5290511455387,None,1484.5290511455387,None,,,,,,,,,1,2022_May_27_1515,SAR-soap,2021.1.2,
56,Trial # 52,Group1-stimuli/group1-block1/real-group1-b1/Group1_IMG_9698.jpg,1,Group1_IMG_9698.jpg,,,,,0.0,51.0,51.0,51.0,,,,,,,,,,,,,,,,,,,,,,,,,,,,,,,,,,,,,1498.9329986656085,None,1498.9329986656085,None,1498.9329986656085,None,1.0,2.284679374657572,1498.9329986656085,None,1498.9329986656085,None,1.0,2.8081259289756417,1500.7670982507989,None,1498.9329986656085,None,1.0,3.647333881817758,1501.300196800381,None,1498.9329986656085,None,space,0.3474144069477916,3.678447537124157,None,1498.9329986656085,None,1498.9329986656085,None,,,,,,,,,1,2022_May_27_1515,SAR-soap,2021.1.2,
57,Trial # 53,Group1-stimuli/group1-block1/fake-group2-b1/encoded_Group2_IMG_0553.jpg,0,encoded_Group2_IMG_0553.jpg,,,,,0.0,52.0,52.0,52.0,,,,,,,,,,,,,,,,,,,,,,,,,,,,,,,,,,,,,1503.0003970172256,None,1503.0003970172256,None,1503.0003970172256,None,2.0,2.1727758711203933,1503.0003970172256,None,1503.0003970172256,None,1.0,3.5298306066542864,1504.7186632417142,None,1503.0003970172256,None,1.0,4.701424402184784,1506.0863034892827,None,1503.0003970172256,None,space,0.1178553132340312,4.72079558391124,None,1503.0003970172256,None,1503.0003970172256,None,,,,,,,,,1,2022_May_27_1515,SAR-soap,2021.1.2,
58,Trial # 54,Group1-stimuli/group1-block1/fake-group2-b1/encoded_Group2_IMG_9758.jpg,0,encoded_Group2_IMG_9758.jpg,,,,,0.0,53.0,53.0,53.0,,,,,,,,,,,,,,,,,,,,,,,,,,,,,,,,,,,,,1507.8687772257254,None,1507.8687772257254,None,1507.8687772257254,None,4.0,2.913439807482064,1507.8687772257254,None,1507.8687772257254,None,4.0,6.151968580670655,1509.5700692320245,None,1507.8687772257254,None,5.0,7.691484900191426,1513.587328984402,None,1507.8687772257254,None,space,0.463659861125052,7.719088945537806,None,1507.8687772257254,None,1507.8687772257254,None,,,,,,,,,1,2022_May_27_1515,SAR-soap,2021.1.2,
59,Trial # 55,Group1-stimuli/group1-block1/fake-group2-b1/encoded_Group2_IMG_0339.jpg,0,encoded_Group2_IMG_0339.jpg,,,,,0.0,54.0,54.0,54.0,,,,,,,,,,,,,,,,,,,,,,,,,,,,,,,,,,,,,1516.07095336169,None,1516.07095336169,None,1516.07095336169,None,2.0,14.134507989510894,1516.07095336169,None,1516.07095336169,None,2.0,35.19580966979265,1529.759716543369,None,1516.07095336169,None,1.0,37.600661491043866,1549.4321097768843,None,1516.07095336169,None,space,0.3933766121044755,37.62912865169346,None,1516.07095336169,None,1516.07095336169,None,,,,,,,,,1,2022_May_27_1515,SAR-soap,2021.1.2,
60,Trial # 56,Group1-stimuli/group1-block1/real-group1-b1/Group1_IMG_0314.jpg,1,Group1_IMG_0314.jpg,,,,,0.0,55.0,55.0,55.0,,,,,,,,,,,,,,,,,,,,,,,,,,,,,,,,,,,,,1554.2991270273924,None,1554.2991270273924,None,1554.2991270273924,None,2.0,6.857265290804207,1554.2991270273924,None,1554.2991270273924,None,2.0,7.545934206806123,1560.702973681502,None,1554.2991270273924,None,2.0,8.950660695321858,1561.4019873784855,None,1554.2991270273924,None,space,0.1990730753168463,8.970663756132126,None,1554.2991270273924,None,1554.2991270273924,None,,,,,,,,,1,2022_May_27_1515,SAR-soap,2021.1.2,
61,Trial # 57,Group1-stimuli/group1-block1/fake-group2-b1/encoded_Group2_IMG_0532.jpg,0,encoded_Group2_IMG_0532.jpg,,,,,0.0,56.0,56.0,56.0,,,,,,,,,,,,,,,,,,,,,,,,,,,,,,,,,,,,,1563.502658936195,None,1563.502658936195,None,1563.502658936195,None,3.0,6.1530288169160485,1563.502658936195,None,1563.502658936195,None,2.0,7.708644424565136,1569.204102685675,None,1563.502658936195,None,4.0,9.213869652710857,1570.7722230497748,None,1563.502658936195,None,space,0.4492947580292821,9.246365502476692,None,1563.502658936195,None,1563.502658936195,None,,,,,,,,,1,2022_May_27_1515,SAR-soap,2021.1.2,
62,Trial # 58,Group1-stimuli/group1-block1/fake-group2-b1/encoded_Group2_IMG_0462.jpg,0,encoded_Group2_IMG_0462.jpg,,,,,0.0,57.0,57.0,57.0,,,,,,,,,,,,,,,,,,,,,,,,,,,,,,,,,,,,,1573.255974263884,None,1573.255974263884,None,1573.255974263884,None,3.0,5.080943576060236,1573.255974263884,None,1573.255974263884,None,2.0,7.387989776208997,1577.8905271179974,None,1573.255974263884,None,3.0,9.793390020728111,1580.2080187872052,None,1573.255974263884,None,space,0.9283839389681816,9.820848585106432,None,1573.255974263884,None,1573.255974263884,None,,,,,,,,,1,2022_May_27_1515,SAR-soap,2021.1.2,
63,Trial # 59,Group1-stimuli/group1-block1/real-group1-b1/Group1_IMG_0172.jpg,1,Group1_IMG_0172.jpg,,,,,0.0,58.0,58.0,58.0,,,,,,,,,,,,,,,,,,,,,,,,,,,,,,,,,,,,,1584.0426223417744,None,1584.0426223417744,None,1584.0426223417744,None,2.0,2.1848344998434186,1584.0426223417744,None,1584.0426223417744,None,1.0,3.0079313656315207,1585.7765661347655,None,1584.0426223417744,None,1.0,5.447345572523773,1586.6097276350483,None,1584.0426223417744,None,space,0.9340324895456432,5.479131552390754,None,1584.0426223417744,None,1584.0426223417744,None,,,,,,,,,1,2022_May_27_1515,SAR-soap,2021.1.2,
64,Trial # 60,Group1-stimuli/group1-block1/real-group1-b1/Group1_IMG_4841.jpg,1,Group1_IMG_4841.jpg,,,,,0.0,59.0,59.0,59.0,,,,,,,,,,,,,,,,,,,,,,,,,,,,,,,,,,,,,1590.511674764566,None,1590.511674764566,None,1590.511674764566,None,4.0,2.4305522283539176,1590.511674764566,None,1590.511674764566,None,4.0,5.487239066511393,1592.4952247813344,None,1590.511674764566,None,5.0,10.460306539200246,1595.5632035667077,None,1590.511674764566,None,space,2.9102636827155948,10.488755994476378,None,1590.511674764566,None,1590.511674764566,None,,,,,,,,,1,2022_May_27_1515,SAR-soap,2021.1.2,
65,Trial # 61,Group1-stimuli/group1-block1/fake-group2-b1/encoded_Group2_IMG_0352.jpg,0,encoded_Group2_IMG_0352.jpg,,,,,0.0,60.0,60.0,60.0,,,,,,,,,,,,,,,,,,,,,,,,,,,,,,,,,,,,,1603.9819053579122,None,1603.9819053579122,None,1603.9819053579122,None,1.0,3.1168696992099285,1603.9819053579122,None,1603.9819053579122,None,1.0,3.805335205048322,1606.650034672581,None,1603.9819053579122,None,1.0,4.4439019234851,1607.350154784508,None,1603.9819053579122,None,space,0.3870087005198002,4.473446632735431,None,1603.9819053579122,None,1603.9819053579122,None,,,,,,,,,1,2022_May_27_1515,SAR-soap,2021.1.2,
66,Trial # 62,Group1-stimuli/group1-block1/fake-group2-b1/encoded_Group2_IMG_9726.jpg,0,encoded_Group2_IMG_9726.jpg,,,,,0.0,61.0,61.0,61.0,,,,,,,,,,,,,,,,,,,,,,,,,,,,,,,,,,,,,1608.882917387411,None,1608.882917387411,None,1608.882917387411,None,3.0,2.5871820617467165,1608.882917387411,None,1608.882917387411,None,4.0,4.543737035244703,1611.0178506728262,None,1608.882917387411,None,3.0,6.650159391574562,1612.9849077053368,None,1608.882917387411,None,space,0.2918849941343069,6.684735183604062,None,1608.882917387411,None,1608.882917387411,None,,,,,,,,,1,2022_May_27_1515,SAR-soap,2021.1.2,
67,Trial # 63,Group1-stimuli/group1-block1/fake-group2-b1/encoded_Group2_IMG_9785.jpg,0,encoded_Group2_IMG_9785.jpg,,,,,0.0,62.0,62.0,62.0,,,,,,,,,,,,,,,,,,,,,,,,,,,,,,,,,,,,,1615.88549870532,None,1615.88549870532,None,1615.88549870532,None,3.0,4.668933993205428,1615.88549870532,None,1615.88549870532,None,3.0,5.7079335199669,1619.286396418698,None,1615.88549870532,None,3.0,9.913424654863777,1621.153841059655,None,1615.88549870532,None,space,0.1818384323269128,9.94669869542122,None,1615.88549870532,None,1615.88549870532,None,,,,,,,,,1,2022_May_27_1515,SAR-soap,2021.1.2,
68,Trial # 64,Group1-stimuli/group1-block1/fake-group2-b1/encoded_Group2_IMG_0440.jpg,0,encoded_Group2_IMG_0440.jpg,,,,,0.0,63.0,63.0,63.0,,,,,,,,,,,,,,,,,,,,,,,,,,,,,,,,,,,,,1626.0557254161686,None,1626.0557254161686,None,1626.0557254161686,None,3.0,3.553825763054192,1626.0557254161686,None,1626.0557254161686,None,2.0,4.7775636073201895,1629.1565942568704,None,1626.0557254161686,None,3.0,7.549309989437461,1630.3901975499466,None,1626.0557254161686,None,space,0.2608941895887255,7.568352835252881,None,1626.0557254161686,None,1626.0557254161686,None,,,,,,,,,1,2022_May_27_1515,SAR-soap,2021.1.2,
69,Trial # 65,Group1-stimuli/group1-block1/fake-group2-b1/encoded_Group2_IMG_1695.jpg,0,encoded_Group2_IMG_1695.jpg,,,,,0.0,64.0,64.0,64.0,,,,,,,,,,,,,,,,,,,,,,,,,,,,,,,,,,,,,1633.9236289039254,None,1633.9236289039254,None,1633.9236289039254,None,1.0,1.7697178907692432,1633.9236289039254,None,1633.9236289039254,None,1.0,2.458701306022704,1635.241767436266,None,1633.9236289039254,None,1.0,3.3319594571366906,1635.9418958863243,None,1633.9236289039254,None,space,0.848635483533144,3.364384740591049,None,1633.9236289039254,None,1633.9236289039254,None,,,,,,,,,1,2022_May_27_1515,SAR-soap,2021.1.2,
70,Trial # 66,Group1-stimuli/group1-block1/real-group1-b1/Group1_IMG_0552.jpg,1,Group1_IMG_0552.jpg,,,,,0.0,65.0,65.0,65.0,,,,,,,,,,,,,,,,,,,,,,,,,,,,,,,,,,,,,1638.1754306759683,None,1638.1754306759683,None,1638.1754306759683,None,1.0,2.6983158327639103,1638.1754306759683,None,1638.1754306759683,None,1.0,3.4208683781325817,1640.427383461967,None,1638.1754306759683,None,1.0,4.092312712222338,1641.1606178749353,None,1638.1754306759683,None,space,0.2225905051454901,4.121549625881016,None,1638.1754306759683,None,1638.1754306759683,None,,,,,,,,,1,2022_May_27_1515,SAR-soap,2021.1.2,
71,Trial # 67,Group1-stimuli/group1-block1/real-group1-b1/Group1_IMG_1029.jpg,1,Group1_IMG_1029.jpg,,,,,0.0,66.0,66.0,66.0,,,,,,,,,,,,,,,,,,,,,,,,,,,,,,,,,,,,,1642.5599883124232,None,1642.5599883124232,None,1642.5599883124232,None,4.0,3.1821577940136194,1642.5599883124232,None,1642.5599883124232,None,3.0,4.870039194822311,1645.2955333590508,None,1642.5599883124232,None,4.0,6.743491707369685,1646.9947363594547,None,1642.5599883124232,None,space,0.940052448771894,6.169934190809727,None,1642.5599883124232,None,1642.5599883124232,None,,,,,,,,,1,2022_May_27_1515,SAR-soap,2021.1.2,
72,Trial # 68,Group1-stimuli/group1-block1/fake-group2-b1/encoded_Group2_IMG_6517.jpg,0,encoded_Group2_IMG_6517.jpg,,,,,0.0,67.0,67.0,67.0,,,,,,,,,,,,,,,,,,,,,,,,,,,,,,,,,,,,,1649.7297292845324,None,1649.7297292845324,None,1649.7297292845324,None,1.0,1.6893577966839075,1649.7297292845324,None,1649.7297292845324,None,1.0,2.210138921625912,1650.9811040703207,None,1649.7297292845324,None,1.0,2.882222497835756,1651.513937512413,None,1649.7297292845324,None,space,2.349206054583192,2.918888464570045,None,1649.7297292845324,None,1649.7297292845324,None,,,,,,,,,1,2022_May_27_1515,SAR-soap,2021.1.2,
73,Trial # 69,Group1-stimuli/group1-block1/fake-group2-b1/encoded_Group2_IMG_0002.jpg,0,encoded_Group2_IMG_0002.jpg,,,,,0.0,68.0,68.0,68.0,,,,,,,,,,,,,,,,,,,,,,,,,,,,,,,,,,,,,1655.0648025097323,None,1655.0648025097323,None,1655.0648025097323,None,3.0,6.712518443353474,1655.0648025097323,None,1655.0648025097323,None,3.0,8.302151267416775,1661.316229023971,None,1655.0648025097323,None,3.0,10.274689820595086,1662.917214648798,None,1655.0648025097323,None,space,0.1484744446352124,10.301183043979108,None,1655.0648025097323,None,1655.0648025097323,None,,,,,,,,,1,2022_May_27_1515,SAR-soap,2021.1.2,
74,Trial # 70,Group1-stimuli/group1-block1/real-group1-b1/Group1_IMG_0495.jpg,1,Group1_IMG_0495.jpg,,,,,0.0,69.0,69.0,69.0,,,,,,,,,,,,,,,,,,,,,,,,,,,,,,,,,,,,,1665.584992324002,None,1665.584992324002,None,1665.584992324002,None,1.0,1.8103503743186595,1665.584992324002,None,1665.584992324002,None,1.0,2.7648859014734626,1666.935604341328,None,1665.584992324002,None,1.0,3.5712768621742725,1667.9014605572447,None,1665.584992324002,None,space,0.2203753031790256,3.5954127311706543,None,1665.584992324002,None,1665.584992324002,None,,,,,,,,,1,2022_May_27_1515,SAR-soap,2021.1.2,
75,Trial # 71,Group1-stimuli/group1-block1/real-group1-b1/Group1_IMG_1391.jpg,1,Group1_IMG_1391.jpg,,,,,0.0,70.0,70.0,70.0,,,,,,,,,,,,,,,,,,,,,,,,,,,,,,,,,,,,,1669.4365659030154,None,1669.4365659030154,None,1669.4365659030154,None,3.0,2.84977852832526,1669.4365659030154,None,1669.4365659030154,None,2.0,4.823070198297501,1671.8369261473415,None,1669.4365659030154,None,4.0,5.829390197992325,1673.820172753185,None,1669.4365659030154,None,space,3.7167133474722505,5.858131097629666,None,1669.4365659030154,None,1669.4365659030154,None,,,,,,,,,1,2022_May_27_1515,SAR-soap,2021.1.2,
76,Trial # 72,Group1-stimuli/group1-block1/real-group1-b1/Group1_IMG_0343.jpg,1,Group1_IMG_0343.jpg,,,,,0.0,71.0,71.0,71.0,,,,,,,,,,,,,,,,,,,,,,,,,,,,,,,,,,,,,1679.054420297034,None,1679.054420297034,None,1679.054420297034,None,1.0,3.26320393756032,1679.054420297034,None,1679.054420297034,None,1.0,3.786385987885296,1681.8735081749037,None,1679.054420297034,None,1.0,4.359300021082163,1682.4066819287837,None,1679.054420297034,None,space,0.3408375820145011,4.385788382031024,None,1679.054420297034,None,1679.054420297034,None,,,,,,,,,1,2022_May_27_1515,SAR-soap,2021.1.2,
77,Trial # 73,Group1-stimuli/group1-block1/fake-group2-b1/encoded_Group2_IMG_9810.jpg,0,encoded_Group2_IMG_9810.jpg,,,,,0.0,72.0,72.0,72.0,,,,,,,,,,,,,,,,,,,,,,,,,,,,,,,,,,,,,1683.8392266938465,None,1683.8392266938465,None,1683.8392266938465,None,2.0,2.5679154079407454,1683.8392266938465,None,1683.8392266938465,None,1.0,3.9397481521591535,1685.9574209237471,None,1683.8392266938465,None,1.0,4.745295352302492,1687.3404853576794,None,1683.8392266938465,None,space,0.7565995901823044,4.777060220949352,None,1683.8392266938465,None,1683.8392266938465,None,,,,,,,,,1,2022_May_27_1515,SAR-soap,2021.1.2,
78,Trial # 74,Group1-stimuli/group1-block1/fake-group2-b1/encoded_Group2_IMG_5900.jpg,0,encoded_Group2_IMG_5900.jpg,,,,,0.0,73.0,73.0,73.0,,,,,,,,,,,,,,,,,,,,,,,,,,,,,,,,,,,,,1689.4080800125375,None,1689.4080800125375,None,1689.4080800125375,None,2.0,3.4204409131780267,1689.4080800125375,None,1689.4080800125375,None,1.0,4.092693215236068,1692.375957729295,None,1689.4080800125375,None,1.0,4.8319133734330535,1693.058618368581,None,1689.4080800125375,None,space,0.4007338611409068,4.866327879950404,None,1689.4080800125375,None,1689.4080800125375,None,,,,,,,,,1,2022_May_27_1515,SAR-soap,2021.1.2,
79,Trial # 75,Group1-stimuli/group1-block1/real-group1-b1/Group1_IMG_9679.jpg,1,Group1_IMG_9679.jpg,,,,,0.0,74.0,74.0,74.0,,,,,,,,,,,,,,,,,,,,,,,,,,,,,,,,,,,,,1694.743473323062,None,1694.743473323062,None,1694.743473323062,None,1.0,2.663218134082854,1694.743473323062,None,1694.743473323062,None,1.0,3.3857575738802552,1696.943541941233,None,1694.743473323062,None,1.0,4.156041916459799,1697.677538566291,None,1694.743473323062,None,space,0.2848764657974243,4.1834015576168895,None,1694.743473323062,None,1694.743473323062,None,,,,,,,,,1,2022_May_27_1515,SAR-soap,2021.1.2,
80,Trial # 76,Group1-stimuli/group1-block1/fake-group2-b1/encoded_Group2_IMG_4249.jpg,0,encoded_Group2_IMG_4249.jpg,,,,,0.0,75.0,75.0,75.0,,,,,,,,,,,,,,,,,,,,,,,,,,,,,,,,,,,,,1699.2270614048466,None,1699.2270614048466,None,1699.2270614048466,None,3.0,4.9803071627393365,1699.2270614048466,None,1699.2270614048466,None,5.0,10.754671157337723,1703.763262626715,None,1699.2270614048466,None,3.0,12.860267208889129,1707.5472289081663,None,1699.2270614048466,None,space,2.929302541539073,12.88654265459627,None,1699.2270614048466,None,1699.2270614048466,None,,,,,,,,,1,2022_May_27_1515,SAR-soap,2021.1.2,
81,Trial # 77,Group1-stimuli/group1-block1/fake-group2-b1/encoded_Group2_IMG_0174.jpg,0,encoded_Group2_IMG_0174.jpg,,,,,0.0,76.0,76.0,76.0,,,,,,,,,,,,,,,,,,,,,,,,,,,,,,,,,,,,,1715.0995393106714,None,1715.0995393106714,None,1715.0995393106714,None,2.0,3.945671525783837,1715.0995393106714,None,1715.0995393106714,None,1.0,5.051536756567657,1717.8175069056451,None,1715.0995393106714,None,1.0,5.558245911262929,1719.7186282500625,None,1715.0995393106714,None,space,0.4319019122049212,5.583688648417592,None,1715.0995393106714,None,1715.0995393106714,None,,,,,,,,,1,2022_May_27_1515,SAR-soap,2021.1.2,
82,Trial # 78,Group1-stimuli/group1-block1/fake-group2-b1/encoded_Group2_IMG_0475.jpg,0,encoded_Group2_IMG_0475.jpg,,,,,0.0,77.0,77.0,77.0,,,,,,,,,,,,,,,,,,,,,,,,,,,,,,,,,,,,,1721.1516136601567,None,1721.1516136601567,None,1721.1516136601567,None,1.0,6.799820023588836,1721.1516136601567,None,1721.1516136601567,None,1.0,7.222565936855972,1727.5031804554164,None,1721.1516136601567,None,1.0,7.894391739740968,1727.9362095305696,None,1721.1516136601567,None,space,1.0706319361925123,7.924330791458487,None,1721.1516136601567,None,1721.1516136601567,None,,,,,,,,,1,2022_May_27_1515,SAR-soap,2021.1.2,
83,Trial # 79,Group1-stimuli/group1-block1/fake-group2-b1/encoded_Group2_IMG_9751.jpg,0,encoded_Group2_IMG_9751.jpg,,,,,0.0,78.0,78.0,78.0,,,,,,,,,,,,,,,,,,,,,,,,,,,,,,,,,,,,,1730.1883854744956,None,1730.1883854744956,None,1730.1883854744956,None,3.0,4.364040410146117,1730.1883854744956,None,1730.1883854744956,None,3.0,6.637649599462748,1733.255222723819,None,1730.1883854744956,None,2.0,7.809149828739464,1736.3897939305753,None,1730.1883854744956,None,space,0.2699116477742791,7.835516764782369,None,1730.1883854744956,None,1730.1883854744956,None,,,,,,,,,1,2022_May_27_1515,SAR-soap,2021.1.2,
84,Trial # 80,Group1-stimuli/group1-block1/fake-group2-b1/encoded_Group2_IMG_0492.jpg,0,encoded_Group2_IMG_0492.jpg,,,,,0.0,79.0,79.0,79.0,,,,,,,,,,,,,,,,,,,,,,,,,,,,,,,,,,,,,1738.3397553693503,None,1738.3397553693503,None,1738.3397553693503,None,1.0,2.580039092339576,1738.3397553693503,None,1738.3397553693503,None,1.0,3.67065248824656,1740.4743388444183,None,1738.3397553693503,None,1.0,4.508568995632231,1741.5747019601986,None,1738.3397553693503,None,space,0.2982599623501301,4.534225097857416,None,1738.3397553693503,None,1738.3397553693503,None,,,,,,,,,1,2022_May_27_1515,SAR-soap,2021.1.2,
85,Trial # 81,Group1-stimuli/group1-block1/real-group1-b1/Group1_IMG_0535.jpg,1,Group1_IMG_0535.jpg,,,,,0.0,80.0,80.0,80.0,,,,,,,,,,,,,,,,,,,,,,,,,,,,,,,,,,,,,1743.207678930834,None,1743.207678930834,None,1743.207678930834,None,2.0,4.580809777602553,1743.207678930834,None,1743.207678930834,None,1.0,5.485095852054656,1745.0594172682613,None,1743.207678930834,None,1.0,5.857739547267556,1748.2589437980205,None,1743.207678930834,None,space,0.2394115896895527,5.884550806134939,None,1743.207678930834,None,1743.207678930834,None,,,,,,,,,1,2022_May_27_1515,SAR-soap,2021.1.2,
86,Trial # 82,Group1-stimuli/group1-block1/real-group1-b1/Group1_IMG_0077.jpg,1,Group1_IMG_0077.jpg,,,,,0.0,81.0,81.0,81.0,,,,,,,,,,,,,,,,,,,,,,,,,,,,,,,,,,,,,1749.4092405335978,None,1749.4092405335978,None,1749.4092405335978,None,4.0,4.593407525680959,1749.4092405335978,None,1749.4092405335978,None,3.0,9.117880206555128,1753.5447742063552,None,1749.4092405335978,None,5.0,10.590459356084466,1758.080349933356,None,1749.4092405335978,None,space,0.4057752629742026,10.614067487418652,None,1749.4092405335978,None,1749.4092405335978,None,,,,,,,,,1,2022_May_27_1515,SAR-soap,2021.1.2,
87,Trial # 83,Group1-stimuli/group1-block1/fake-group2-b1/encoded_Group2_IMG_9702.jpg,0,encoded_Group2_IMG_9702.jpg,,,,,0.0,82.0,82.0,82.0,,,,,,,,,,,,,,,,,,,,,,,,,,,,,,,,,,,,,1760.4807028099897,None,1760.4807028099897,None,1760.4807028099897,None,1.0,1.602151927538216,1760.4807028099897,None,1760.4807028099897,None,1.0,2.3584339329972863,1761.6306335525587,None,1760.4807028099897,None,1.0,3.430610673502088,1762.3970649456603,None,1760.4807028099897,None,space,0.4337463798001408,3.464701959863305,None,1760.4807028099897,None,1760.4807028099897,None,,,,,,,,,1,2022_May_27_1515,SAR-soap,2021.1.2,
88,Trial # 84,Group1-stimuli/group1-block1/real-group1-b1/Group1_IMG_0357.jpg,1,Group1_IMG_0357.jpg,,,,,0.0,83.0,83.0,83.0,,,,,,,,,,,,,,,,,,,,,,,,,,,,,,,,,,,,,1764.4313263781369,None,1764.4313263781369,None,1764.4313263781369,None,2.0,9.67976914998144,1764.4313263781369,None,1764.4313263781369,None,1.0,12.486739911139011,1771.3338854303584,None,1764.4313263781369,None,2.0,27.229068035259843,1776.468486614525,None,1764.4313263781369,None,space,14.044123976491392,13.349297917447984,None,1764.4313263781369,None,1764.4313263781369,None,,,,,,,,,1,2022_May_27_1515,SAR-soap,2021.1.2,
89,Trial # 85,Group1-stimuli/group1-block1/real-group1-b1/Group1_IMG_9772.jpg,1,Group1_IMG_9772.jpg,,,,,0.0,84.0,84.0,84.0,,,,,,,,,,,,,,,,,,,,,,,,,,,,,,,,,,,,,1791.8902599429712,None,1791.8902599429712,None,1791.8902599429712,None,4.0,6.510728562250733,1791.8902599429712,None,1791.8902599429712,None,5.0,16.4023859212175,1797.94200707227,None,1791.8902599429712,None,3.0,19.9424322033301,1799.7096452005208,None,1791.8902599429712,None,space,0.2053397269919514,19.96844444796443,None,1791.8902599429712,None,1791.8902599429712,None,,,,,,,,,1,2022_May_27_1515,SAR-soap,2021.1.2,
90,Trial # 86,Group1-stimuli/group1-block1/real-group1-b1/Group1_IMG_0482.jpg,1,Group1_IMG_0482.jpg,,,,,0.0,85.0,85.0,85.0,,,,,,,,,,,,,,,,,,,,,,,,,,,,,,,,,,,,,1812.1134680975229,None,1812.1134680975229,None,1812.1134680975229,None,2.0,2.6173670291900635,1812.1134680975229,None,1812.1134680975229,None,1.0,3.274057783186436,1814.280811171048,None,1812.1134680975229,None,1.0,3.880382830277085,1814.947206637822,None,1812.1134680975229,None,space,0.5014875205233693,3.9118746425956488,None,1812.1134680975229,None,1812.1134680975229,None,,,,,,,,,1,2022_May_27_1515,SAR-soap,2021.1.2,
91,Trial # 87,Group1-stimuli/group1-block1/real-group1-b1/Group1_IMG_0299.jpg,1,Group1_IMG_0299.jpg,,,,,0.0,86.0,86.0,86.0,,,,,,,,,,,,,,,,,,,,,,,,,,,,,,,,,,,,,1816.597530240193,None,1816.597530240193,None,1816.597530240193,None,6.0,9.9307321626693,1816.597530240193,None,1816.597530240193,None,6.0,13.836647144518793,1821.050059128553,None,1816.597530240193,None,4.0,16.809353814460337,1829.9860905176029,None,1816.597530240193,None,space,1.008955117315054,16.83572301734239,None,1816.597530240193,None,1816.597530240193,None,,,,,,,,,1,2022_May_27_1515,SAR-soap,2021.1.2,
92,Trial # 88,Group1-stimuli/group1-block1/fake-group2-b1/encoded_Group2_IMG_0301.jpg,0,encoded_Group2_IMG_0301.jpg,,,,,0.0,87.0,87.0,87.0,,,,,,,,,,,,,,,,,,,,,,,,,,,,,,,,,,,,,1834.4872647114096,None,1834.4872647114096,None,1834.4872647114096,None,4.0,4.3025990799069405,1834.4872647114096,None,1834.4872647114096,None,4.0,5.758210845291615,1838.3373768460008,None,1834.4872647114096,None,3.0,7.630317467264831,1839.805649315007,None,1834.4872647114096,None,space,0.3933631852269172,7.663884970359504,None,1834.4872647114096,None,1834.4872647114096,None,,,,,,,,,1,2022_May_27_1515,SAR-soap,2021.1.2,
93,Trial # 89,Group1-stimuli/group1-block1/fake-group2-b1/encoded_Group2_IMG_5136.jpg,0,encoded_Group2_IMG_5136.jpg,,,,,0.0,88.0,88.0,88.0,,,,,,,,,,,,,,,,,,,,,,,,,,,,,,,,,,,,,1842.5722794849423,None,1842.5722794849423,None,1842.5722794849423,None,6.0,4.452085789293051,1842.5722794849423,None,1842.5722794849423,None,4.0,6.509185084141791,1846.5742118367923,None,1842.5722794849423,None,7.0,9.580963809974492,1848.641376123764,None,1842.5722794849423,None,space,1.8389262314885853,8.179906434379518,None,1842.5722794849423,None,1842.5722794849423,None,,,,,,,,,1,2022_May_27_1515,SAR-soap,2021.1.2,
94,Trial # 90,Group1-stimuli/group1-block1/real-group1-b1/Group1_IMG_0460.jpg,1,Group1_IMG_0460.jpg,,,,,0.0,89.0,89.0,89.0,,,,,,,,,,,,,,,,,,,,,,,,,,,,,,,,,,,,,1852.641981452704,None,1852.641981452704,None,1852.641981452704,None,3.0,8.2663345169276,1852.641981452704,None,1852.641981452704,None,4.0,9.9720639558509,1858.044277889654,None,1852.641981452704,None,3.0,14.54594920296222,1862.178976035677,None,1852.641981452704,None,space,0.3433561027050018,14.572942710481584,None,1852.641981452704,None,1852.641981452704,None,,,,,,,,,1,2022_May_27_1515,SAR-soap,2021.1.2,
95,Trial # 91,Group1-stimuli/group1-block1/fake-group2-b1/encoded_Group2_IMG_0068.jpg,0,encoded_Group2_IMG_0068.jpg,,,,,0.0,90.0,90.0,90.0,,,,,,,,,,,,,,,,,,,,,,,,,,,,,,,,,,,,,1867.629694350064,None,1867.629694350064,None,1867.629694350064,None,6.0,2.508336414583028,1867.629694350064,None,1867.629694350064,None,5.0,4.714122153818607,1869.6813807217404,None,1867.629694350064,None,6.0,6.384757033549249,1871.8985674986616,None,1867.629694350064,None,space,0.4050315441563725,6.406323003582656,None,1867.629694350064,None,1867.629694350064,None,,,,,,,,,1,2022_May_27_1515,SAR-soap,2021.1.2,
96,Trial # 92,Group1-stimuli/group1-block1/real-group1-b1/Group1_IMG_0337.jpg,1,Group1_IMG_0337.jpg,,,,,0.0,91.0,91.0,91.0,,,,,,,,,,,,,,,,,,,,,,,,,,,,,,,,,,,,,1874.516644993797,None,1874.516644993797,None,1874.516644993797,None,2.0,3.0115118958055973,1874.516644993797,None,1874.516644993797,None,1.0,3.467298307456076,1877.066676609218,None,1874.516644993797,None,1.0,4.3057145504280925,1877.5327064432204,None,1874.516644993797,None,space,0.3076447714120149,4.331432647071779,None,1874.516644993797,None,1874.516644993797,None,,,,,,,,,1,2022_May_27_1515,SAR-soap,2021.1.2,
97,Trial # 93,Group1-stimuli/group1-block1/fake-group2-b1/encoded_Group2_IMG_0346.jpg,0,encoded_Group2_IMG_0346.jpg,,,,,0.0,92.0,92.0,92.0,,,,,,,,,,,,,,,,,,,,,,,,,,,,,,,,,,,,,1879.1994997672737,None,1879.1994997672737,None,1879.1994997672737,None,1.0,1.9014041488990188,1879.1994997672737,None,1879.1994997672737,None,1.0,2.291161117143929,1880.6510324859992,None,1879.1994997672737,None,1.0,2.796276385895908,1881.0508720781647,None,1879.1994997672737,None,space,0.2264616647735238,2.82711978815496,None,1879.1994997672737,None,1879.1994997672737,None,,,,,,,,,1,2022_May_27_1515,SAR-soap,2021.1.2,
98,Trial # 94,Group1-stimuli/group1-block1/real-group1-b1/Group1_IMG_4253.jpg,1,Group1_IMG_4253.jpg,,,,,0.0,93.0,93.0,93.0,,,,,,,,,,,,,,,,,,,,,,,,,,,,,,,,,,,,,1882.284750217572,None,1882.284750217572,None,1882.284750217572,None,4.0,4.913820409215987,1882.284750217572,None,1882.284750217572,None,4.0,6.770537745207548,1886.7536075226965,None,1882.284750217572,None,3.0,9.21109551936388,1888.619466799312,None,1882.284750217572,None,space,0.274884563870728,9.239180703647436,None,1882.284750217572,None,1882.284750217572,None,,,,,,,,,1,2022_May_27_1515,SAR-soap,2021.1.2,
99,Trial # 95,Group1-stimuli/group1-block1/fake-group2-b1/encoded_Group2_IMG_9280.jpg,0,encoded_Group2_IMG_9280.jpg,,,,,0.0,94.0,94.0,94.0,,,,,,,,,,,,,,,,,,,,,,,,,,,,,,,,,,,,,1891.854807399213,None,1891.854807399213,None,1891.854807399213,None,5.0,20.39346797205508,1891.854807399213,None,1891.854807399213,None,3.0,23.116372543387115,1911.793793546036,None,1891.854807399213,None,6.0,24.290552776306868,1914.5285792993384,None,1891.854807399213,None,space,0.3787620021030307,24.309557469561696,None,1891.854807399213,None,1891.854807399213,None,,,,,,,,,1,2022_May_27_1515,SAR-soap,2021.1.2,
100,Trial # 96,Group1-stimuli/group1-block1/real-group1-b1/Group1_IMG_0417.jpg,1,Group1_IMG_0417.jpg,,,,,0.0,95.0,95.0,95.0,,,,,,,,,,,,,,,,,,,,,,,,,,,,,,,,,,,,,1916.595830469392,None,1916.595830469392,None,1916.595830469392,None,2.0,3.9945383798331022,1916.595830469392,None,1916.595830469392,None,2.0,5.6516397362574935,1920.1309137409555,None,1916.595830469392,None,1.0,6.489143987186253,1921.7963651446623,None,1916.595830469392,None,space,0.2912137554958462,6.514939333312213,None,1916.595830469392,None,1916.595830469392,None,,,,,,,,,1,2022_May_27_1515,SAR-soap,2021.1.2,
101,Trial # 97,Group1-stimuli/group1-block1/fake-group2-b1/encoded_Group2_IMG_9695.jpg,0,encoded_Group2_IMG_9695.jpg,,,,,0.0,96.0,96.0,96.0,,,,,,,,,,,,,,,,,,,,,,,,,,,,,,,,,,,,,1923.4299613367768,None,1923.4299613367768,None,1923.4299613367768,None,1.0,1.9201683923602104,1923.4299613367768,None,1923.4299613367768,None,1.0,2.593701898120344,1924.8988280314952,None,1923.4299613367768,None,1.0,3.4306207289919257,1925.5817872816697,None,1923.4299613367768,None,space,0.3384865075349808,3.4647203516215086,None,1923.4299613367768,None,1923.4299613367768,None,,,,,,,,,1,2022_May_27_1515,SAR-soap,2021.1.2,
102,Trial # 98,Group1-stimuli/group1-block1/real-group1-b1/Group1_IMG_1160.jpg,1,Group1_IMG_1160.jpg,,,,,0.0,97.0,97.0,97.0,,,,,,,,,,,,,,,,,,,,,,,,,,,,,,,,,,,,,1927.2823739815503,None,1927.2823739815503,None,1927.2823739815503,None,5.0,9.736320533789694,1927.2823739815503,None,1927.2823739815503,None,4.0,4.47549921553582,1929.098794380203,None,1927.2823739815503,None,4.0,14.216187498532236,1931.3167587844653,None,1927.2823739815503,None,space,0.3242664309218526,14.248928698711095,None,1927.2823739815503,None,1927.2823739815503,None,,,,,,,,,1,2022_May_27_1515,SAR-soap,2021.1.2,
103,Trial # 99,Group1-stimuli/group1-block1/real-group1-b1/Group1_IMG_0448.jpg,1,Group1_IMG_0448.jpg,,,,,0.0,98.0,98.0,98.0,,,,,,,,,,,,,,,,,,,,,,,,,,,,,,,,,,,,,1941.88606864959,None,1941.88606864959,None,1941.88606864959,None,3.0,4.101007207296789,1941.88606864959,None,1941.88606864959,None,2.0,6.773479331284761,1945.538440459408,None,1941.88606864959,None,1.0,8.31241078581661,1948.2218061955648,None,1941.88606864959,None,space,0.5022902470082045,8.34314576163888,None,1941.88606864959,None,1941.88606864959,None,,,,,,,,,1,2022_May_27_1515,SAR-soap,2021.1.2,
104,Trial # 100,Group1-stimuli/group1-block1/fake-group2-b1/encoded_Group2_IMG_0393.jpg,0,encoded_Group2_IMG_0393.jpg,,,,,0.0,99.0,99.0,99.0,,,,,,,,,,,,,,,,,,,,,,,,,,,,,,,,,,,,,1950.773049574345,None,1950.773049574345,None,1950.773049574345,None,2.0,11.765126472339034,1950.773049574345,None,1950.773049574345,None,2.0,12.703771931119263,1958.3087013727047,None,1950.773049574345,None,2.0,15.212456721812488,1963.0422788802528,None,1950.773049574345,None,space,2.1295670866966248,15.239053367637098,None,1950.773049574345,None,1950.773049574345,None,,,,,,,,,1,2022_May_27_1515,SAR-soap,2021.1.2,
105,Trial # 101,Group1-stimuli/group1-block1/real-group1-b1/Group1_IMG_0090.jpg,1,Group1_IMG_0090.jpg,,,,,0.0,100.0,100.0,100.0,,,,,,,,,,,,,,,,,,,,,,,,,,,,,,,,,,,,,1968.2112193014475,None,1968.2112193014475,None,1968.2112193014475,None,1.0,1.6929521011188626,1968.2112193014475,None,1968.2112193014475,None,1.0,2.484059772454202,1969.445479377173,None,1968.2112193014475,None,1.0,3.3545233104377985,1970.2459815414625,None,1968.2112193014475,None,space,0.2972283577546477,3.381253789179027,None,1968.2112193014475,None,1968.2112193014475,None,,,,,,,,,1,2022_May_27_1515,SAR-soap,2021.1.2,
106,Trial # 102,Group1-stimuli/group1-block1/real-group1-b1/Group1_IMG_0310.jpg,1,Group1_IMG_0310.jpg,,,,,0.0,101.0,101.0,101.0,,,,,,,,,,,,,,,,,,,,,,,,,,,,,,,,,,,,,1972.0287392362952,None,1972.0287392362952,None,1972.0287392362952,None,1.0,2.150399772450328,1972.0287392362952,None,1972.0287392362952,None,1.0,2.605517879128456,1973.72951872088,None,1972.0287392362952,None,1.0,3.2109644385054708,1974.1964857196435,None,1972.0287392362952,None,space,0.2685837186872959,3.242566884495318,None,1972.0287392362952,None,1972.0287392362952,None,,,,,,,,,1,2022_May_27_1515,SAR-soap,2021.1.2,
107,Trial # 103,Group1-stimuli/group1-block1/fake-group2-b1/encoded_Group2_IMG_0528.jpg,0,encoded_Group2_IMG_0528.jpg,,,,,0.0,102.0,102.0,102.0,,,,,,,,,,,,,,,,,,,,,,,,,,,,,,,,,,,,,1975.596520209685,None,1975.596520209685,None,1975.596520209685,None,3.0,1.916063382290304,1975.596520209685,None,1975.596520209685,None,2.0,6.072744169272482,1977.064069065265,None,1975.596520209685,None,1.0,9.746063286438584,1978.563710669056,None,1975.596520209685,None,space,4.426026378758252,7.508439796976745,None,1975.596520209685,None,1975.596520209685,None,,,,,,,,,1,2022_May_27_1515,SAR-soap,2021.1.2,
108,Trial # 104,Group1-stimuli/group1-block1/fake-group2-b1/encoded_Group2_IMG_1975.jpg,0,encoded_Group2_IMG_1975.jpg,,,,,0.0,103.0,103.0,103.0,,,,,,,,,,,,,,,,,,,,,,,,,,,,,,,,,,,,,1987.5499907825144,None,1987.5499907825144,None,1987.5499907825144,None,2.0,3.1476862113922834,1987.5499907825144,None,1987.5499907825144,None,1.0,5.420232809148729,1989.434031551704,None,1987.5499907825144,None,1.0,5.991484446451068,1992.535125340335,None,1987.5499907825144,None,space,0.6442547990009189,6.019291754812002,None,1987.5499907825144,None,1987.5499907825144,None,,,,,,,,,1,2022_May_27_1515,SAR-soap,2021.1.2,
109,Trial # 105,Group1-stimuli/group1-block1/fake-group2-b1/encoded_Group2_IMG_0052.jpg,0,encoded_Group2_IMG_0052.jpg,,,,,0.0,104.0,104.0,104.0,,,,,,,,,,,,,,,,,,,,,,,,,,,,,,,,,,,,,1994.252604235895,None,1994.252604235895,None,1994.252604235895,None,1.0,1.8459656033664944,1994.252604235895,None,1994.252604235895,None,1.0,2.3021475840359926,1995.6542535424232,None,1994.252604235895,None,1.0,2.9081917656585574,1996.1203542929145,None,1994.252604235895,None,space,0.4819124592468142,2.933773843571544,None,1994.252604235895,None,1994.252604235895,None,,,,,,,,,1,2022_May_27_1515,SAR-soap,2021.1.2,
110,Trial # 106,Group1-stimuli/group1-block1/fake-group2-b1/encoded_Group2_IMG_0225.jpg,0,encoded_Group2_IMG_0225.jpg,,,,,0.0,105.0,105.0,105.0,,,,,,,,,,,,,,,,,,,,,,,,,,,,,,,,,,,,,1997.7199575267728,None,1997.7199575267728,None,1997.7199575267728,None,2.0,3.18268602155149,1997.7199575267728,None,1997.7199575267728,None,2.0,6.688560496084392,1999.40403066203,None,1997.7199575267728,None,2.0,7.994619542732835,2003.9713317519047,None,1997.7199575267728,None,space,0.1926277577877044,8.0254522934556,None,1997.7199575267728,None,1997.7199575267728,None,,,,,,,,,1,2022_May_27_1515,SAR-soap,2021.1.2,
111,Trial # 107,Group1-stimuli/group1-block1/real-group1-b1/Group1_IMG_2231.jpg,1,Group1_IMG_2231.jpg,,,,,0.0,106.0,106.0,106.0,,,,,,,,,,,,,,,,,,,,,,,,,,,,,,,,,,,,,2005.9724858449767,None,2005.9724858449767,None,2005.9724858449767,None,4.0,2.1156141022220254,2005.9724858449767,None,2005.9724858449767,None,3.0,5.20600759703666,2007.639723961241,None,2005.9724858449767,None,3.0,6.278755407780409,2010.741122851148,None,2005.9724858449767,None,space,0.9214939186349512,6.309106092900038,None,2005.9724858449767,None,2005.9724858449767,None,,,,,,,,,1,2022_May_27_1515,SAR-soap,2021.1.2,
112,Trial # 108,Group1-stimuli/group1-block1/real-group1-b1/Group1_IMG_0217.jpg,1,Group1_IMG_0217.jpg,,,,,0.0,107.0,107.0,107.0,,,,,,,,,,,,,,,,,,,,,,,,,,,,,,,,,,,,,2013.2412318559363,None,2013.2412318559363,None,2013.2412318559363,None,3.0,8.333013474941254,2013.2412318559363,None,2013.2412318559363,None,3.0,8.737090175971389,2017.193180456757,None,2013.2412318559363,None,2.0,11.576874922029674,2021.5446239979933,None,2013.2412318559363,None,space,3.4494525119662285,9.570471880957484,None,2013.2412318559363,None,2013.2412318559363,None,,,,,,,,,1,2022_May_27_1515,SAR-soap,2021.1.2,
113,Trial # 109,Group1-stimuli/group1-block1/real-group1-b1/Group1_IMG_0264.jpg,1,Group1_IMG_0264.jpg,,,,,0.0,108.0,108.0,108.0,,,,,,,,,,,,,,,,,,,,,,,,,,,,,,,,,,,,,2026.346381683834,None,2026.346381683834,None,2026.346381683834,None,4.0,2.9887250158935785,2026.346381683834,None,2026.346381683834,None,5.0,6.312171180732548,2028.8798143183808,None,2026.346381683834,None,3.0,7.850512917153537,2032.214416835457,None,2026.346381683834,None,space,0.5494440114125609,7.871895490214229,None,2026.346381683834,None,2026.346381683834,None,,,,,,,,,1,2022_May_27_1515,SAR-soap,2021.1.2,
114,Trial # 110,Group1-stimuli/group1-block1/fake-group2-b1/encoded_Group2_IMG_0254.jpg,0,encoded_Group2_IMG_0254.jpg,,,,,0.0,109.0,109.0,109.0,,,,,,,,,,,,,,,,,,,,,,,,,,,,,,,,,,,,,2034.8154658218848,None,2034.8154658218848,None,2034.8154658218848,None,1.0,2.184648010879755,2034.8154658218848,None,2034.8154658218848,None,1.0,3.0063550751656294,2036.550022597425,None,2034.8154658218848,None,1.0,3.713019584305584,2037.383265242912,None,2034.8154658218848,None,space,0.5272235656157136,3.74311119504273,None,2034.8154658218848,None,2034.8154658218848,None,,,,,,,,,1,2022_May_27_1515,SAR-soap,2021.1.2,
115,Trial # 111,Group1-stimuli/group1-block1/fake-group2-b1/encoded_Group2_IMG_5433.jpg,0,encoded_Group2_IMG_5433.jpg,,,,,0.0,110.0,110.0,110.0,,,,,,,,,,,,,,,,,,,,,,,,,,,,,,,,,,,,,2039.165580756031,None,2039.165580756031,None,2039.165580756031,None,1.0,1.7507665567100048,2039.165580756031,None,2039.165580756031,None,1.0,2.3729202346876264,2040.4671379933127,None,2039.165580756031,None,1.0,3.744097698479891,2041.100003859028,None,2039.165580756031,None,space,0.1103555206209421,3.776118752546608,None,2039.165580756031,None,2039.165580756031,None,,,,,,,,,1,2022_May_27_1515,SAR-soap,2021.1.2,
116,Trial # 112,Group1-stimuli/group1-block1/real-group1-b1/Group1_IMG_0252.jpg,1,Group1_IMG_0252.jpg,,,,,0.0,111.0,111.0,111.0,,,,,,,,,,,,,,,,,,,,,,,,,,,,,,,,,,,,,2043.100063165649,None,2043.100063165649,None,2043.100063165649,None,1.0,2.018560346215964,2043.100063165649,None,2043.100063165649,None,1.0,2.7082965299487114,2044.6687959674744,None,2043.100063165649,None,1.0,3.446239072829485,2045.3690176047385,None,2043.100063165649,None,space,1.6842159740626812,3.47777337115258,None,2043.100063165649,None,2043.100063165649,None,,,,,,,,,1,2022_May_27_1515,SAR-soap,2021.1.2,
117,Trial # 113,Group1-stimuli/group1-block1/real-group1-b1/Group1_IMG_9720.jpg,1,Group1_IMG_9720.jpg,,,,,0.0,112.0,112.0,112.0,,,,,,,,,,,,,,,,,,,,,,,,,,,,,,,,,,,,,2048.3734750496224,None,2048.3734750496224,None,2048.3734750496224,None,3.0,9.141068717464805,2048.3734750496224,None,2048.3734750496224,None,4.0,10.329843775369229,2057.0559759661555,None,2048.3734750496224,None,5.0,12.50290982145816,2058.255631001666,None,2048.3734750496224,None,space,0.2344638183712959,12.522382332012056,None,2048.3734750496224,None,2048.3734750496224,None,,,,,,,,,1,2022_May_27_1515,SAR-soap,2021.1.2,
118,Trial # 114,Group1-stimuli/group1-block1/fake-group2-b1/encoded_Group2_IMG_0550.jpg,0,encoded_Group2_IMG_0550.jpg,,,,,0.0,113.0,113.0,113.0,,,,,,,,,,,,,,,,,,,,,,,,,,,,,,,,,,,,,2061.190166223794,None,2061.190166223794,None,2061.190166223794,None,2.0,5.66891807410866,2061.190166223794,None,2061.190166223794,None,1.0,6.124924533069134,2066.408139748499,None,2061.190166223794,None,1.0,6.696066049858928,2066.874972479418,None,2061.190166223794,None,space,1.5919479047879577,6.729599774815142,None,2061.190166223794,None,2061.190166223794,None,,,,,,,,,1,2022_May_27_1515,SAR-soap,2021.1.2,
119,Trial # 115,Group1-stimuli/group1-block1/real-group1-b1/Group1_IMG_9915.jpg,1,Group1_IMG_9915.jpg,,,,,0.0,114.0,114.0,114.0,,,,,,,,,,,,,,,,,,,,,,,,,,,,,,,,,,,,,2069.54302904848,None,2069.54302904848,None,2069.54302904848,None,2.0,2.025658903643489,2069.54302904848,None,2069.54302904848,None,1.0,2.6149299079552293,2071.109812360257,None,2069.54302904848,None,1.0,3.2554017109796405,2071.7105823215097,None,2069.54302904848,None,space,2.153883426450193,3.2776307091116905,None,2069.54302904848,None,2069.54302904848,None,,,,,,,,,1,2022_May_27_1515,SAR-soap,2021.1.2,
120,Trial # 116,Group1-stimuli/group1-block1/real-group1-b1/Group1_IMG_9850.jpg,1,Group1_IMG_9850.jpg,,,,,0.0,115.0,115.0,115.0,,,,,,,,,,,,,,,,,,,,,,,,,,,,,,,,,,,,,2075.0112439906225,None,2075.0112439906225,None,2075.0112439906225,None,1.0,2.600468978285789,2075.0112439906225,None,2075.0112439906225,None,1.0,3.023812892846763,2077.161220856011,None,2075.0112439906225,None,1.0,3.895264694467187,2077.5948680313304,None,2075.0112439906225,None,space,1.363824604079127,3.92772354837507,None,2075.0112439906225,None,2075.0112439906225,None,,,,,,,,,1,2022_May_27_1515,SAR-soap,2021.1.2,
121,Trial # 117,Group1-stimuli/group1-block1/real-group1-b1/Group1_IMG_3579.jpg,1,Group1_IMG_3579.jpg,,,,,0.0,116.0,116.0,116.0,,,,,,,,,,,,,,,,,,,,,,,,,,,,,,,,,,,,,2080.3287145979702,None,2080.3287145979702,None,2080.3287145979702,None,4.0,5.333606583997607,2080.3287145979702,None,2080.3287145979702,None,2.0,8.622769741341472,2085.2142720744014,None,2080.3287145979702,None,3.0,11.32972133345902,2088.514536933042,None,2080.3287145979702,None,space,0.8411220265552402,11.36054094787687,None,2080.3287145979702,None,2080.3287145979702,None,,,,,,,,,1,2022_May_27_1515,SAR-soap,2021.1.2,
122,Trial # 118,Group1-stimuli/group1-block1/fake-group2-b1/encoded_Group2_IMG_0377.jpg,0,encoded_Group2_IMG_0377.jpg,,,,,0.0,117.0,117.0,117.0,,,,,,,,,,,,,,,,,,,,,,,,,,,,,,,,,,,,,2092.58278739918,None,2092.58278739918,None,2092.58278739918,None,1.0,13.30721967574209,2092.58278739918,None,2092.58278739918,None,1.0,13.79661558754742,2105.4371646298096,None,2092.58278739918,None,1.0,14.36806770414114,2105.937751655467,None,2092.58278739918,None,space,1.145529749803245,14.402234598994257,None,2092.58278739918,None,2092.58278739918,None,,,,,,,,,1,2022_May_27_1515,SAR-soap,2021.1.2,
123,Trial # 119,Group1-stimuli/group1-block1/real-group1-b1/Group1_IMG_0469.jpg,1,Group1_IMG_0469.jpg,,,,,0.0,118.0,118.0,118.0,,,,,,,,,,,,,,,,,,,,,,,,,,,,,,,,,,,,,2108.203663016669,None,2108.203663016669,None,2108.203663016669,None,1.0,4.743976428173482,2108.203663016669,None,2108.203663016669,None,1.0,5.89931446313858,2112.488764701411,None,2108.203663016669,None,1.0,7.939470905810595,2113.6560271196067,None,2108.203663016669,None,space,0.4874837603420019,7.962818957865238,None,2108.203663016669,None,2108.203663016669,None,,,,,,,,,1,2022_May_27_1515,SAR-soap,2021.1.2,
124,Trial # 120,Group1-stimuli/group1-block1/fake-group2-b1/encoded_Group2_IMG_0100.jpg,0,encoded_Group2_IMG_0100.jpg,,,,,0.0,119.0,119.0,119.0,,,,,,,,,,,,,,,,,,,,,,,,,,,,,,,,,,,,,2116.723074386828,None,2116.723074386828,None,2116.723074386828,None,2.0,2.858599933795631,2116.723074386828,None,2116.723074386828,None,1.0,4.615545227192342,2119.1238956768066,None,2116.723074386828,None,1.0,5.1884591188281775,2120.8923899531364,None,2116.723074386828,None,space,2.5595433386042714,5.209999430924654,None,2116.723074386828,None,2116.723074386828,None,,,,,,,,,1,2022_May_27_1515,SAR-soap,2021.1.2,
125,Trial # 121,Group1-stimuli/group1-block1/real-group1-b1/Group1_IMG_5359.jpg,1,Group1_IMG_5359.jpg,,,,,0.0,120.0,120.0,120.0,,,,,,,,,,,,,,,,,,,,,,,,,,,,,,,,,,,,,2124.5259172376245,None,2124.5259172376245,None,2124.5259172376245,None,3.0,3.801523675210774,2124.5259172376245,None,2124.5259172376245,None,2.0,5.491131060756743,2127.8770528510213,None,2124.5259172376245,None,2.0,9.797642131336032,2129.5782274352387,None,2124.5259172376245,None,space,0.1861168630421161,9.830915092490612,None,2124.5259172376245,None,2124.5259172376245,None,,,,,,,,,1,2022_May_27_1515,SAR-soap,2021.1.2,
126,Trial # 122,Group1-stimuli/group1-block1/fake-group2-b1/encoded_Group2_IMG_0304.jpg,0,encoded_Group2_IMG_0304.jpg,,,,,0.0,121.0,121.0,121.0,,,,,,,,,,,,,,,,,,,,,,,,,,,,,,,,,,,,,2134.562694240361,None,2134.562694240361,None,2134.562694240361,None,4.0,2.7305995281785727,2134.562694240361,None,2134.562694240361,None,4.0,5.06868938356638,2136.847566930577,None,2134.562694240361,None,4.0,8.108620173297822,2139.196699010208,None,2134.562694240361,None,space,1.4815828669816256,8.137452026829123,None,2134.562694240361,None,2134.562694240361,None,,,,,,,,,1,2022_May_27_1515,SAR-soap,2021.1.2,
127,Trial # 123,Group1-stimuli/group1-block1/real-group1-b1/Group1_IMG_0306.jpg,1,Group1_IMG_0306.jpg,,,,,0.0,122.0,122.0,122.0,,,,,,,,,,,,,,,,,,,,,,,,,,,,,,,,,,,,,2144.231514691375,None,2144.231514691375,None,2144.231514691375,None,4.0,4.013123758137226,2144.231514691375,None,2144.231514691375,None,3.0,5.703153368085623,2147.800536060706,None,2144.231514691375,None,3.0,7.775094628334045,2149.5004704454914,None,2144.231514691375,None,space,0.5062723215669394,7.802819399163127,None,2144.231514691375,None,2144.231514691375,None,,,,,,,,,1,2022_May_27_1515,SAR-soap,2021.1.2,
128,Trial # 124,Group1-stimuli/group1-block1/real-group1-b1/Group1_IMG_0224.jpg,1,Group1_IMG_0224.jpg,,,,,0.0,123.0,123.0,123.0,,,,,,,,,,,,,,,,,,,,,,,,,,,,,,,,,,,,,2152.601491093636,None,2152.601491093636,None,2152.601491093636,None,3.0,4.782475081272423,2152.601491093636,None,2152.601491093636,None,3.0,5.436686787754297,2156.936625942588,None,2152.601491093636,None,3.0,6.142128497362137,2157.602848602459,None,2152.601491093636,None,space,0.6188956284895539,6.170104942284524,None,2152.601491093636,None,2152.601491093636,None,,,,,,,,,1,2022_May_27_1515,SAR-soap,2021.1.2,
129,Trial # 125,Group1-stimuli/group1-block1/real-group1-b1/Group1_IMG_9889.jpg,1,Group1_IMG_9889.jpg,,,,,0.0,124.0,124.0,124.0,,,,,,,,,,,,,,,,,,,,,,,,,,,,,,,,,,,,,2159.4357721088454,None,2159.4357721088454,None,2159.4357721088454,None,1.0,4.357542985118926,2159.4357721088454,None,2159.4357721088454,None,1.0,5.646935517899692,2163.338395453989,None,2159.4357721088454,None,1.0,6.486626920290291,2164.6383818509057,None,2159.4357721088454,None,space,0.2251319251954555,6.506357938982546,None,2159.4357721088454,None,2159.4357721088454,None,,,,,,,,,1,2022_May_27_1515,SAR-soap,2021.1.2,
130,Trial # 126,Group1-stimuli/group1-block1/real-group1-b1/Group1_IMG_0293.jpg,1,Group1_IMG_0293.jpg,,,,,0.0,125.0,125.0,125.0,,,,,,,,,,,,,,,,,,,,,,,,,,,,,,,,,,,,,2166.205932159908,None,2166.205932159908,None,2166.205932159908,None,1.0,1.4828704614192247,2166.205932159908,None,2166.205932159908,None,1.0,1.871087442152202,2167.239051655866,None,2166.205932159908,None,1.0,2.609507642686367,2167.6386698614806,None,2166.205932159908,None,space,4.060942471958697,2.641628386452794,None,2166.205932159908,None,2166.205932159908,None,,,,,,,,,1,2022_May_27_1515,SAR-soap,2021.1.2,
131,Trial # 127,Group1-stimuli/group1-block1/fake-group2-b1/encoded_Group2_IMG_0321.jpg,0,encoded_Group2_IMG_0321.jpg,,,,,0.0,126.0,126.0,126.0,,,,,,,,,,,,,,,,,,,,,,,,,,,,,,,,,,,,,2172.9744688011706,None,2172.9744688011706,None,2172.9744688011706,None,1.0,3.9382030563429,2172.9744688011706,None,2172.9744688011706,None,2.0,4.560744888149202,2176.458540767432,None,2172.9744688011706,None,1.0,4.99991166125983,2177.0924164708704,None,2172.9744688011706,None,space,0.395446571521461,5.018713249824941,None,2172.9744688011706,None,2172.9744688011706,None,,,,,,,,,1,2022_May_27_1515,SAR-soap,2021.1.2,
132,Trial # 128,Group1-stimuli/group1-block1/fake-group2-b1/encoded_Group2_IMG_0400.jpg,0,encoded_Group2_IMG_0400.jpg,,,,,0.0,127.0,127.0,127.0,,,,,,,,,,,,,,,,,,,,,,,,,,,,,,,,,,,,,2178.426115945913,None,2178.426115945913,None,2178.426115945913,None,2.0,3.575837305746973,2178.426115945913,None,2178.426115945913,None,3.0,4.998272228986025,2181.5439830021933,None,2178.426115945913,None,2.0,7.47090619802475,2182.9771335665137,None,2178.426115945913,None,space,0.2208636188879609,7.493955356068909,None,2178.426115945913,None,2178.426115945913,None,,,,,,,,,1,2022_May_27_1515,SAR-soap,2021.1.2,
133,Trial # 129,Group1-stimuli/group1-block1/fake-group2-b1/encoded_Group2_IMG_0443.jpg,0,encoded_Group2_IMG_0443.jpg,,,,,0.0,128.0,128.0,128.0,,,,,,,,,,,,,,,,,,,,,,,,,,,,,,,,,,,,,2186.1786894677207,None,2186.1786894677207,None,2186.1786894677207,None,3.0,3.6480090022087097,2186.1786894677207,None,2186.1786894677207,None,4.0,5.405316865071654,2189.3798103174195,None,2186.1786894677207,None,3.0,7.711513321846724,2191.1464690109715,None,2186.1786894677207,None,space,0.9946400187909604,7.740883852355182,None,2186.1786894677207,None,2186.1786894677207,None,,,,,,,,,1,2022_May_27_1515,SAR-soap,2021.1.2,
134,Trial # 130,Group1-stimuli/group1-block1/fake-group2-b1/encoded_Group2_IMG_0542.jpg,0,encoded_Group2_IMG_0542.jpg,,,,,0.0,129.0,129.0,129.0,,,,,,,,,,,,,,,,,,,,,,,,,,,,,,,,,,,,,2194.930918435566,None,2194.930918435566,None,2194.930918435566,None,1.0,9.498388465493916,2194.930918435566,None,2194.930918435566,None,1.0,10.25632203090936,2203.9839658103883,None,2194.930918435566,None,1.0,11.027712468989192,2204.750971833244,None,2194.930918435566,None,space,1.7868878776207566,11.055478055030107,None,2194.930918435566,None,2194.930918435566,None,,,,,,,,,1,2022_May_27_1515,SAR-soap,2021.1.2,
135,Trial # 131,Group1-stimuli/group1-block1/real-group1-b1/Group1_IMG_0885.jpg,1,Group1_IMG_0885.jpg,,,,,0.0,130.0,130.0,130.0,,,,,,,,,,,,,,,,,,,,,,,,,,,,,,,,,,,,,2207.852096684277,None,2207.852096684277,None,2207.852096684277,None,5.0,5.875841794535518,2207.852096684277,None,2207.852096684277,None,5.0,8.66637830901891,2213.269582554698,None,2207.852096684277,None,4.0,10.87241442874074,2216.0715724462643,None,2207.852096684277,None,space,0.6347245322540402,10.89337711967528,None,2207.852096684277,None,2207.852096684277,None,,,,,,,,,1,2022_May_27_1515,SAR-soap,2021.1.2,
136,Trial # 132,Group1-stimuli/group1-block1/real-group1-b1/Group1_IMG_0375.jpg,1,Group1_IMG_0375.jpg,,,,,0.0,131.0,131.0,131.0,,,,,,,,,,,,,,,,,,,,,,,,,,,,,,,,,,,,,2219.438304536976,None,2219.438304536976,None,2219.438304536976,None,1.0,1.80595191475004,2219.438304536976,None,2219.438304536976,None,1.0,2.5956509364768863,2220.790366382338,None,2219.438304536976,None,1.0,3.099920851178468,2221.5900463312864,None,2219.438304536976,None,space,1.1116891531273725,3.12067436799407,None,2219.438304536976,None,2219.438304536976,None,,,,,,,,,1,2022_May_27_1515,SAR-soap,2021.1.2,
137,Trial # 133,Group1-stimuli/group1-block1/fake-group2-b1/encoded_Group2_IMG_7351.jpg,0,encoded_Group2_IMG_7351.jpg,,,,,0.0,132.0,132.0,132.0,,,,,,,,,,,,,,,,,,,,,,,,,,,,,,,,,,,,,2223.723664017394,None,2223.723664017394,None,2223.723664017394,None,4.0,4.302644830197096,2223.723664017394,None,2223.723664017394,None,3.0,5.974691290408373,2227.5744862006977,None,2223.723664017394,None,5.0,8.547858150675893,2229.258581466973,None,2223.723664017394,None,space,0.4313165107741952,8.580995900556445,None,2223.723664017394,None,2223.723664017394,None,,,,,,,,,1,2022_May_27_1515,SAR-soap,2021.1.2,
138,Trial # 134,Group1-stimuli/group1-block1/fake-group2-b1/encoded_Group2_IMG_0416.jpg,0,encoded_Group2_IMG_0416.jpg,,,,,0.0,133.0,133.0,133.0,,,,,,,,,,,,,,,,,,,,,,,,,,,,,,,,,,,,,2232.743221371434,None,2232.743221371434,None,2232.743221371434,None,2.0,5.822207137010992,2232.743221371434,None,2232.743221371434,None,3.0,7.245369076728821,2238.1278091818094,None,2232.743221371434,None,1.0,10.352897457778454,2239.561639460735,None,2232.743221371434,None,space,0.7878234097734094,10.38608553726226,None,2232.743221371434,None,2232.743221371434,None,,,,,,,,,1,2022_May_27_1515,SAR-soap,2021.1.2,
139,Trial # 135,Group1-stimuli/group1-block1/fake-group2-b1/encoded_Group2_IMG_0139.jpg,0,encoded_Group2_IMG_0139.jpg,,,,,0.0,134.0,134.0,134.0,,,,,,,,,,,,,,,,,,,,,,,,,,,,,,,,,,,,,2243.962772227824,None,2243.962772227824,None,2243.962772227824,None,1.0,1.711667132563889,2243.962772227824,None,2243.962772227824,None,1.0,2.4354708595201373,2245.2145345928147,None,2243.962772227824,None,1.0,3.040193966589868,2245.947085940279,None,2243.962772227824,None,space,1.8545445082709195,3.066227789968252,None,2243.962772227824,None,2243.962772227824,None,,,,,,,,,1,2022_May_27_1515,SAR-soap,2021.1.2,
140,Trial # 136,Group1-stimuli/group1-block1/real-group1-b1/Group1_IMG_9677.jpg,1,Group1_IMG_9677.jpg,,,,,0.0,135.0,135.0,135.0,,,,,,,,,,,,,,,,,,,,,,,,,,,,,,,,,,,,,2248.9146114280447,None,2248.9146114280447,None,2248.9146114280447,None,2.0,8.27548155747354,2248.9146114280447,None,2248.9146114280447,None,1.0,3.8793162936344734,2251.815941392444,None,2248.9146114280447,None,1.0,4.384484531357884,2252.3485722877085,None,2248.9146114280447,None,space,4.008678074926138,4.405350805260241,None,2248.9146114280447,None,2248.9146114280447,None,,,,,,,,,1,2022_May_27_1515,SAR-soap,2021.1.2,
141,Trial # 137,Group1-stimuli/group1-block1/fake-group2-b1/encoded_Group2_IMG_5982.jpg,0,encoded_Group2_IMG_5982.jpg,,,,,0.0,136.0,136.0,136.0,,,,,,,,,,,,,,,,,,,,,,,,,,,,,,,,,,,,,2257.367022345774,None,2257.367022345774,None,2257.367022345774,None,1.0,2.228663650341332,2257.367022345774,None,2257.367022345774,None,1.0,2.618012194521725,2259.151537283324,None,2257.367022345774,None,1.0,3.1575597431510687,2259.5511146336794,None,2257.367022345774,None,space,0.388029552064836,3.185858750715852,None,2257.367022345774,None,2257.367022345774,None,,,,,,,,,1,2022_May_27_1515,SAR-soap,2021.1.2,
142,Trial # 138,Group1-stimuli/group1-block1/fake-group2-b1/encoded_Group2_IMG_1144.jpg,0,encoded_Group2_IMG_1144.jpg,,,,,0.0,137.0,137.0,137.0,,,,,,,,,,,,,,,,,,,,,,,,,,,,,,,,,,,,,2260.985262756236,None,2260.985262756236,None,2260.985262756236,None,4.0,4.4462701035663486,2260.985262756236,None,2260.985262756236,None,4.0,7.70211367122829,2264.9705288689584,None,2260.985262756236,None,5.0,10.741942074149849,2267.3700676923618,None,2260.985262756236,None,space,0.9859334081411362,10.76810750272125,None,2260.985262756236,None,2260.985262756236,None,,,,,,,,,1,2022_May_27_1515,SAR-soap,2021.1.2,
143,Trial # 139,Group1-stimuli/group1-block1/fake-group2-b1/encoded_Group2_IMG_0315.jpg,0,encoded_Group2_IMG_0315.jpg,,,,,0.0,138.0,138.0,138.0,,,,,,,,,,,,,,,,,,,,,,,,,,,,,,,,,,,,,2272.7551983799785,None,2272.7551983799785,None,2272.7551983799785,None,1.0,10.881667531095443,2272.7551983799785,None,2272.7551983799785,None,2.0,7.020679927431047,2278.707862166688,None,2272.7551983799785,None,1.0,7.72637986484915,2279.3404328459874,None,2272.7551983799785,None,space,4.208394135348499,7.753211367875338,None,2272.7551983799785,None,2272.7551983799785,None,,,,,,,,,1,2022_May_27_1515,SAR-soap,2021.1.2,
144,Trial # 140,Group1-stimuli/group1-block1/real-group1-b1/Group1_IMG_130.jpg,1,Group1_IMG_130.jpg,,,,,0.0,139.0,139.0,139.0,,,,,,,,,,,,,,,,,,,,,,,,,,,,,,,,,,,,,2284.7762234928086,None,2284.7762234928086,None,2284.7762234928086,None,4.0,3.830785258673132,2284.7762234928086,None,2284.7762234928086,None,5.0,5.220752784982324,2288.159571035765,None,2284.7762234928086,None,3.0,7.7256186520680785,2289.56015660055,None,2284.7762234928086,None,space,0.1882072919979691,7.754782748408616,None,2284.7762234928086,None,2284.7762234928086,None,,,,,,,,,1,2022_May_27_1515,SAR-soap,2021.1.2,
145,Trial # 141,Group1-stimuli/group1-block1/real-group1-b1/Group1_IMG_0024.jpg,1,Group1_IMG_0024.jpg,,,,,0.0,140.0,140.0,140.0,,,,,,,,,,,,,,,,,,,,,,,,,,,,,,,,,,,,,2292.76098746527,None,2292.76098746527,None,2292.76098746527,None,5.0,4.724329398944974,2292.76098746527,None,2292.76098746527,None,3.0,6.48041632771492,2297.0299542415887,None,2292.76098746527,None,6.0,8.586670150980353,2298.79631835036,None,2292.76098746527,None,space,0.3367040175944567,8.60925327707082,None,2292.76098746527,None,2292.76098746527,None,,,,,,,,,1,2022_May_27_1515,SAR-soap,2021.1.2,
146,Trial # 142,Group1-stimuli/group1-block1/fake-group2-b1/encoded_Group2_IMG_5012.jpg,0,encoded_Group2_IMG_5012.jpg,,,,,0.0,141.0,141.0,141.0,,,,,,,,,,,,,,,,,,,,,,,,,,,,,,,,,,,,,2301.764862691984,None,2301.764862691984,None,2301.764862691984,None,3.0,3.0695213126018643,2301.764862691984,None,2301.764862691984,None,3.0,4.726797534152865,2304.382023495622,None,2301.764862691984,None,2.0,6.130741345696151,2306.049914947711,None,2301.764862691984,None,space,0.2562150722369551,6.166330139152706,None,2301.764862691984,None,2301.764862691984,None,,,,,,,,,1,2022_May_27_1515,SAR-soap,2021.1.2,
147,Trial # 143,Group1-stimuli/group1-block1/fake-group2-b1/encoded_Group2_IMG_0209.jpg,0,encoded_Group2_IMG_0209.jpg,,,,,0.0,142.0,142.0,142.0,,,,,,,,,,,,,,,,,,,,,,,,,,,,,,,,,,,,,2308.2029384942725,None,2308.2029384942725,None,2308.2029384942725,None,1.0,2.331352966837585,2308.2029384942725,None,2308.2029384942725,None,1.0,2.953454206697643,2310.083504104987,None,2308.2029384942725,None,1.0,3.693387140519917,2310.716810883954,None,2308.2029384942725,None,space,0.3902323488146066,3.720756347291172,None,2308.2029384942725,None,2308.2029384942725,None,,,,,,,,,1,2022_May_27_1515,SAR-soap,2021.1.2,
148,Trial # 144,Group1-stimuli/group1-block1/real-group1-b1/Group1_IMG_0373.jpg,1,Group1_IMG_0373.jpg,,,,,0.0,143.0,143.0,143.0,,,,,,,,,,,,,,,,,,,,,,,,,,,,,,,,,,,,,2312.351492298767,None,2312.351492298767,None,2312.351492298767,None,1.0,2.747961345128715,2312.351492298767,None,2312.351492298767,None,1.0,4.105609719641507,2314.6516219833866,None,2312.351492298767,None,1.0,5.110811828635633,2316.018797197379,None,2312.351492298767,None,space,0.2623606827110052,5.14051019679755,None,2312.351492298767,None,2312.351492298767,None,,,,,,,,,1,2022_May_27_1515,SAR-soap,2021.1.2,
149,Trial # 145,Group1-stimuli/group1-block1/real-group1-b1/Group1_IMG_5899.jpg,1,Group1_IMG_5899.jpg,,,,,0.0,144.0,144.0,144.0,,,,,,,,,,,,,,,,,,,,,,,,,,,,,,,,,,,,,2317.7856181357056,None,2317.7856181357056,None,2317.7856181357056,None,1.0,3.530353954061866,2317.7856181357056,None,2317.7856181357056,None,2.0,4.169649648480117,2320.870540054515,None,2317.7856181357056,None,1.0,4.773733292706311,2321.520123483613,None,2317.7856181357056,None,space,0.3455085400491953,4.801626184023917,None,2317.7856181357056,None,2317.7856181357056,None,,,,,,,,,1,2022_May_27_1515,SAR-soap,2021.1.2,
150,Trial # 146,Group1-stimuli/group1-block1/real-group1-b1/Group1_IMG_0162.jpg,1,Group1_IMG_0162.jpg,,,,,0.0,145.0,145.0,145.0,,,,,,,,,,,,,,,,,,,,,,,,,,,,,,,,,,,,,2323.003584000282,None,2323.003584000282,None,2323.003584000282,None,4.0,3.0944148376584053,2323.003584000282,None,2323.003584000282,None,5.0,6.068089505657554,2325.639395130798,None,2323.003584000282,None,4.0,7.907229169271886,2328.6218201648444,None,2323.003584000282,None,space,0.2255390295758843,7.932275594212115,None,2323.003584000282,None,2323.003584000282,None,,,,,,,,,1,2022_May_27_1515,SAR-soap,2021.1.2,
151,Trial # 147,Group1-stimuli/group1-block1/real-group1-b1/Group1_IMG_0543.jpg,1,Group1_IMG_0543.jpg,,,,,0.0,146.0,146.0,146.0,,,,,,,,,,,,,,,,,,,,,,,,,,,,,,,,,,,,,2331.190190835856,None,2331.190190835856,None,2331.190190835856,None,2.0,7.116498730145395,2331.190190835856,None,2331.190190835856,None,1.0,7.755705915391445,2333.240317288786,None,2331.190190835856,None,1.0,4.760213748551905,2335.04168937169,None,2331.190190835856,None,space,3.365834563970566,4.788920751772821,None,2331.190190835856,None,2331.190190835856,None,,,,,,,,,1,2022_May_27_1515,SAR-soap,2021.1.2,
152,Trial # 148,Group1-stimuli/group1-block1/fake-group2-b1/encoded_Group2_IMG_0355.jpg,0,encoded_Group2_IMG_0355.jpg,,,,,0.0,147.0,147.0,147.0,,,,,,,,,,,,,,,,,,,,,,,,,,,,,,,,,,,,,2339.358388646506,None,2339.358388646506,None,2339.358388646506,None,2.0,4.964396541006863,2339.358388646506,None,2339.358388646506,None,2.0,3.836603352800012,2341.693902579136,None,2339.358388646506,None,2.0,6.276922799646854,2342.759463619441,None,2339.358388646506,None,space,0.3588186930865049,6.304127268493176,None,2339.358388646506,None,2339.358388646506,None,,,,,,,,,1,2022_May_27_1515,SAR-soap,2021.1.2,
153,Trial # 149,Group1-stimuli/group1-block1/real-group1-b1/Group1_IMG_9765.jpg,1,Group1_IMG_9765.jpg,,,,,0.0,148.0,148.0,148.0,,,,,,,,,,,,,,,,,,,,,,,,,,,,,,,,,,,,,2346.0616596005857,None,2346.0616596005857,None,2346.0616596005857,None,3.0,3.7182122841477394,2346.0616596005857,None,2346.0616596005857,None,4.0,5.10846087615937,2349.328821863979,None,2346.0616596005857,None,2.0,6.679711111821234,2350.7292980244383,None,2346.0616596005857,None,space,0.1539824521169066,6.7113794721663,None,2346.0616596005857,None,2346.0616596005857,None,,,,,,,,,1,2022_May_27_1515,SAR-soap,2021.1.2,
154,Trial # 150,Group1-stimuli/group1-block1/fake-group2-b1/encoded_Group2_IMG_1378.jpg,0,encoded_Group2_IMG_1378.jpg,,,,,0.0,149.0,149.0,149.0,,,,,,,,,,,,,,,,,,,,,,,,,,,,,,,,,,,,,2352.945977152325,None,2352.945977152325,None,2352.945977152325,None,4.0,15.165995070710778,2352.945977152325,None,2352.945977152325,None,3.0,7.070195221342146,2356.48096821364,None,2352.945977152325,None,5.0,19.34624235145748,2359.5823316853493,None,2352.945977152325,None,space,11.28599442820996,8.635849117301404,None,2352.945977152325,None,2352.945977152325,None,,,,,,,,,1,2022_May_27_1515,SAR-soap,2021.1.2,
155,Trial # 1,Group1-stimuli/group1-block2/fake-group2-b2/encoded_Group2_IMG_0155.jpg,0,encoded_Group2_IMG_0155.jpg,,,,,,,,,0.0,0.0,0.0,0.0,,,,,,,,,,,,,,,,,,,,,,,,,,,,,,,,,2533.2181060425937,None,2533.2181060425937,None,2533.2181060425937,None,4.0,41.18107082974166,2533.2181060425937,None,2533.2181060425937,None,4.0,43.35492709092796,2573.947410719469,None,2533.2181060425937,None,3.0,44.359471341595054,2576.1324862651527,None,2533.2181060425937,None,space,0.5900333430618048,44.39284245111048,None,2533.2181060425937,None,2533.2181060425937,None,2527.666607500054,None,2527.666607500054,None,2527.666607500054,None,2372.402784852311,None,1,2022_May_27_1515,SAR-soap,2021.1.2,
156,Trial # 2,Group1-stimuli/group1-block2/real-group1-b2/Group1_IMG_0519.jpg,1,Group1_IMG_0519.jpg,,,,,,,,,0.0,1.0,1.0,1.0,,,,,,,,,,,,,,,,,,,,,,,,,,,,,,,,,2578.23234811984,None,2578.23234811984,None,2578.23234811984,None,3.0,6.414991303347051,2578.23234811984,None,2578.23234811984,None,2.0,7.521007719449699,2581.151257735677,None,2578.23234811984,None,3.0,9.860915220342577,2585.319078527391,None,2578.23234811984,None,space,1.8604537043720484,9.888049852102997,None,2578.23234811984,None,2578.23234811984,None,,,,,,,,,1,2022_May_27_1515,SAR-soap,2021.1.2,
157,Trial # 3,Group1-stimuli/group1-block2/fake-group2-b2/encoded_Group2_IMG_0135.jpg,0,encoded_Group2_IMG_0135.jpg,,,,,,,,,0.0,2.0,2.0,2.0,,,,,,,,,,,,,,,,,,,,,,,,,,,,,,,,,2590.020535416901,None,2590.020535416901,None,2590.020535416901,None,2.0,2.9459502501413226,2590.020535416901,None,2590.020535416901,None,1.0,3.63530246168375,2592.520516770892,None,2590.020535416901,None,1.0,4.707638488151133,2593.220682248473,None,2590.020535416901,None,space,0.5541646098718047,4.7339649042114615,None,2590.020535416901,None,2590.020535416901,None,,,,,,,,,1,2022_May_27_1515,SAR-soap,2021.1.2,
158,Trial # 4,Group1-stimuli/group1-block2/real-group1-b2/Group1_IMG_5310.jpg,1,Group1_IMG_5310.jpg,,,,,,,,,0.0,3.0,3.0,3.0,,,,,,,,,,,,,,,,,,,,,,,,,,,,,,,,,2595.37176958099,None,2595.37176958099,None,2595.37176958099,None,6.0,17.80838003847748,2595.37176958099,None,2595.37176958099,None,5.0,12.87928935419768,2604.574401373044,None,2595.37176958099,None,7.0,16.253187912516296,2607.809078754857,None,2595.37176958099,None,space,3.974625294096768,13.970552642829716,None,2595.37176958099,None,2595.37176958099,None,,,,,,,,,1,2022_May_27_1515,SAR-soap,2021.1.2,
159,Trial # 5,Group1-stimuli/group1-block2/real-group1-b2/Group1_IMG_0522.jpg,1,Group1_IMG_0522.jpg,,,,,,,,,0.0,4.0,4.0,4.0,,,,,,,,,,,,,,,,,,,,,,,,,,,,,,,,,2613.4933640137315,None,2613.4933640137315,None,2613.4933640137315,None,5.0,7.861212680116296,2613.4933640137315,None,2613.4933640137315,None,5.0,10.401653220877051,2620.8957030354068,None,2613.4933640137315,None,4.0,12.708075219765306,2623.447030820884,None,2613.4933640137315,None,space,0.1896047797054052,12.731500370427966,None,2613.4933640137315,None,2613.4933640137315,None,,,,,,,,,1,2022_May_27_1515,SAR-soap,2021.1.2,
160,Trial # 6,Group1-stimuli/group1-block2/fake-group2-b2/encoded_Group2_IMG_0484.jpg,0,encoded_Group2_IMG_0484.jpg,,,,,,,,,0.0,5.0,5.0,5.0,,,,,,,,,,,,,,,,,,,,,,,,,,,,,,,,,2626.4640101958066,None,2626.4640101958066,None,2626.4640101958066,None,2.0,2.5127354925498366,2626.4640101958066,None,2626.4640101958066,None,1.0,3.4683332704007626,2628.531028774567,None,2626.4640101958066,None,1.0,4.508535262197256,2629.498042221181,None,2626.4640101958066,None,space,0.2214590804651379,4.53666015714407,None,2626.4640101958066,None,2626.4640101958066,None,,,,,,,,,1,2022_May_27_1515,SAR-soap,2021.1.2,
161,Trial # 7,Group1-stimuli/group1-block2/fake-group2-b2/encoded_Group2_IMG_5948.jpg,0,encoded_Group2_IMG_5948.jpg,,,,,,,,,0.0,6.0,6.0,6.0,,,,,,,,,,,,,,,,,,,,,,,,,,,,,,,,,2631.2656438453123,None,2631.2656438453123,None,2631.2656438453123,None,1.0,2.59214558172971,2631.2656438453123,None,2631.2656438453123,None,1.0,3.814243913628161,2633.3996865674853,None,2631.2656438453123,None,1.0,4.553997739218175,2634.632685912773,None,2631.2656438453123,None,space,0.5379470409825444,4.577554422430694,None,2631.2656438453123,None,2631.2656438453123,None,,,,,,,,,1,2022_May_27_1515,SAR-soap,2021.1.2,
162,Trial # 8,Group1-stimuli/group1-block2/fake-group2-b2/encoded_Group2_IMG_3591.jpg,0,encoded_Group2_IMG_3591.jpg,,,,,,,,,0.0,7.0,7.0,7.0,,,,,,,,,,,,,,,,,,,,,,,,,,,,,,,,,2636.417366435752,None,2636.417366435752,None,2636.417366435752,None,2.0,6.721319494768977,2636.417366435752,None,2636.417366435752,None,1.0,9.378032204695046,2642.7024400588125,None,2636.417366435752,None,2.0,11.78408770263195,2645.370359380729,None,2636.417366435752,None,space,1.5593622997403145,11.81845097336918,None,2636.417366435752,None,2636.417366435752,None,,,,,,,,,1,2022_May_27_1515,SAR-soap,2021.1.2,
163,Trial # 9,Group1-stimuli/group1-block2/real-group1-b2/Group1_IMG_9835.jpg,1,Group1_IMG_9835.jpg,,,,,,,,,0.0,8.0,8.0,8.0,,,,,,,,,,,,,,,,,,,,,,,,,,,,,,,,,2649.8548564994708,None,2649.8548564994708,None,2649.8548564994708,None,1.0,3.166473686695099,2649.8548564994708,None,2649.8548564994708,None,1.0,3.788984593003988,2652.57302810438,None,2649.8548564994708,None,1.0,4.426497600972652,2653.205538770184,None,2649.8548564994708,None,space,0.2269997326657176,4.455473527312279,None,2649.8548564994708,None,2649.8548564994708,None,,,,,,,,,1,2022_May_27_1515,SAR-soap,2021.1.2,
164,Trial # 10,Group1-stimuli/group1-block2/real-group1-b2/Group1_IMG_0556.jpg,1,Group1_IMG_0556.jpg,,,,,,,,,0.0,9.0,9.0,9.0,,,,,,,,,,,,,,,,,,,,,,,,,,,,,,,,,2654.572543255053,None,2654.572543255053,None,2654.572543255053,None,2.0,17.810957732610404,2654.572543255053,None,2654.572543255053,None,2.0,18.43171347584576,2671.9285176293924,None,2654.572543255053,None,1.0,19.237871664576232,2672.561279934831,None,2654.572543255053,None,space,3.248437588103116,19.257361127994955,None,2654.572543255053,None,2654.572543255053,None,,,,,,,,,1,2022_May_27_1515,SAR-soap,2021.1.2,
165,Trial # 11,Group1-stimuli/group1-block2/fake-group2-b2/encoded_Group2_IMG_9736.jpg,0,encoded_Group2_IMG_9736.jpg,,,,,,,,,0.0,10.0,10.0,10.0,,,,,,,,,,,,,,,,,,,,,,,,,,,,,,,,,2677.1294632647187,None,2677.1294632647187,None,2677.1294632647187,None,3.0,8.58174506854266,2677.1294632647187,None,2677.1294632647187,None,5.0,9.653927525505424,2684.1316058151424,None,2677.1294632647187,None,3.0,12.460241499356924,2686.349444751628,None,2677.1294632647187,None,space,0.1718592727556824,12.486476574093103,None,2677.1294632647187,None,2677.1294632647187,None,,,,,,,,,1,2022_May_27_1515,SAR-soap,2021.1.2,
166,Trial # 12,Group1-stimuli/group1-block2/real-group1-b2/Group1_IMG_9867.jpg,1,Group1_IMG_9867.jpg,,,,,,,,,0.0,11.0,11.0,11.0,,,,,,,,,,,,,,,,,,,,,,,,,,,,,,,,,2689.868231096305,None,2689.868231096305,None,2689.868231096305,None,2.0,7.06297655031085,2689.868231096305,None,2689.868231096305,None,1.0,7.736047332175076,2693.918543224223,None,2689.868231096305,None,1.0,8.407213404774666,2697.1535808937624,None,2689.868231096305,None,space,0.3423016434535384,8.431966189295053,None,2689.868231096305,None,2689.868231096305,None,,,,,,,,,1,2022_May_27_1515,SAR-soap,2021.1.2,
167,Trial # 13,Group1-stimuli/group1-block2/fake-group2-b2/encoded_Group2_IMG_9886.jpg,0,encoded_Group2_IMG_9886.jpg,,,,,,,,,0.0,12.0,12.0,12.0,,,,,,,,,,,,,,,,,,,,,,,,,,,,,,,,,2698.687110935338,None,2698.687110935338,None,2698.687110935338,None,1.0,2.695021701976657,2698.687110935338,None,2698.687110935338,None,1.0,3.7512330319732414,2700.92168171145,None,2698.687110935338,None,1.0,4.991122084669769,2701.9883166709915,None,2698.687110935338,None,space,0.164783981628716,5.015642833895981,None,2698.687110935338,None,2698.687110935338,None,,,,,,,,,1,2022_May_27_1515,SAR-soap,2021.1.2,
