,Trial_num,image_path,ground_truth,image_name,demos.thisRepN,demos.thisTrialN,demos.thisN,demos.thisIndex,block_1.thisRepN,block_1.thisTrialN,block_1.thisN,block_1.thisIndex,block_2.thisRepN,block_2.thisTrialN,block_2.thisN,block_2.thisIndex,text_3.started,text_3.stopped,Task.started,Task.stopped,text_10.started,text_10.stopped,key_resp.keys,key_resp.rt,key_resp.started,key_resp.stopped,image_2.started,image_2.stopped,text_5.started,text_5.stopped,image_3.started,image_3.stopped,text_6.started,text_6.stopped,translucency.started,translucency.stopped,see_throughness.started,see_throughness.stopped,glow.started,glow.stopped,key_resp_10.keys,key_resp_10.rt,key_resp_10.started,key_resp_10.stopped,instruction.started,instruction.stopped,text_12.started,text_12.stopped,Trial_number.started,Trial_number.stopped,image.started,image.stopped,Instruction.started,Instruction.stopped,translucency_score.response,translucency_score.rt,translucency_score.started,translucency_score.stopped,Translucency.started,Translucency.stopped,seethroughness_score.response,seethroughness_score.rt,seethroughness_score.started,seethroughness_score.stopped,SeeThroughness.started,SeeThroughness.stopped,glow_score.response,glow_score.rt,glow_score.started,glow_score.stopped,Glow.started,Glow.stopped,to_next.keys,to_next.rt,to_next.started,to_next.stopped,grading_label_left.started,grading_label_left.stopped,grading_label_right.started,grading_label_right.stopped,instruct1.started,instruct1.stopped,instruct2.started,instruct2.stopped,text_4.started,text_4.stopped,text_2.started,text_2.stopped,session,date,expName,psychopyVersion,Unnamed: 94
0,,,,,,,,,,,,,,,,,10.18808238580823,None,16.52694575302303,None,26.74696084787137,None,space,35.50694779888727,31.71458703186363,None,,,,,,,,,,,,,,,,,,,,,,,,,,,,,,,,,,,,,,,,,,,,,,,,,,,,,,,,,,,,,,,1,2022_Apr_14_1153,SAR-soap,2021.1.2,
1,,,,,,,,,,,,,,,,,,,,,,,,,,,67.71044207480736,None,67.71044207480736,None,74.88299585785717,None,74.88299585785717,None,80.55132723599672,None,80.55132723599672,None,80.55132723599672,None,space,58.70220046187751,80.55132723599672,None,,,,,,,,,,,,,,,,,,,,,,,,,,,,,,,,,,,,,,,,,,,,,1,2022_Apr_14_1153,SAR-soap,2021.1.2,
2,Demo 1,demo/Demo_IMG_0974.jpg,demo,Demo_IMG_0974.jpg,0.0,0.0,0.0,0.0,,,,,,,,,,,,,,,,,,,,,,,,,,,,,,,,,,,,,80.55132723599672,None,139.28556928783655,None,142.09986634994857,None,142.09986634994857,None,142.09986634994857,None,4.0,6.4891906678676605,142.09986634994857,None,142.09986634994857,None,2.0,11.046583228977395,148.11809167382307,None,142.09986634994857,None,6.0,13.652932051103562,152.6866153909359,None,142.09986634994857,None,space,2.911974297137931,13.675572303356605,None,142.09986634994857,None,142.09986634994857,None,,,,,,,,,1,2022_Apr_14_1153,SAR-soap,2021.1.2,
3,Demo 2,demo/Demo_IMG_1024.jpg,demo,Demo_IMG_1024.jpg,0.0,1.0,1.0,1.0,,,,,,,,,,,,,,,,,,,,,,,,,,,,,,,,,,,,,,,,,158.7705902759917,None,158.7705902759917,None,158.7705902759917,None,1.0,6.602027859073132,158.7705902759917,None,158.7705902759917,None,1.0,8.391151265008375,164.92278625792824,None,158.7705902759917,None,5.0,10.531712329946458,166.7231914869044,None,158.7705902759917,None,space,0.197532458929345,10.56390134920366,None,158.7705902759917,None,158.7705902759917,None,,,,,,,,,1,2022_Apr_14_1153,SAR-soap,2021.1.2,
4,Demo 3,demo/Demo_seed_80003.png,demo,Demo_seed_80003.png,0.0,2.0,2.0,2.0,,,,,,,,,,,,,,,,,,,,,,,,,,,,,,,,,,,,,,,,,169.60791436186992,None,169.60791436186992,None,169.60791436186992,None,5.0,10.303773107938468,169.60791436186992,None,169.60791436186992,None,3.0,8.809341961983591,175.3921810318716,None,169.60791436186992,None,6.0,11.980615022126583,177.9772141489666,None,169.60791436186992,None,space,0.2631475790403783,12.011841024272144,None,169.60791436186992,None,169.60791436186992,None,,,,,,,,,1,2022_Apr_14_1153,SAR-soap,2021.1.2,
5,Trial # 1,Group1-stimuli/group1-block1/real-group1-b1/Group1_IMG_0022.jpg,1,Group1_IMG_0022.jpg,,,,,0.0,0.0,0.0,0.0,,,,,,,,,,,,,,,,,,,,,,,,,,,,,,,,,,,,,191.06426312192343,None,191.06426312192343,None,191.06426312192343,None,2.0,24.35411491501145,191.06426312192343,None,191.06426312192343,None,1.0,6.254001996014267,193.7318807018455,None,191.06426312192343,None,3.0,27.533153758151457,196.8826138470322,None,191.06426312192343,None,space,0.2911282309796661,27.55999243305996,None,191.06426312192343,None,191.06426312192343,None,181.878405157011,None,181.878405157011,None,181.878405157011,None,,,1,2022_Apr_14_1153,SAR-soap,2021.1.2,
6,Trial # 2,Group1-stimuli/group1-block1/fake-group2-b1/encoded_Group2_IMG_0386.jpg,0,encoded_Group2_IMG_0386.jpg,,,,,0.0,1.0,1.0,1.0,,,,,,,,,,,,,,,,,,,,,,,,,,,,,,,,,,,,,218.95645000296645,None,218.95645000296645,None,218.95645000296645,None,2.0,3.7429757628124207,218.95645000296645,None,218.95645000296645,None,1.0,5.86533569986932,222.24163964088075,None,218.95645000296645,None,4.0,7.570735468063503,224.3744405009784,None,218.95645000296645,None,space,0.2040054779499769,7.592403551563621,None,218.95645000296645,None,218.95645000296645,None,,,,,,,,,1,2022_Apr_14_1153,SAR-soap,2021.1.2,
7,Trial # 3,Group1-stimuli/group1-block1/real-group1-b1/Group1_IMG_9704.jpg,1,Group1_IMG_9704.jpg,,,,,0.0,2.0,2.0,2.0,,,,,,,,,,,,,,,,,,,,,,,,,,,,,,,,,,,,,226.8094576948788,None,226.8094576948788,None,226.8094576948788,None,1.0,3.974381248001009,226.8094576948788,None,226.8094576948788,None,1.0,7.048498911084607,228.77671739785,None,226.8094576948788,None,3.0,8.519927455112338,233.4117434688378,None,226.8094576948788,None,space,0.2893802660983056,8.541093894280493,None,226.8094576948788,None,226.8094576948788,None,,,,,,,,,1,2022_Apr_14_1153,SAR-soap,2021.1.2,
8,Trial # 4,Group1-stimuli/group1-block1/real-group1-b1/Group1_IMG_0406.jpg,1,Group1_IMG_0406.jpg,,,,,0.0,3.0,3.0,3.0,,,,,,,,,,,,,,,,,,,,,,,,,,,,,,,,,,,,,235.67790543683805,None,235.67790543683805,None,235.67790543683805,None,2.0,7.791558380937204,235.67790543683805,None,235.67790543683805,None,1.0,9.096157039050013,243.0141825149767,None,235.67790543683805,None,3.0,10.60261556901969,244.3306670789607,None,235.67790543683805,None,space,0.2872899719513953,10.62306314241141,None,235.67790543683805,None,235.67790543683805,None,,,,,,,,,1,2022_Apr_14_1153,SAR-soap,2021.1.2,
9,Trial # 5,Group1-stimuli/group1-block1/fake-group2-b1/encoded_Group2_IMG_0364.jpg,0,encoded_Group2_IMG_0364.jpg,,,,,0.0,4.0,4.0,4.0,,,,,,,,,,,,,,,,,,,,,,,,,,,,,,,,,,,,,246.63068012800068,None,246.63068012800068,None,246.63068012800068,None,4.0,8.21038033789955,246.63068012800068,None,246.63068012800068,None,1.0,9.182014351012183,249.98253075801767,None,246.63068012800068,None,2.0,11.254720280878246,255.3670200558845,None,246.63068012800068,None,space,0.274925050092861,11.278995245462283,None,246.63068012800068,None,246.63068012800068,None,,,,,,,,,1,2022_Apr_14_1153,SAR-soap,2021.1.2,
10,Trial # 6,Group1-stimuli/group1-block1/fake-group2-b1/encoded_Group2_IMG_0407.jpg,0,encoded_Group2_IMG_0407.jpg,,,,,0.0,5.0,5.0,5.0,,,,,,,,,,,,,,,,,,,,,,,,,,,,,,,,,,,,,258.23509794287384,None,258.23509794287384,None,258.23509794287384,None,4.0,5.877708342159167,258.23509794287384,None,258.23509794287384,None,1.0,7.950343469157815,259.486014471855,None,258.23509794287384,None,3.0,9.622255283175036,265.73767525400035,None,258.23509794287384,None,space,0.3056002829689532,9.646206988254562,None,258.23509794287384,None,258.23509794287384,None,,,,,,,,,1,2022_Apr_14_1153,SAR-soap,2021.1.2,
11,Trial # 7,Group1-stimuli/group1-block1/real-group1-b1/Group1_IMG_0428.jpg,1,Group1_IMG_0428.jpg,,,,,0.0,6.0,6.0,6.0,,,,,,,,,,,,,,,,,,,,,,,,,,,,,,,,,,,,,268.23792237392627,None,268.23792237392627,None,268.23792237392627,None,2.0,6.1397390339989215,268.23792237392627,None,268.23792237392627,None,3.0,8.612286555115134,273.9080819019582,None,268.23792237392627,None,1.0,9.65329753397964,275.3068799709436,None,268.23792237392627,None,space,1.8925870340317488,9.673177151242273,None,268.23792237392627,None,268.23792237392627,None,,,,,,,,,1,2022_Apr_14_1153,SAR-soap,2021.1.2,
12,Trial # 8,Group1-stimuli/group1-block1/fake-group2-b1/encoded_Group2_IMG_0474.jpg,0,encoded_Group2_IMG_0474.jpg,,,,,0.0,7.0,7.0,7.0,,,,,,,,,,,,,,,,,,,,,,,,,,,,,,,,,,,,,279.8415335980244,None,279.8415335980244,None,279.8415335980244,None,2.0,2.709469482069835,279.8415335980244,None,279.8415335980244,None,1.0,3.382436436833814,282.0928181449417,None,279.8415335980244,None,2.0,5.320446117082611,282.7770103418734,None,279.8415335980244,None,space,0.2081977450288832,5.34541053744033,None,279.8415335980244,None,279.8415335980244,None,,,,,,,,,1,2022_Apr_14_1153,SAR-soap,2021.1.2,
13,Trial # 9,Group1-stimuli/group1-block1/fake-group2-b1/encoded_Group2_IMG_1506.jpg,0,encoded_Group2_IMG_1506.jpg,,,,,0.0,8.0,8.0,8.0,,,,,,,,,,,,,,,,,,,,,,,,,,,,,,,,,,,,,285.4428930198774,None,285.4428930198774,None,285.4428930198774,None,2.0,5.879631576128304,285.4428930198774,None,285.4428930198774,None,4.0,7.136007091961801,290.8625872649718,None,285.4428930198774,None,2.0,8.60955656110309,292.12887414498255,None,285.4428930198774,None,space,0.2108248979784548,8.634559678146616,None,285.4428930198774,None,285.4428930198774,None,,,,,,,,,1,2022_Apr_14_1153,SAR-soap,2021.1.2,
14,Trial # 10,Group1-stimuli/group1-block1/real-group1-b1/Group1_IMG_9789.jpg,1,Group1_IMG_9789.jpg,,,,,0.0,9.0,9.0,9.0,,,,,,,,,,,,,,,,,,,,,,,,,,,,,,,,,,,,,294.329756911844,None,294.329756911844,None,294.329756911844,None,5.0,4.372578835813329,294.329756911844,None,294.329756911844,None,1.0,5.944128638133407,298.24756436096504,None,294.329756911844,None,2.0,6.782775870990008,299.4311547810212,None,294.329756911844,None,space,0.318039788864553,6.802418159553781,None,294.329756911844,None,294.329756911844,None,,,,,,,,,1,2022_Apr_14_1153,SAR-soap,2021.1.2,
15,Trial # 11,Group1-stimuli/group1-block1/real-group1-b1/Group1_IMG_9778.jpg,1,Group1_IMG_9778.jpg,,,,,0.0,10.0,10.0,10.0,,,,,,,,,,,,,,,,,,,,,,,,,,,,,,,,,,,,,301.4978577629663,None,301.4978577629663,None,301.4978577629663,None,4.0,3.5400671320967376,301.4978577629663,None,301.4978577629663,None,2.0,8.79771898011677,304.58257770887576,None,301.4978577629663,None,3.0,10.402650302043185,309.8510522018187,None,301.4978577629663,None,space,0.1796240902040153,10.424567657290028,None,301.4978577629663,None,301.4978577629663,None,,,,,,,,,1,2022_Apr_14_1153,SAR-soap,2021.1.2,
16,Trial # 12,Group1-stimuli/group1-block1/real-group1-b1/Group1_IMG_9813.jpg,1,Group1_IMG_9813.jpg,,,,,0.0,11.0,11.0,11.0,,,,,,,,,,,,,,,,,,,,,,,,,,,,,,,,,,,,,312.1517287630122,None,312.1517287630122,None,312.1517287630122,None,2.0,8.05817060987465,312.1517287630122,None,312.1517287630122,None,1.0,11.297663280041888,314.5366144499276,None,312.1517287630122,None,4.0,12.969589035026727,323.006157174008,None,312.1517287630122,None,space,0.2706071748398244,12.989736953517422,None,312.1517287630122,None,312.1517287630122,None,,,,,,,,,1,2022_Apr_14_1153,SAR-soap,2021.1.2,
17,Trial # 13,Group1-stimuli/group1-block1/real-group1-b1/Group1_IMG_0516.jpg,1,Group1_IMG_0516.jpg,,,,,0.0,12.0,12.0,12.0,,,,,,,,,,,,,,,,,,,,,,,,,,,,,,,,,,,,,325.4719986098353,None,325.4719986098353,None,325.4719986098353,None,6.0,4.0942732100375,325.4719986098353,None,325.4719986098353,None,3.0,6.416890764143318,329.10778691782616,None,325.4719986098353,None,3.0,8.124142312910408,331.44117517001,None,325.4719986098353,None,space,0.8100727060809731,7.514028433244675,None,325.4719986098353,None,325.4719986098353,None,,,,,,,,,1,2022_Apr_14_1153,SAR-soap,2021.1.2,
18,Trial # 14,Group1-stimuli/group1-block1/fake-group2-b1/encoded_Group2_IMG_0038.jpg,0,encoded_Group2_IMG_0038.jpg,,,,,0.0,13.0,13.0,13.0,,,,,,,,,,,,,,,,,,,,,,,,,,,,,,,,,,,,,333.84147070301697,None,333.84147070301697,None,333.84147070301697,None,4.0,5.276419484987855,333.84147070301697,None,333.84147070301697,None,2.0,6.314606074010953,336.0922010978684,None,333.84147070301697,None,4.0,7.78656430891715,339.7102377549745,None,333.84147070301697,None,space,0.2136230869218707,7.80965988826938,None,333.84147070301697,None,333.84147070301697,None,,,,,,,,,1,2022_Apr_14_1153,SAR-soap,2021.1.2,
19,Trial # 15,Group1-stimuli/group1-block1/real-group1-b1/Group1_IMG_5984.jpg,1,Group1_IMG_5984.jpg,,,,,0.0,14.0,14.0,14.0,,,,,,,,,,,,,,,,,,,,,,,,,,,,,,,,,,,,,341.91096721193753,None,341.91096721193753,None,341.91096721193753,None,2.0,6.173923154827207,341.91096721193753,None,341.91096721193753,None,1.0,8.430189969949424,347.63035077787936,None,341.91096721193753,None,3.0,10.269617563812062,349.0972890739795,None,341.91096721193753,None,space,0.2370027990546077,10.289947795215994,None,341.91096721193753,None,341.91096721193753,None,,,,,,,,,1,2022_Apr_14_1153,SAR-soap,2021.1.2,
20,Trial # 16,Group1-stimuli/group1-block1/real-group1-b1/Group1_IMG_0383.jpg,1,Group1_IMG_0383.jpg,,,,,0.0,15.0,15.0,15.0,,,,,,,,,,,,,,,,,,,,,,,,,,,,,,,,,,,,,352.49743704102,None,352.49743704102,None,352.49743704102,None,6.0,4.306278557982296,352.49743704102,None,352.49743704102,None,4.0,6.9456092400942,356.3479171160143,None,352.49743704102,None,4.0,8.584672634955496,357.599710599985,None,352.49743704102,None,space,0.5174097081180662,8.605972417164594,None,352.49743704102,None,352.49743704102,None,,,,,,,,,1,2022_Apr_14_1153,SAR-soap,2021.1.2,
21,Trial # 17,Group1-stimuli/group1-block1/fake-group2-b1/encoded_Group2_IMG_0456.jpg,0,encoded_Group2_IMG_0456.jpg,,,,,0.0,16.0,16.0,16.0,,,,,,,,,,,,,,,,,,,,,,,,,,,,,,,,,,,,,361.6662377149332,None,361.6662377149332,None,361.6662377149332,None,6.0,8.628028709907085,361.6662377149332,None,361.6662377149332,None,3.0,9.399605314945802,365.4508361048065,None,361.6662377149332,None,2.0,11.039263534126803,370.619204076007,None,361.6662377149332,None,space,0.6162436371669173,11.064638765295967,None,361.6662377149332,None,361.6662377149332,None,,,,,,,,,1,2022_Apr_14_1153,SAR-soap,2021.1.2,
22,Trial # 18,Group1-stimuli/group1-block1/fake-group2-b1/encoded_Group2_IMG_8390.jpg,0,encoded_Group2_IMG_8390.jpg,,,,,0.0,17.0,17.0,17.0,,,,,,,,,,,,,,,,,,,,,,,,,,,,,,,,,,,,,373.3869572298136,None,373.3869572298136,None,373.3869572298136,None,5.0,2.515851505100727,373.3869572298136,None,373.3869572298136,None,2.0,3.304842668119818,375.4547482780181,None,373.3869572298136,None,3.0,4.479685465106741,376.2543185399845,None,373.3869572298136,None,space,0.425051542930305,4.508752600988373,None,373.3869572298136,None,373.3869572298136,None,,,,,,,,,1,2022_Apr_14_1153,SAR-soap,2021.1.2,
23,Trial # 19,Group1-stimuli/group1-block1/real-group1-b1/Group1_IMG_0011.jpg,1,Group1_IMG_0011.jpg,,,,,0.0,18.0,18.0,18.0,,,,,,,,,,,,,,,,,,,,,,,,,,,,,,,,,,,,,378.3558514539618,None,378.3558514539618,None,378.3558514539618,None,2.0,24.198363814037293,378.3558514539618,None,378.3558514539618,None,3.0,28.453420757083222,402.09654154791497,None,378.3558514539618,None,2.0,29.56076127593405,404.6629957079422,None,378.3558514539618,None,space,0.4543340939562768,29.58195834653452,None,378.3558514539618,None,378.3558514539618,None,,,,,,,,,1,2022_Apr_14_1153,SAR-soap,2021.1.2,
24,Trial # 20,Group1-stimuli/group1-block1/fake-group2-b1/encoded_Group2_IMG_0328.jpg,0,encoded_Group2_IMG_0328.jpg,,,,,0.0,19.0,19.0,19.0,,,,,,,,,,,,,,,,,,,,,,,,,,,,,,,,,,,,,408.43169499980286,None,408.43169499980286,None,408.43169499980286,None,2.0,2.130983379902318,408.43169499980286,None,408.43169499980286,None,1.0,5.021633819909766,410.115994083928,None,408.43169499980286,None,2.0,10.461636767024174,413.01672120695,None,408.43169499980286,None,space,2.09862615307793,10.490630229003727,None,408.43169499980286,None,408.43169499980286,None,,,,,,,,,1,2022_Apr_14_1153,SAR-soap,2021.1.2,
25,Trial # 21,Group1-stimuli/group1-block1/fake-group2-b1/encoded_Group2_IMG_0163.jpg,0,encoded_Group2_IMG_0163.jpg,,,,,0.0,20.0,20.0,20.0,,,,,,,,,,,,,,,,,,,,,,,,,,,,,,,,,,,,,421.0520248138346,None,421.0520248138346,None,421.0520248138346,None,6.0,5.176797776017338,421.0520248138346,None,421.0520248138346,None,7.0,8.533523719059303,425.7702763038688,None,421.0520248138346,None,1.0,10.405893992865458,429.1378073208034,None,421.0520248138346,None,space,0.2253692348022014,10.429854625137525,None,421.0520248138346,None,421.0520248138346,None,,,,,,,,,1,2022_Apr_14_1153,SAR-soap,2021.1.2,
26,Trial # 22,Group1-stimuli/group1-block1/real-group1-b1/Group1_IMG_9862.jpg,1,Group1_IMG_9862.jpg,,,,,0.0,21.0,21.0,21.0,,,,,,,,,,,,,,,,,,,,,,,,,,,,,,,,,,,,,431.7377119020093,None,431.7377119020093,None,431.7377119020093,None,2.0,2.1067831271793693,431.7377119020093,None,431.7377119020093,None,1.0,4.47850672993809,432.94049448682927,None,431.7377119020093,None,2.0,6.486064654076472,434.07253865292296,None,431.7377119020093,None,space,0.2486247138585895,6.505025621270761,None,431.7377119020093,None,431.7377119020093,None,,,,,,,,,1,2022_Apr_14_1153,SAR-soap,2021.1.2,
27,Trial # 23,Group1-stimuli/group1-block1/fake-group2-b1/encoded_Group2_IMG_0296.jpg,0,encoded_Group2_IMG_0296.jpg,,,,,0.0,22.0,22.0,22.0,,,,,,,,,,,,,,,,,,,,,,,,,,,,,,,,,,,,,438.5571825529914,None,438.5571825529914,None,438.5571825529914,None,5.0,3.674778243061155,438.5571825529914,None,438.5571825529914,None,1.0,6.298799096839503,441.7752710788045,None,438.5571825529914,None,2.0,8.23850197182037,442.6091257878579,None,438.5571825529914,None,space,0.2234719309490174,8.261710869148374,None,438.5571825529914,None,438.5571825529914,None,,,,,,,,,1,2022_Apr_14_1153,SAR-soap,2021.1.2,
28,Trial # 24,Group1-stimuli/group1-block1/fake-group2-b1/encoded_Group2_IMG_0503.jpg,0,encoded_Group2_IMG_0503.jpg,,,,,0.0,23.0,23.0,23.0,,,,,,,,,,,,,,,,,,,,,,,,,,,,,,,,,,,,,447.0774497988168,None,447.0774497988168,None,447.0774497988168,None,4.0,3.8443367809522897,447.0774497988168,None,447.0774497988168,None,2.0,5.282784186070785,448.328057260951,None,447.0774497988168,None,2.0,7.155117210000753,451.9122963468544,None,447.0774497988168,None,space,0.1962977389339357,7.179083409253508,None,447.0774497988168,None,447.0774497988168,None,,,,,,,,,1,2022_Apr_14_1153,SAR-soap,2021.1.2,
29,Trial # 25,Group1-stimuli/group1-block1/fake-group2-b1/encoded_Group2_IMG_9804.jpg,0,encoded_Group2_IMG_9804.jpg,,,,,0.0,24.0,24.0,24.0,,,,,,,,,,,,,,,,,,,,,,,,,,,,,,,,,,,,,454.47954972693697,None,454.47954972693697,None,454.47954972693697,None,1.0,4.277207572944462,454.47954972693697,None,454.47954972693697,None,1.0,12.518344484036788,458.2972936679144,None,454.47954972693697,None,2.0,14.424494137987494,466.5485189689789,None,454.47954972693697,None,space,0.2768132188357413,14.448456877376884,None,454.47954972693697,None,454.47954972693697,None,,,,,,,,,1,2022_Apr_14_1153,SAR-soap,2021.1.2,
30,Trial # 26,Group1-stimuli/group1-block1/real-group1-b1/Group1_IMG_0391.jpg,1,Group1_IMG_0391.jpg,,,,,0.0,25.0,25.0,25.0,,,,,,,,,,,,,,,,,,,,,,,,,,,,,,,,,,,,,469.2505940629635,None,469.2505940629635,None,469.2505940629635,None,2.0,16.293530924012884,469.2505940629635,None,469.2505940629635,None,2.0,16.91513596009463,485.0886002490297,None,469.2505940629635,None,1.0,18.689245206071064,485.7215174178127,None,469.2505940629635,None,space,1.005769896088168,18.708212290192023,None,469.2505940629635,None,469.2505940629635,None,,,,,,,,,1,2022_Apr_14_1153,SAR-soap,2021.1.2,
31,Trial # 27,Group1-stimuli/group1-block1/fake-group2-b1/encoded_Group2_IMG_3584.jpg,0,encoded_Group2_IMG_3584.jpg,,,,,0.0,26.0,26.0,26.0,,,,,,,,,,,,,,,,,,,,,,,,,,,,,,,,,,,,,489.0559265478514,None,489.0559265478514,None,489.0559265478514,None,6.0,2.8619918930344284,489.0559265478514,None,489.0559265478514,None,2.0,3.650983080035076,491.4562595719472,None,489.0559265478514,None,1.0,5.657411199063063,492.2575401610229,None,489.0559265478514,None,space,0.2602363238111138,5.682847500778735,None,489.0559265478514,None,489.0559265478514,None,,,,,,,,,1,2022_Apr_14_1153,SAR-soap,2021.1.2,
32,Trial # 28,Group1-stimuli/group1-block1/fake-group2-b1/encoded_Group2_IMG_0434.jpg,0,encoded_Group2_IMG_0434.jpg,,,,,0.0,27.0,27.0,27.0,,,,,,,,,,,,,,,,,,,,,,,,,,,,,,,,,,,,,495.0240236178506,None,495.0240236178506,None,495.0240236178506,None,7.0,3.259884695056826,495.0240236178506,None,495.0240236178506,None,7.0,5.331771954894066,497.2091740239412,None,495.0240236178506,None,2.0,6.804203842999414,498.8760022548959,None,495.0240236178506,None,space,1.5422267310786992,6.826721679419279,None,495.0240236178506,None,495.0240236178506,None,,,,,,,,,1,2022_Apr_14_1153,SAR-soap,2021.1.2,
33,Trial # 29,Group1-stimuli/group1-block1/fake-group2-b1/encoded_Group2_IMG_9575.jpg,0,encoded_Group2_IMG_9575.jpg,,,,,0.0,28.0,28.0,28.0,,,,,,,,,,,,,,,,,,,,,,,,,,,,,,,,,,,,,503.46118298498914,None,503.46118298498914,None,503.46118298498914,None,4.0,2.7737859948538244,503.46118298498914,None,503.46118298498914,None,3.0,4.529683856060728,505.77809641393833,None,503.46118298498914,None,3.0,6.335680438904092,507.5462336170021,None,503.46118298498914,None,space,0.1893034798558801,6.357905345968902,None,503.46118298498914,None,503.46118298498914,None,,,,,,,,,1,2022_Apr_14_1153,SAR-soap,2021.1.2,
34,Trial # 30,Group1-stimuli/group1-block1/fake-group2-b1/encoded_Group2_IMG_1025.jpg,0,encoded_Group2_IMG_1025.jpg,,,,,0.0,29.0,29.0,29.0,,,,,,,,,,,,,,,,,,,,,,,,,,,,,,,,,,,,,510.0460373009555,None,510.0460373009555,None,510.0460373009555,None,1.0,2.809948217123747,510.0460373009555,None,510.0460373009555,None,1.0,4.132237634155899,512.3971216778737,None,510.0460373009555,None,4.0,5.8720039669424295,513.7307198839262,None,510.0460373009555,None,space,0.2469167758245021,5.894134439527988,None,510.0460373009555,None,510.0460373009555,None,,,,,,,,,1,2022_Apr_14_1153,SAR-soap,2021.1.2,
35,Trial # 31,Group1-stimuli/group1-block1/real-group1-b1/Group1_IMG_0502.jpg,1,Group1_IMG_0502.jpg,,,,,0.0,30.0,30.0,30.0,,,,,,,,,,,,,,,,,,,,,,,,,,,,,,,,,,,,,516.2313475238625,None,516.2313475238625,None,516.2313475238625,None,7.0,11.209679887862876,516.2313475238625,None,516.2313475238625,None,1.0,13.415390047011895,518.9152808059007,None,516.2313475238625,None,3.0,13.987213923130184,527.801631744951,None,516.2313475238625,None,space,0.2375240637920797,14.006519857328383,None,516.2313475238625,None,516.2313475238625,None,,,,,,,,,1,2022_Apr_14_1153,SAR-soap,2021.1.2,
36,Trial # 32,Group1-stimuli/group1-block1/real-group1-b1/Group1_IMG_0182.jpg,1,Group1_IMG_0182.jpg,,,,,0.0,31.0,31.0,31.0,,,,,,,,,,,,,,,,,,,,,,,,,,,,,,,,,,,,,530.5349210628774,None,530.5349210628774,None,530.5349210628774,None,7.0,1.8712211190722885,530.5349210628774,None,530.5349210628774,None,2.0,2.693015047116205,531.9535311709624,None,530.5349210628774,None,3.0,3.399031793931499,532.7866045169067,None,530.5349210628774,None,space,0.2164234321098774,3.4171419565100223,None,530.5349210628774,None,530.5349210628774,None,,,,,,,,,1,2022_Apr_14_1153,SAR-soap,2021.1.2,
37,Trial # 33,Group1-stimuli/group1-block1/fake-group2-b1/encoded_Group2_IMG_2728.jpg,0,encoded_Group2_IMG_2728.jpg,,,,,0.0,32.0,32.0,32.0,,,,,,,,,,,,,,,,,,,,,,,,,,,,,,,,,,,,,534.236629312858,None,534.236629312858,None,534.236629312858,None,1.0,1.7604077400173992,534.236629312858,None,534.236629312858,None,1.0,2.8842756799422204,535.5384413360152,None,534.236629312858,None,1.0,3.389562824042514,536.6712032998912,None,534.236629312858,None,space,0.1703298459760844,3.4158343982417136,None,534.236629312858,None,534.236629312858,None,,,,,,,,,1,2022_Apr_14_1153,SAR-soap,2021.1.2,
38,Trial # 34,Group1-stimuli/group1-block1/fake-group2-b1/encoded_Group2_IMG_4867.jpg,0,encoded_Group2_IMG_4867.jpg,,,,,0.0,33.0,33.0,33.0,,,,,,,,,,,,,,,,,,,,,,,,,,,,,,,,,,,,,537.8721233089454,None,537.8721233089454,None,537.8721233089454,None,7.0,3.2616911821532995,537.8721233089454,None,537.8721233089454,None,1.0,4.451175504131243,540.672237254912,None,537.8721233089454,None,2.0,5.890774121973664,541.8719983329065,None,537.8721233089454,None,space,0.8207843299023807,5.283595205284655,None,537.8721233089454,None,537.8721233089454,None,,,,,,,,,1,2022_Apr_14_1153,SAR-soap,2021.1.2,
39,Trial # 35,Group1-stimuli/group1-block1/real-group1-b1/Group1_IMG_9894.jpg,1,Group1_IMG_9894.jpg,,,,,0.0,34.0,34.0,34.0,,,,,,,,,,,,,,,,,,,,,,,,,,,,,,,,,,,,,544.0237580228131,None,544.0237580228131,None,544.0237580228131,None,1.0,2.844788722926751,544.0237580228131,None,544.0237580228131,None,1.0,4.636576008051634,546.4077004748397,None,544.0237580228131,None,1.0,5.208216238999739,548.2078731888905,None,544.0237580228131,None,space,0.1357101430185139,5.233920251019299,None,544.0237580228131,None,544.0237580228131,None,,,,,,,,,1,2022_Apr_14_1153,SAR-soap,2021.1.2,
40,Trial # 36,Group1-stimuli/group1-block1/fake-group2-b1/encoded_Group2_IMG_0444.jpg,0,encoded_Group2_IMG_0444.jpg,,,,,0.0,35.0,35.0,35.0,,,,,,,,,,,,,,,,,,,,,,,,,,,,,,,,,,,,,549.4254529660102,None,549.4254529660102,None,549.4254529660102,None,6.0,5.997785401064903,549.4254529660102,None,549.4254529660102,None,3.0,4.402600642060861,551.1259714078624,None,549.4254529660102,None,1.0,7.807636261917651,553.3929432029836,None,549.4254529660102,None,space,0.1578277789521962,7.83537407615222,None,549.4254529660102,None,549.4254529660102,None,,,,,,,,,1,2022_Apr_14_1153,SAR-soap,2021.1.2,
41,Trial # 37,Group1-stimuli/group1-block1/real-group1-b1/Group1_IMG_2656.jpg,1,Group1_IMG_2656.jpg,,,,,0.0,36.0,36.0,36.0,,,,,,,,,,,,,,,,,,,,,,,,,,,,,,,,,,,,,557.4611282928381,None,557.4611282928381,None,557.4611282928381,None,1.0,2.319199277088046,557.4611282928381,None,557.4611282928381,None,1.0,4.091696730814874,559.3284679260105,None,557.4611282928381,None,3.0,5.765038690064102,561.1121461440343,None,557.4611282928381,None,space,0.2197414119727909,5.798595038242638,None,557.4611282928381,None,557.4611282928381,None,,,,,,,,,1,2022_Apr_14_1153,SAR-soap,2021.1.2,
42,Trial # 38,Group1-stimuli/group1-block1/real-group1-b1/Group1_IMG_0207.jpg,1,Group1_IMG_0207.jpg,,,,,0.0,37.0,37.0,37.0,,,,,,,,,,,,,,,,,,,,,,,,,,,,,,,,,,,,,563.5295222629793,None,563.5295222629793,None,563.5295222629793,None,1.0,2.0737187408376485,563.5295222629793,None,563.5295222629793,None,1.0,3.312481494853273,565.1316012179013,None,563.5295222629793,None,2.0,4.152624435024336,566.396068795817,None,563.5295222629793,None,space,0.2483461669180542,4.174669718137011,None,563.5295222629793,None,563.5295222629793,None,,,,,,,,,1,2022_Apr_14_1153,SAR-soap,2021.1.2,
43,Trial # 39,Group1-stimuli/group1-block1/real-group1-b1/Group1_IMG_9638.jpg,1,Group1_IMG_9638.jpg,,,,,0.0,38.0,38.0,38.0,,,,,,,,,,,,,,,,,,,,,,,,,,,,,,,,,,,,,568.0140252108686,None,568.0140252108686,None,568.0140252108686,None,7.0,2.9084609509445727,568.0140252108686,None,568.0140252108686,None,5.0,5.531941363122314,570.4644239200279,None,568.0140252108686,None,3.0,7.10425716987811,573.0999375500251,None,568.0140252108686,None,space,0.2362352148629725,7.128689860925078,None,568.0140252108686,None,568.0140252108686,None,,,,,,,,,1,2022_Apr_14_1153,SAR-soap,2021.1.2,
44,Trial # 40,Group1-stimuli/group1-block1/real-group1-b1/Group1_IMG_0148.jpg,1,Group1_IMG_0148.jpg,,,,,0.0,39.0,39.0,39.0,,,,,,,,,,,,,,,,,,,,,,,,,,,,,,,,,,,,,575.4322342539672,None,575.4322342539672,None,575.4322342539672,None,7.0,2.722242357209325,575.4322342539672,None,575.4322342539672,None,7.0,4.411697660107166,576.9516088808887,None,575.4322342539672,None,2.0,5.550772322108969,579.4006967979949,None,575.4322342539672,None,space,0.4561542482115328,5.570120509248227,None,575.4322342539672,None,575.4322342539672,None,,,,,,,,,1,2022_Apr_14_1153,SAR-soap,2021.1.2,
45,Trial # 41,Group1-stimuli/group1-block1/real-group1-b1/Group1_IMG_2891.jpg,1,Group1_IMG_2891.jpg,,,,,0.0,40.0,40.0,40.0,,,,,,,,,,,,,,,,,,,,,,,,,,,,,,,,,,,,,581.501433684025,None,581.501433684025,None,581.501433684025,None,1.0,1.4821719641331583,581.501433684025,None,581.501433684025,None,1.0,2.038732318906113,582.5360039740335,None,581.501433684025,None,1.0,2.7769431460183114,583.1030232848134,None,581.501433684025,None,space,0.2742528261151165,2.8076240269001573,None,581.501433684025,None,581.501433684025,None,,,,,,,,,1,2022_Apr_14_1153,SAR-soap,2021.1.2,
46,Trial # 42,Group1-stimuli/group1-block1/real-group1-b1/Group1_IMG_0157.jpg,1,Group1_IMG_0157.jpg,,,,,0.0,41.0,41.0,41.0,,,,,,,,,,,,,,,,,,,,,,,,,,,,,,,,,,,,,584.6360147879459,None,584.6360147879459,None,584.6360147879459,None,7.0,3.3900204428937286,584.6360147879459,None,584.6360147879459,None,7.0,5.595973862102255,585.419755365001,None,584.6360147879459,None,3.0,6.967451348900795,588.5533372499049,None,584.6360147879459,None,space,0.2770285350270569,6.987675905227661,None,584.6360147879459,None,584.6360147879459,None,,,,,,,,,1,2022_Apr_14_1153,SAR-soap,2021.1.2,
47,Trial # 43,Group1-stimuli/group1-block1/real-group1-b1/Group1_IMG_9833.jpg,1,Group1_IMG_9833.jpg,,,,,0.0,42.0,42.0,42.0,,,,,,,,,,,,,,,,,,,,,,,,,,,,,,,,,,,,,591.939113618806,None,591.939113618806,None,591.939113618806,None,1.0,1.538366508902982,591.939113618806,None,591.939113618806,None,1.0,2.5269616388250142,593.0389591159765,None,591.939113618806,None,3.0,5.03359018987976,594.0383492889814,None,591.939113618806,None,space,2.3177062799222767,3.2012106280308217,None,591.939113618806,None,591.939113618806,None,,,,,,,,,1,2022_Apr_14_1153,SAR-soap,2021.1.2,
48,Trial # 44,Group1-stimuli/group1-block1/fake-group2-b1/encoded_Group2_IMG_2230.jpg,0,encoded_Group2_IMG_2230.jpg,,,,,0.0,43.0,43.0,43.0,,,,,,,,,,,,,,,,,,,,,,,,,,,,,,,,,,,,,597.5073636840098,None,597.5073636840098,None,597.5073636840098,None,7.0,3.0360137780662626,597.5073636840098,None,597.5073636840098,None,7.0,3.408332956954837,598.5566081539728,None,597.5073636840098,None,2.0,4.146895293146372,600.47388249496,None,597.5073636840098,None,space,0.3195742820389569,4.180832552025095,None,597.5073636840098,None,597.5073636840098,None,,,,,,,,,1,2022_Apr_14_1153,SAR-soap,2021.1.2,
49,Trial # 45,Group1-stimuli/group1-block1/real-group1-b1/Group1_IMG_9966.jpg,1,Group1_IMG_9966.jpg,,,,,0.0,44.0,44.0,44.0,,,,,,,,,,,,,,,,,,,,,,,,,,,,,,,,,,,,,602.0415508958977,None,602.0415508958977,None,602.0415508958977,None,4.0,4.831334211165085,602.0415508958977,None,602.0415508958977,None,3.0,7.903869465924799,604.509303194005,None,602.0415508958977,None,2.0,8.342100485926494,607.3761251298711,None,602.0415508958977,None,space,0.2553288179915398,8.36943048122339,None,602.0415508958977,None,602.0415508958977,None,,,,,,,,,1,2022_Apr_14_1153,SAR-soap,2021.1.2,
50,Trial # 46,Group1-stimuli/group1-block1/real-group1-b1/Group1_IMG_0239.jpg,1,Group1_IMG_0239.jpg,,,,,0.0,45.0,45.0,45.0,,,,,,,,,,,,,,,,,,,,,,,,,,,,,,,,,,,,,610.7099182498641,None,610.7099182498641,None,610.7099182498641,None,1.0,1.7044678288511932,610.7099182498641,None,610.7099182498641,None,1.0,2.276462325127796,611.9614694230258,None,610.7099182498641,None,4.0,4.449546783929691,612.5443395229522,None,610.7099182498641,None,space,1.887483794940636,2.86793785635382,None,610.7099182498641,None,610.7099182498641,None,,,,,,,,,1,2022_Apr_14_1153,SAR-soap,2021.1.2,
51,Trial # 47,Group1-stimuli/group1-block1/fake-group2-b1/encoded_Group2_IMG_0536.jpg,0,encoded_Group2_IMG_0536.jpg,,,,,0.0,46.0,46.0,46.0,,,,,,,,,,,,,,,,,,,,,,,,,,,,,,,,,,,,,615.5114056819584,None,615.5114056819584,None,615.5114056819584,None,1.0,1.359806298976764,615.5114056819584,None,615.5114056819584,None,1.0,1.916727315168828,616.4119249950163,None,615.5114056819584,None,4.0,2.5557154070120305,616.9798812898807,None,615.5114056819584,None,space,0.2412663840223103,2.580738075543195,None,615.5114056819584,None,615.5114056819584,None,,,,,,,,,1,2022_Apr_14_1153,SAR-soap,2021.1.2,
52,Trial # 48,Group1-stimuli/group1-block1/fake-group2-b1/encoded_Group2_IMG_0521.jpg,0,encoded_Group2_IMG_0521.jpg,,,,,0.0,47.0,47.0,47.0,,,,,,,,,,,,,,,,,,,,,,,,,,,,,,,,,,,,,618.3800198319368,None,618.3800198319368,None,618.3800198319368,None,7.0,1.9424501049797984,618.3800198319368,None,618.3800198319368,None,5.0,4.899783333064988,619.8630174398422,None,618.3800198319368,None,1.0,5.636927638901398,620.530774931889,None,618.3800198319368,None,space,1.4021119340322912,5.662404464324936,None,618.3800198319368,None,618.3800198319368,None,,,,,,,,,1,2022_Apr_14_1153,SAR-soap,2021.1.2,
53,Trial # 49,Group1-stimuli/group1-block1/fake-group2-b1/encoded_Group2_IMG_9924.jpg,0,encoded_Group2_IMG_9924.jpg,,,,,0.0,48.0,48.0,48.0,,,,,,,,,,,,,,,,,,,,,,,,,,,,,,,,,,,,,625.481650540838,None,625.481650540838,None,625.481650540838,None,1.0,1.8122309690807008,625.481650540838,None,625.481650540838,None,1.0,4.902091321069747,626.8480623220094,None,625.481650540838,None,3.0,5.97433417593129,627.4827467279974,None,625.481650540838,None,space,0.230323813855648,6.002138640265912,None,625.481650540838,None,625.481650540838,None,,,,,,,,,1,2022_Apr_14_1153,SAR-soap,2021.1.2,
54,Trial # 50,Group1-stimuli/group1-block1/real-group1-b1/Group1_IMG_9730.jpg,1,Group1_IMG_9730.jpg,,,,,0.0,49.0,49.0,49.0,,,,,,,,,,,,,,,,,,,,,,,,,,,,,,,,,,,,,631.7499115848914,None,631.7499115848914,None,631.7499115848914,None,7.0,3.306305530015379,631.7499115848914,None,631.7499115848914,None,7.0,3.8299807428848,634.6016097408719,None,631.7499115848914,None,2.0,5.803001343039796,635.1347491298802,None,631.7499115848914,None,space,0.1754443158861249,5.823202577419579,None,631.7499115848914,None,631.7499115848914,None,,,,,,,,,1,2022_Apr_14_1153,SAR-soap,2021.1.2,
55,Trial # 51,Group1-stimuli/group1-block1/real-group1-b1/Group1_IMG_0053.jpg,1,Group1_IMG_0053.jpg,,,,,0.0,50.0,50.0,50.0,,,,,,,,,,,,,,,,,,,,,,,,,,,,,,,,,,,,,637.8030595488381,None,637.8030595488381,None,637.8030595488381,None,1.0,1.5005522130522877,637.8030595488381,None,637.8030595488381,None,1.0,1.9902918830048293,638.8525041888934,None,637.8030595488381,None,1.0,2.495620161993429,639.3533451179974,None,637.8030595488381,None,space,0.2496247680392116,2.5264939081389457,None,637.8030595488381,None,637.8030595488381,None,,,,,,,,,1,2022_Apr_14_1153,SAR-soap,2021.1.2,
56,Trial # 52,Group1-stimuli/group1-block1/real-group1-b1/Group1_IMG_9698.jpg,1,Group1_IMG_9698.jpg,,,,,0.0,51.0,51.0,51.0,,,,,,,,,,,,,,,,,,,,,,,,,,,,,,,,,,,,,640.6190182748251,None,640.6190182748251,None,640.6190182748251,None,1.0,1.4324904929380864,640.6190182748251,None,640.6190182748251,None,1.0,1.9553693421185017,641.6036503829528,None,640.6190182748251,None,4.0,2.761439318070188,642.1378002529964,None,640.6190182748251,None,space,0.2054751210380345,2.7909912951290607,None,640.6190182748251,None,640.6190182748251,None,,,,,,,,,1,2022_Apr_14_1153,SAR-soap,2021.1.2,
57,Trial # 53,Group1-stimuli/group1-block1/fake-group2-b1/encoded_Group2_IMG_0553.jpg,0,encoded_Group2_IMG_0553.jpg,,,,,0.0,52.0,52.0,52.0,,,,,,,,,,,,,,,,,,,,,,,,,,,,,,,,,,,,,643.6714220819995,None,643.6714220819995,None,643.6714220819995,None,1.0,1.2087803541217,643.6714220819995,None,643.6714220819995,None,1.0,1.5985299570020288,644.420906689018,None,643.6714220819995,None,3.0,2.3367823080625385,644.8210159200244,None,643.6714220819995,None,space,0.2047214219346642,2.360753187444061,None,643.6714220819995,None,643.6714220819995,None,,,,,,,,,1,2022_Apr_14_1153,SAR-soap,2021.1.2,
58,Trial # 54,Group1-stimuli/group1-block1/fake-group2-b1/encoded_Group2_IMG_9758.jpg,0,encoded_Group2_IMG_9758.jpg,,,,,0.0,53.0,53.0,53.0,,,,,,,,,,,,,,,,,,,,,,,,,,,,,,,,,,,,,646.2878959879745,None,646.2878959879745,None,646.2878959879745,None,7.0,1.6281525129452348,646.2878959879745,None,646.2878959879745,None,5.0,3.04936498682946,647.4556029709056,None,646.2878959879745,None,2.0,4.687885398976505,647.9555870098993,None,646.2878959879745,None,space,0.1487544579431414,4.712687348015606,None,646.2878959879745,None,646.2878959879745,None,,,,,,,,,1,2022_Apr_14_1153,SAR-soap,2021.1.2,
59,Trial # 55,Group1-stimuli/group1-block1/fake-group2-b1/encoded_Group2_IMG_0339.jpg,0,encoded_Group2_IMG_0339.jpg,,,,,0.0,54.0,54.0,54.0,,,,,,,,,,,,,,,,,,,,,,,,,,,,,,,,,,,,,651.1896483099554,None,651.1896483099554,None,651.1896483099554,None,1.0,1.443065008148551,651.1896483099554,None,651.1896483099554,None,1.0,2.6494078321848065,652.1589147949126,None,651.1896483099554,None,3.0,3.6213151440024376,653.390925879823,None,651.1896483099554,None,space,0.2251684779766947,3.6454233082477,None,651.1896483099554,None,651.1896483099554,None,,,,,,,,,1,2022_Apr_14_1153,SAR-soap,2021.1.2,
60,Trial # 56,Group1-stimuli/group1-block1/real-group1-b1/Group1_IMG_0314.jpg,1,Group1_IMG_0314.jpg,,,,,0.0,55.0,55.0,55.0,,,,,,,,,,,,,,,,,,,,,,,,,,,,,,,,,,,,,655.090823937906,None,655.090823937906,None,655.090823937906,None,2.0,1.1742312060669065,655.090823937906,None,655.090823937906,None,1.0,1.9963902300223708,655.8075598150026,None,655.090823937906,None,3.0,2.7031948971562088,656.6417664138135,None,655.090823937906,None,space,0.40083465911448,2.724619616288692,None,655.090823937906,None,655.090823937906,None,,,,,,,,,1,2022_Apr_14_1153,SAR-soap,2021.1.2,
61,Trial # 57,Group1-stimuli/group1-block1/fake-group2-b1/encoded_Group2_IMG_0532.jpg,0,encoded_Group2_IMG_0532.jpg,,,,,0.0,56.0,56.0,56.0,,,,,,,,,,,,,,,,,,,,,,,,,,,,,,,,,,,,,658.2756709558889,None,658.2756709558889,None,658.2756709558889,None,7.0,3.610134952003136,658.2756709558889,None,658.2756709558889,None,4.0,4.616712982067838,660.5767748740036,None,658.2756709558889,None,2.0,6.089322115993127,662.4439716429915,None,658.2756709558889,None,space,0.1605380680412054,6.111685041338205,None,658.2756709558889,None,658.2756709558889,None,,,,,,,,,1,2022_Apr_14_1153,SAR-soap,2021.1.2,
62,Trial # 58,Group1-stimuli/group1-block1/fake-group2-b1/encoded_Group2_IMG_0462.jpg,0,encoded_Group2_IMG_0462.jpg,,,,,0.0,57.0,57.0,57.0,,,,,,,,,,,,,,,,,,,,,,,,,,,,,,,,,,,,,664.5776194490027,None,664.5776194490027,None,664.5776194490027,None,1.0,1.3755354739259928,664.5776194490027,None,664.5776194490027,None,1.0,1.9482923990581185,665.4939118409529,None,664.5776194490027,None,1.0,2.419950040057301,666.0772080409806,None,664.5776194490027,None,space,1.991121948929504,2.443075810326264,None,664.5776194490027,None,664.5776194490027,None,,,,,,,,,1,2022_Apr_14_1153,SAR-soap,2021.1.2,
63,Trial # 59,Group1-stimuli/group1-block1/real-group1-b1/Group1_IMG_0172.jpg,1,Group1_IMG_0172.jpg,,,,,0.0,58.0,58.0,58.0,,,,,,,,,,,,,,,,,,,,,,,,,,,,,,,,,,,,,669.0447271829471,None,669.0447271829471,None,669.0447271829471,None,1.0,2.90676332404837,669.0447271829471,None,669.0447271829471,None,4.0,4.562919239979237,671.4953907369636,None,669.0447271829471,None,3.0,5.102732105180621,673.1636365728918,None,669.0447271829471,None,space,0.1735137230716645,5.12316235434264,None,669.0447271829471,None,669.0447271829471,None,,,,,,,,,1,2022_Apr_14_1153,SAR-soap,2021.1.2,
64,Trial # 60,Group1-stimuli/group1-block1/real-group1-b1/Group1_IMG_4841.jpg,1,Group1_IMG_4841.jpg,,,,,0.0,59.0,59.0,59.0,,,,,,,,,,,,,,,,,,,,,,,,,,,,,,,,,,,,,674.3970008429606,None,674.3970008429606,None,674.3970008429606,None,7.0,2.6738485009409487,674.3970008429606,None,674.3970008429606,None,5.0,4.430362755898386,675.1635426608846,None,674.3970008429606,None,3.0,5.902563691139221,678.3815005538054,None,674.3970008429606,None,space,0.2469363738782704,5.9239443524274975,None,674.3970008429606,None,674.3970008429606,None,,,,,,,,,1,2022_Apr_14_1153,SAR-soap,2021.1.2,
65,Trial # 61,Group1-stimuli/group1-block1/fake-group2-b1/encoded_Group2_IMG_0352.jpg,0,encoded_Group2_IMG_0352.jpg,,,,,0.0,60.0,60.0,60.0,,,,,,,,,,,,,,,,,,,,,,,,,,,,,,,,,,,,,680.6146440918092,None,680.6146440918092,None,680.6146440918092,None,1.0,1.8443133481778204,680.6146440918092,None,680.6146440918092,None,1.0,2.367017233045772,681.9994925209321,None,680.6146440918092,None,3.0,3.2063930020667613,682.5333274570294,None,680.6146440918092,None,space,0.1363392900675535,3.230268693296239,None,680.6146440918092,None,680.6146440918092,None,,,,,,,,,1,2022_Apr_14_1153,SAR-soap,2021.1.2,
66,Trial # 62,Group1-stimuli/group1-block1/fake-group2-b1/encoded_Group2_IMG_9726.jpg,0,encoded_Group2_IMG_9726.jpg,,,,,0.0,61.0,61.0,61.0,,,,,,,,,,,,,,,,,,,,,,,,,,,,,,,,,,,,,684.0329603308346,None,684.0329603308346,None,684.0329603308346,None,7.0,2.028493629069999,684.0329603308346,None,684.0329603308346,None,7.0,3.2346215089783072,684.5838716418948,None,684.0329603308346,None,3.0,5.7074639240745455,686.8166618139949,None,684.0329603308346,None,space,0.1933597070164978,5.733976151328534,None,684.0329603308346,None,684.0329603308346,None,,,,,,,,,1,2022_Apr_14_1153,SAR-soap,2021.1.2,
67,Trial # 63,Group1-stimuli/group1-block1/fake-group2-b1/encoded_Group2_IMG_9785.jpg,0,encoded_Group2_IMG_9785.jpg,,,,,0.0,62.0,62.0,62.0,,,,,,,,,,,,,,,,,,,,,,,,,,,,,,,,,,,,,689.9854670388158,None,689.9854670388158,None,689.9854670388158,None,6.0,3.978140902938321,689.9854670388158,None,689.9854670388158,None,4.0,3.4510697489604354,690.9180133449845,None,689.9854670388158,None,2.0,4.889616107102484,691.5845966439229,None,689.9854670388158,None,space,0.2756991900969296,4.913322106236592,None,689.9854670388158,None,689.9854670388158,None,,,,,,,,,1,2022_Apr_14_1153,SAR-soap,2021.1.2,
68,Trial # 64,Group1-stimuli/group1-block1/fake-group2-b1/encoded_Group2_IMG_0440.jpg,0,encoded_Group2_IMG_0440.jpg,,,,,0.0,63.0,63.0,63.0,,,,,,,,,,,,,,,,,,,,,,,,,,,,,,,,,,,,,695.2191798679996,None,695.2191798679996,None,695.2191798679996,None,6.0,1.8761392110027373,695.2191798679996,None,695.2191798679996,None,5.0,4.565859850030392,696.6375442619901,None,695.2191798679996,None,2.0,6.038683430990204,698.4709728099406,None,695.2191798679996,None,space,0.1852558371610939,6.06375451409258,None,695.2191798679996,None,695.2191798679996,None,,,,,,,,,1,2022_Apr_14_1153,SAR-soap,2021.1.2,
69,Trial # 65,Group1-stimuli/group1-block1/fake-group2-b1/encoded_Group2_IMG_1695.jpg,0,encoded_Group2_IMG_1695.jpg,,,,,0.0,64.0,64.0,64.0,,,,,,,,,,,,,,,,,,,,,,,,,,,,,,,,,,,,,701.505379739916,None,701.505379739916,None,701.505379739916,None,1.0,1.60878328490071,701.505379739916,None,701.505379739916,None,1.0,1.9977682831231505,702.6559559388552,None,701.505379739916,None,4.0,2.970012461999432,703.0557772649918,None,701.505379739916,None,space,0.2484395338688045,2.992680141236633,None,701.505379739916,None,701.505379739916,None,,,,,,,,,1,2022_Apr_14_1153,SAR-soap,2021.1.2,
70,Trial # 66,Group1-stimuli/group1-block1/real-group1-b1/Group1_IMG_0552.jpg,1,Group1_IMG_0552.jpg,,,,,0.0,65.0,65.0,65.0,,,,,,,,,,,,,,,,,,,,,,,,,,,,,,,,,,,,,704.7889596268069,None,704.7889596268069,None,704.7889596268069,None,1.0,1.5400985591113567,704.7889596268069,None,704.7889596268069,None,1.0,1.8960119080729785,705.8739035839681,None,704.7889596268069,None,4.0,2.533934773877263,706.2396943049971,None,704.7889596268069,None,space,0.1893818778917193,2.555875358404592,None,704.7889596268069,None,704.7889596268069,None,,,,,,,,,1,2022_Apr_14_1153,SAR-soap,2021.1.2,
71,Trial # 67,Group1-stimuli/group1-block1/real-group1-b1/Group1_IMG_1029.jpg,1,Group1_IMG_1029.jpg,,,,,0.0,66.0,66.0,66.0,,,,,,,,,,,,,,,,,,,,,,,,,,,,,,,,,,,,,707.5748059309553,None,707.5748059309553,None,707.5748059309553,None,6.0,2.124038332840428,707.5748059309553,None,707.5748059309553,None,3.0,3.246204804861918,709.2416856538039,None,707.5748059309553,None,1.0,4.652551507810131,710.3753975038417,None,707.5748059309553,None,space,0.2639818990137428,4.673837788635865,None,707.5748059309553,None,707.5748059309553,None,,,,,,,,,1,2022_Apr_14_1153,SAR-soap,2021.1.2,
72,Trial # 68,Group1-stimuli/group1-block1/fake-group2-b1/encoded_Group2_IMG_6517.jpg,0,encoded_Group2_IMG_6517.jpg,,,,,0.0,67.0,67.0,67.0,,,,,,,,,,,,,,,,,,,,,,,,,,,,,,,,,,,,,712.5420553269796,None,712.5420553269796,None,712.5420553269796,None,1.0,1.4587718970142305,712.5420553269796,None,712.5420553269796,None,1.0,2.115011821035296,713.5437289269175,None,712.5420553269796,None,3.0,3.253556131850928,714.2095047759358,None,712.5420553269796,None,space,0.1678766862023621,3.2776901612523943,None,712.5420553269796,None,712.5420553269796,None,,,,,,,,,1,2022_Apr_14_1153,SAR-soap,2021.1.2,
73,Trial # 69,Group1-stimuli/group1-block1/fake-group2-b1/encoded_Group2_IMG_0002.jpg,0,encoded_Group2_IMG_0002.jpg,,,,,0.0,68.0,68.0,68.0,,,,,,,,,,,,,,,,,,,,,,,,,,,,,,,,,,,,,716.0429187219124,None,716.0429187219124,None,716.0429187219124,None,1.0,1.3425075830891728,716.0429187219124,None,716.0429187219124,None,2.0,3.747689316049218,716.9269408048131,None,716.0429187219124,None,2.0,5.287113453960046,718.2442746609449,None,716.0429187219124,None,space,0.1686736559495329,5.311446097213775,None,716.0429187219124,None,716.0429187219124,None,,,,,,,,,1,2022_Apr_14_1153,SAR-soap,2021.1.2,
74,Trial # 70,Group1-stimuli/group1-block1/real-group1-b1/Group1_IMG_0495.jpg,1,Group1_IMG_0495.jpg,,,,,0.0,69.0,69.0,69.0,,,,,,,,,,,,,,,,,,,,,,,,,,,,,,,,,,,,,721.577538006939,None,721.577538006939,None,721.577538006939,None,1.0,1.0251666519325229,721.577538006939,None,721.577538006939,None,1.0,1.914378518005833,722.1301482678391,None,721.577538006939,None,4.0,3.186347975162789,723.0460592729505,None,721.577538006939,None,space,0.8643096210435033,2.5751815773546696,None,721.577538006939,None,721.577538006939,None,,,,,,,,,1,2022_Apr_14_1153,SAR-soap,2021.1.2,
75,Trial # 71,Group1-stimuli/group1-block1/real-group1-b1/Group1_IMG_1391.jpg,1,Group1_IMG_1391.jpg,,,,,0.0,70.0,70.0,70.0,,,,,,,,,,,,,,,,,,,,,,,,,,,,,,,,,,,,,725.0462814618368,None,725.0462814618368,None,725.0462814618368,None,5.0,3.125036170938984,725.0462814618368,None,725.0462814618368,None,3.0,6.329777515027672,725.9958246219903,None,725.0462814618368,None,1.0,5.901077390881255,728.4974993858486,None,725.0462814618368,None,space,0.6929419641382992,5.9235679663252085,None,725.0462814618368,None,725.0462814618368,None,,,,,,,,,1,2022_Apr_14_1153,SAR-soap,2021.1.2,
76,Trial # 72,Group1-stimuli/group1-block1/real-group1-b1/Group1_IMG_0343.jpg,1,Group1_IMG_0343.jpg,,,,,0.0,71.0,71.0,71.0,,,,,,,,,,,,,,,,,,,,,,,,,,,,,,,,,,,,,731.6973478219006,None,731.6973478219006,None,731.6973478219006,None,1.0,1.4737594448961318,731.6973478219006,None,731.6973478219006,None,1.0,2.0629477058537304,732.7149653478991,None,731.6973478219006,None,3.0,2.735040721017868,733.3154500490054,None,731.6973478219006,None,space,0.5206443560309708,2.754785930272192,None,731.6973478219006,None,731.6973478219006,None,,,,,,,,,1,2022_Apr_14_1153,SAR-soap,2021.1.2,
77,Trial # 73,Group1-stimuli/group1-block1/fake-group2-b1/encoded_Group2_IMG_9810.jpg,0,encoded_Group2_IMG_9810.jpg,,,,,0.0,72.0,72.0,72.0,,,,,,,,,,,,,,,,,,,,,,,,,,,,,,,,,,,,,734.9993772599846,None,734.9993772599846,None,734.9993772599846,None,1.0,1.2451591489370912,734.9993772599846,None,734.9993772599846,None,1.0,2.102016700897366,735.7993882268202,None,734.9993772599846,None,2.0,2.6078104651533067,736.6654432718642,None,734.9993772599846,None,space,0.1518159520346671,2.634844848420471,None,734.9993772599846,None,734.9993772599846,None,,,,,,,,,1,2022_Apr_14_1153,SAR-soap,2021.1.2,
78,Trial # 74,Group1-stimuli/group1-block1/fake-group2-b1/encoded_Group2_IMG_5900.jpg,0,encoded_Group2_IMG_5900.jpg,,,,,0.0,73.0,73.0,73.0,,,,,,,,,,,,,,,,,,,,,,,,,,,,,,,,,,,,,737.8166769349482,None,737.8166769349482,None,737.8166769349482,None,1.0,1.462695213034749,737.8166769349482,None,737.8166769349482,None,1.0,1.8849008120596409,738.8337532589212,None,737.8166769349482,None,2.0,2.523492718115449,739.2674382249825,None,737.8166769349482,None,space,0.2824575810227543,2.550784069579094,None,737.8166769349482,None,737.8166769349482,None,,,,,,,,,1,2022_Apr_14_1153,SAR-soap,2021.1.2,
79,Trial # 75,Group1-stimuli/group1-block1/real-group1-b1/Group1_IMG_9679.jpg,1,Group1_IMG_9679.jpg,,,,,0.0,74.0,74.0,74.0,,,,,,,,,,,,,,,,,,,,,,,,,,,,,,,,,,,,,740.7006233409047,None,740.7006233409047,None,740.7006233409047,None,1.0,1.4061720289755613,740.7006233409047,None,740.7006233409047,None,1.0,2.1285736500285566,741.6502642859705,None,740.7006233409047,None,4.0,3.802285736892373,742.3846018298063,None,740.7006233409047,None,space,0.2035725549794733,3.8215546971187,None,740.7006233409047,None,740.7006233409047,None,,,,,,,,,1,2022_Apr_14_1153,SAR-soap,2021.1.2,
80,Trial # 76,Group1-stimuli/group1-block1/fake-group2-b1/encoded_Group2_IMG_4249.jpg,0,encoded_Group2_IMG_4249.jpg,,,,,0.0,75.0,75.0,75.0,,,,,,,,,,,,,,,,,,,,,,,,,,,,,,,,,,,,,744.7679208558984,None,744.7679208558984,None,744.7679208558984,None,6.0,7.914708158932626,744.7679208558984,None,744.7679208558984,None,5.0,7.486247778870165,746.5197557609063,None,744.7679208558984,None,3.0,9.09204910416156,747.2533560870215,None,744.7679208558984,None,space,0.2577252259943634,9.119152404367924,None,744.7679208558984,None,744.7679208558984,None,,,,,,,,,1,2022_Apr_14_1153,SAR-soap,2021.1.2,
81,Trial # 77,Group1-stimuli/group1-block1/fake-group2-b1/encoded_Group2_IMG_0174.jpg,0,encoded_Group2_IMG_0174.jpg,,,,,0.0,76.0,76.0,76.0,,,,,,,,,,,,,,,,,,,,,,,,,,,,,,,,,,,,,754.188378804829,None,754.188378804829,None,754.188378804829,None,1.0,1.309214943088591,754.188378804829,None,754.188378804829,None,1.0,2.232500529848039,755.0381531908643,None,754.188378804829,None,3.0,3.4717612490057945,755.972012257902,None,754.188378804829,None,space,0.2007749571930617,3.4950656432192773,None,754.188378804829,None,754.188378804829,None,,,,,,,,,1,2022_Apr_14_1153,SAR-soap,2021.1.2,
82,Trial # 78,Group1-stimuli/group1-block1/fake-group2-b1/encoded_Group2_IMG_0475.jpg,0,encoded_Group2_IMG_0475.jpg,,,,,0.0,77.0,77.0,77.0,,,,,,,,,,,,,,,,,,,,,,,,,,,,,,,,,,,,,757.9401114168577,None,757.9401114168577,None,757.9401114168577,None,1.0,1.4595231390558183,757.9401114168577,None,757.9401114168577,None,1.0,2.081369949039072,758.9406208628789,None,757.9401114168577,None,1.0,2.6204480100423098,759.5730021798518,None,757.9401114168577,None,space,0.3964856329839676,2.645246199099347,None,757.9401114168577,None,757.9401114168577,None,,,,,,,,,1,2022_Apr_14_1153,SAR-soap,2021.1.2,
83,Trial # 79,Group1-stimuli/group1-block1/fake-group2-b1/encoded_Group2_IMG_9751.jpg,0,encoded_Group2_IMG_9751.jpg,,,,,0.0,78.0,78.0,78.0,,,,,,,,,,,,,,,,,,,,,,,,,,,,,,,,,,,,,761.0062654670328,None,761.0062654670328,None,761.0062654670328,None,1.0,1.2089187519159168,761.0062654670328,None,761.0062654670328,None,1.0,1.665133886039257,761.7571005288046,None,761.0062654670328,None,1.0,2.0711990208365023,762.2238982098643,None,761.0062654670328,None,space,0.3107588880229741,2.095347941154614,None,761.0062654670328,None,761.0062654670328,None,,,,,,,,,1,2022_Apr_14_1153,SAR-soap,2021.1.2,
84,Trial # 80,Group1-stimuli/group1-block1/fake-group2-b1/encoded_Group2_IMG_0492.jpg,0,encoded_Group2_IMG_0492.jpg,,,,,0.0,79.0,79.0,79.0,,,,,,,,,,,,,,,,,,,,,,,,,,,,,,,,,,,,,763.4574449898209,None,763.4574449898209,None,763.4574449898209,None,1.0,1.0270633241161704,763.4574449898209,None,763.4574449898209,None,1.0,1.999370353994891,764.0242737648077,None,763.4574449898209,None,1.0,2.5045277180615813,765.0078265590128,None,763.4574449898209,None,space,0.2267073539551347,2.5288137663155794,None,763.4574449898209,None,763.4574449898209,None,,,,,,,,,1,2022_Apr_14_1153,SAR-soap,2021.1.2,
85,Trial # 81,Group1-stimuli/group1-block1/real-group1-b1/Group1_IMG_0535.jpg,1,Group1_IMG_0535.jpg,,,,,0.0,80.0,80.0,80.0,,,,,,,,,,,,,,,,,,,,,,,,,,,,,,,,,,,,,766.2415134338662,None,766.2415134338662,None,766.2415134338662,None,1.0,1.10831849090755,766.2415134338662,None,766.2415134338662,None,1.0,1.6325025788974017,766.8919784228783,None,766.2415134338662,None,3.0,2.8695126259699464,767.4254654778633,None,766.2415134338662,None,space,0.2111328220926225,2.8952312325127423,None,766.2415134338662,None,766.2415134338662,None,,,,,,,,,1,2022_Apr_14_1153,SAR-soap,2021.1.2,
86,Trial # 82,Group1-stimuli/group1-block1/real-group1-b1/Group1_IMG_0077.jpg,1,Group1_IMG_0077.jpg,,,,,0.0,81.0,81.0,81.0,,,,,,,,,,,,,,,,,,,,,,,,,,,,,,,,,,,,,769.3921686639078,None,769.3921686639078,None,769.3921686639078,None,6.0,2.008981862105429,769.3921686639078,None,769.3921686639078,None,3.0,2.93070509377867,770.9435909078456,None,769.3921686639078,None,2.0,4.803839068859816,771.8767734998837,None,769.3921686639078,None,space,0.1898019160144031,4.827221473213285,None,769.3921686639078,None,769.3921686639078,None,,,,,,,,,1,2022_Apr_14_1153,SAR-soap,2021.1.2,
87,Trial # 83,Group1-stimuli/group1-block1/fake-group2-b1/encoded_Group2_IMG_9702.jpg,0,encoded_Group2_IMG_9702.jpg,,,,,0.0,82.0,82.0,82.0,,,,,,,,,,,,,,,,,,,,,,,,,,,,,,,,,,,,,774.4450464558322,None,774.4450464558322,None,774.4450464558322,None,2.0,2.325763096101582,774.4450464558322,None,774.4450464558322,None,1.0,3.9648935832083225,775.6943224249408,None,774.4450464558322,None,3.0,5.171442996012047,777.1625777408481,None,774.4450464558322,None,space,0.1967690060846507,5.193940540077165,None,774.4450464558322,None,774.4450464558322,None,,,,,,,,,1,2022_Apr_14_1153,SAR-soap,2021.1.2,
88,Trial # 84,Group1-stimuli/group1-block1/real-group1-b1/Group1_IMG_0357.jpg,1,Group1_IMG_0357.jpg,,,,,0.0,83.0,83.0,83.0,,,,,,,,,,,,,,,,,,,,,,,,,,,,,,,,,,,,,779.8632945669815,None,779.8632945669815,None,779.8632945669815,None,1.0,2.689117677975446,779.8632945669815,None,779.8632945669815,None,1.0,3.345086975954473,782.0976667569485,None,779.8632945669815,None,5.0,4.850638892035931,782.7636060379446,None,779.8632945669815,None,space,0.2061219669412821,4.871320189442486,None,779.8632945669815,None,779.8632945669815,None,,,,,,,,,1,2022_Apr_14_1153,SAR-soap,2021.1.2,
89,Trial # 85,Group1-stimuli/group1-block1/real-group1-b1/Group1_IMG_9772.jpg,1,Group1_IMG_9772.jpg,,,,,0.0,84.0,84.0,84.0,,,,,,,,,,,,,,,,,,,,,,,,,,,,,,,,,,,,,784.9977840308566,None,784.9977840308566,None,784.9977840308566,None,6.0,1.8230787510983648,784.9977840308566,None,784.9977840308566,None,5.0,5.163157115923241,785.6145832769107,None,784.9977840308566,None,1.0,5.868244488956407,787.7821311319713,None,784.9977840308566,None,space,0.5593811420258135,5.889362628571689,None,784.9977840308566,None,784.9977840308566,None,,,,,,,,,1,2022_Apr_14_1153,SAR-soap,2021.1.2,
90,Trial # 86,Group1-stimuli/group1-block1/real-group1-b1/Group1_IMG_0482.jpg,1,Group1_IMG_0482.jpg,,,,,0.0,85.0,85.0,85.0,,,,,,,,,,,,,,,,,,,,,,,,,,,,,,,,,,,,,791.482214292977,None,791.482214292977,None,791.482214292977,None,1.0,1.9069733680225909,791.482214292977,None,791.482214292977,None,1.0,2.5630455331411213,792.9342299359851,None,791.482214292977,None,5.0,3.368190089939162,793.6000741298776,None,791.482214292977,None,space,0.2297932228539139,3.3889424924273044,None,791.482214292977,None,791.482214292977,None,,,,,,,,,1,2022_Apr_14_1153,SAR-soap,2021.1.2,
91,Trial # 87,Group1-stimuli/group1-block1/real-group1-b1/Group1_IMG_0299.jpg,1,Group1_IMG_0299.jpg,,,,,0.0,86.0,86.0,86.0,,,,,,,,,,,,,,,,,,,,,,,,,,,,,,,,,,,,,795.1336539739277,None,795.1336539739277,None,795.1336539739277,None,6.0,2.321591786108911,795.1336539739277,None,795.1336539739277,None,5.0,3.1120964309666306,797.0016960659996,None,795.1336539739277,None,2.0,6.084324400871992,797.801592133008,None,795.1336539739277,None,space,0.1896180100739002,6.104862970300019,None,795.1336539739277,None,795.1336539739277,None,,,,,,,,,1,2022_Apr_14_1153,SAR-soap,2021.1.2,
92,Trial # 88,Group1-stimuli/group1-block1/fake-group2-b1/encoded_Group2_IMG_0301.jpg,0,encoded_Group2_IMG_0301.jpg,,,,,0.0,87.0,87.0,87.0,,,,,,,,,,,,,,,,,,,,,,,,,,,,,,,,,,,,,801.4690499380231,None,801.4690499380231,None,801.4690499380231,None,3.0,1.893471686867997,801.4690499380231,None,801.4690499380231,None,3.0,2.449859560932964,802.9040057028178,None,801.4690499380231,None,2.0,3.0212789007928222,803.4710047750268,None,801.4690499380231,None,space,0.1060166500974446,3.0444567773956805,None,801.4690499380231,None,801.4690499380231,None,,,,,,,,,1,2022_Apr_14_1153,SAR-soap,2021.1.2,
93,Trial # 89,Group1-stimuli/group1-block1/fake-group2-b1/encoded_Group2_IMG_5136.jpg,0,encoded_Group2_IMG_5136.jpg,,,,,0.0,88.0,88.0,88.0,,,,,,,,,,,,,,,,,,,,,,,,,,,,,,,,,,,,,804.670278040925,None,804.670278040925,None,804.670278040925,None,6.0,2.724652968114242,804.670278040925,None,804.670278040925,None,3.0,3.2304609750863165,805.9882181659341,None,804.670278040925,None,1.0,4.469580193050206,807.4550897518639,None,804.670278040925,None,space,0.4617194409947842,4.4933911541011184,None,804.670278040925,None,804.670278040925,None,,,,,,,,,1,2022_Apr_14_1153,SAR-soap,2021.1.2,
94,Trial # 90,Group1-stimuli/group1-block1/real-group1-b1/Group1_IMG_0460.jpg,1,Group1_IMG_0460.jpg,,,,,0.0,89.0,89.0,89.0,,,,,,,,,,,,,,,,,,,,,,,,,,,,,,,,,,,,,809.6545908758417,None,809.6545908758417,None,809.6545908758417,None,5.0,3.510193506954238,809.6545908758417,None,809.6545908758417,None,3.0,4.799706096062437,811.4560577878729,None,809.6545908758417,None,2.0,5.606187631841749,813.4736640539486,None,809.6545908758417,None,space,0.3754269229248166,5.629044163506478,None,809.6545908758417,None,809.6545908758417,None,,,,,,,,,1,2022_Apr_14_1153,SAR-soap,2021.1.2,
95,Trial # 91,Group1-stimuli/group1-block1/fake-group2-b1/encoded_Group2_IMG_0068.jpg,0,encoded_Group2_IMG_0068.jpg,,,,,0.0,90.0,90.0,90.0,,,,,,,,,,,,,,,,,,,,,,,,,,,,,,,,,,,,,815.7068435628898,None,815.7068435628898,None,815.7068435628898,None,6.0,5.47698150202632,815.7068435628898,None,815.7068435628898,None,3.0,5.950413879007101,816.7070174450055,None,815.7068435628898,None,2.0,7.822607066016644,821.2088031210005,None,815.7068435628898,None,space,0.9036834170110524,7.112392231356353,None,815.7068435628898,None,815.7068435628898,None,,,,,,,,,1,2022_Apr_14_1153,SAR-soap,2021.1.2,
96,Trial # 92,Group1-stimuli/group1-block1/real-group1-b1/Group1_IMG_0337.jpg,1,Group1_IMG_0337.jpg,,,,,0.0,91.0,91.0,91.0,,,,,,,,,,,,,,,,,,,,,,,,,,,,,,,,,,,,,823.7760843508877,None,823.7760843508877,None,823.7760843508877,None,1.0,1.4052390079014003,823.7760843508877,None,823.7760843508877,None,1.0,1.7942590119782835,824.7266521528363,None,823.7760843508877,None,4.0,2.533434224780649,825.1261108890176,None,823.7760843508877,None,space,0.1862534550018608,2.554725784575566,None,823.7760843508877,None,823.7760843508877,None,,,,,,,,,1,2022_Apr_14_1153,SAR-soap,2021.1.2,
97,Trial # 93,Group1-stimuli/group1-block1/fake-group2-b1/encoded_Group2_IMG_0346.jpg,0,encoded_Group2_IMG_0346.jpg,,,,,0.0,92.0,92.0,92.0,,,,,,,,,,,,,,,,,,,,,,,,,,,,,,,,,,,,,826.5441136599984,None,826.5441136599984,None,826.5441136599984,None,1.0,1.2470400931779295,826.5441136599984,None,826.5441136599984,None,1.0,2.070264659123495,827.3442072388716,None,826.5441136599984,None,2.0,2.641569902189076,828.1776734630112,None,826.5441136599984,None,space,0.1655087978579104,2.6695696793030947,None,826.5441136599984,None,826.5441136599984,None,,,,,,,,,1,2022_Apr_14_1153,SAR-soap,2021.1.2,
98,Trial # 94,Group1-stimuli/group1-block1/real-group1-b1/Group1_IMG_4253.jpg,1,Group1_IMG_4253.jpg,,,,,0.0,93.0,93.0,93.0,,,,,,,,,,,,,,,,,,,,,,,,,,,,,,,,,,,,,829.4117364760023,None,829.4117364760023,None,829.4117364760023,None,6.0,1.9264845121651888,829.4117364760023,None,829.4117364760023,None,4.0,2.614485149038956,830.8780541659798,None,829.4117364760023,None,2.0,3.9553458660375327,831.5788747998886,None,829.4117364760023,None,space,0.2935726540163159,3.9794794593472034,None,829.4117364760023,None,829.4117364760023,None,,,,,,,,,1,2022_Apr_14_1153,SAR-soap,2021.1.2,
99,Trial # 95,Group1-stimuli/group1-block1/fake-group2-b1/encoded_Group2_IMG_9280.jpg,0,encoded_Group2_IMG_9280.jpg,,,,,0.0,94.0,94.0,94.0,,,,,,,,,,,,,,,,,,,,,,,,,,,,,,,,,,,,,833.7125798109919,None,833.7125798109919,None,833.7125798109919,None,1.0,1.3421119879931211,833.7125798109919,None,833.7125798109919,None,1.0,2.263383358018473,834.5971009698696,None,833.7125798109919,None,1.0,2.8359354159329087,835.5293231839314,None,833.7125798109919,None,space,0.2385793139692396,2.8598098885267973,None,833.7125798109919,None,833.7125798109919,None,,,,,,,,,1,2022_Apr_14_1153,SAR-soap,2021.1.2,
100,Trial # 96,Group1-stimuli/group1-block1/real-group1-b1/Group1_IMG_0417.jpg,1,Group1_IMG_0417.jpg,,,,,0.0,95.0,95.0,95.0,,,,,,,,,,,,,,,,,,,,,,,,,,,,,,,,,,,,,836.8626293989364,None,836.8626293989364,None,836.8626293989364,None,5.0,3.7082110680639744,836.8626293989364,None,836.8626293989364,None,3.0,5.413617804879323,837.7977651478723,None,836.8626293989364,None,3.0,2.2857309309765697,838.2307311969344,None,836.8626293989364,None,space,3.3810425649862736,2.3083353443071246,None,836.8626293989364,None,836.8626293989364,None,,,,,,,,,1,2022_Apr_14_1153,SAR-soap,2021.1.2,
101,Trial # 97,Group1-stimuli/group1-block1/fake-group2-b1/encoded_Group2_IMG_9695.jpg,0,encoded_Group2_IMG_9695.jpg,,,,,0.0,96.0,96.0,96.0,,,,,,,,,,,,,,,,,,,,,,,,,,,,,,,,,,,,,842.5989993289113,None,842.5989993289113,None,842.5989993289113,None,1.0,2.3193716711830348,842.5989993289113,None,842.5989993289113,None,1.0,2.842591420048848,844.4668983938172,None,842.5989993289113,None,3.0,3.980748729081824,845.0000582539942,None,842.5989993289113,None,space,0.2174613729584962,4.015642771031708,None,842.5989993289113,None,842.5989993289113,None,,,,,,,,,1,2022_Apr_14_1153,SAR-soap,2021.1.2,
102,Trial # 98,Group1-stimuli/group1-block1/real-group1-b1/Group1_IMG_1160.jpg,1,Group1_IMG_1160.jpg,,,,,0.0,97.0,97.0,97.0,,,,,,,,,,,,,,,,,,,,,,,,,,,,,,,,,,,,,846.8664606008679,None,846.8664606008679,None,846.8664606008679,None,6.0,1.989240143215284,846.8664606008679,None,846.8664606008679,None,3.0,2.5442509048152715,848.4005131300073,None,846.8664606008679,None,2.0,3.3490537211764604,848.9680115499068,None,846.8664606008679,None,space,0.1824444478843361,3.3690332281403244,None,846.8664606008679,None,846.8664606008679,None,,,,,,,,,1,2022_Apr_14_1153,SAR-soap,2021.1.2,
103,Trial # 99,Group1-stimuli/group1-block1/real-group1-b1/Group1_IMG_0448.jpg,1,Group1_IMG_0448.jpg,,,,,0.0,98.0,98.0,98.0,,,,,,,,,,,,,,,,,,,,,,,,,,,,,,,,,,,,,850.4680649898946,None,850.4680649898946,None,850.4680649898946,None,5.0,2.9904126890469342,850.4680649898946,None,850.4680649898946,None,3.0,3.997131112031639,852.1186538389884,None,850.4680649898946,None,2.0,7.302780868951231,854.0194933849853,None,850.4680649898946,None,space,2.0358420198317617,5.423167750472203,None,850.4680649898946,None,850.4680649898946,None,,,,,,,,,1,2022_Apr_14_1153,SAR-soap,2021.1.2,
104,Trial # 100,Group1-stimuli/group1-block1/fake-group2-b1/encoded_Group2_IMG_0393.jpg,0,encoded_Group2_IMG_0393.jpg,,,,,0.0,99.0,99.0,99.0,,,,,,,,,,,,,,,,,,,,,,,,,,,,,,,,,,,,,857.9871031318326,None,857.9871031318326,None,857.9871031318326,None,6.0,1.9268847981002184,857.9871031318326,None,857.9871031318326,None,3.0,2.866427692119032,858.8711963028181,None,857.9871031318326,None,1.0,3.637211550958455,860.4040133289527,None,857.9871031318326,None,space,0.1637242760043591,3.6608881521970034,None,857.9871031318326,None,857.9871031318326,None,,,,,,,,,1,2022_Apr_14_1153,SAR-soap,2021.1.2,
105,Trial # 101,Group1-stimuli/group1-block1/real-group1-b1/Group1_IMG_0090.jpg,1,Group1_IMG_0090.jpg,,,,,0.0,100.0,100.0,100.0,,,,,,,,,,,,,,,,,,,,,,,,,,,,,,,,,,,,,861.8375516799279,None,861.8375516799279,None,861.8375516799279,None,1.0,1.5722798351198437,861.8375516799279,None,861.8375516799279,None,1.0,1.9950961640570315,862.9557973369956,None,861.8375516799279,None,5.0,3.268129115924239,863.3888129049446,None,861.8375516799279,None,space,0.2227652929723262,3.287816764321178,None,861.8375516799279,None,861.8375516799279,None,,,,,,,,,1,2022_Apr_14_1153,SAR-soap,2021.1.2,
106,Trial # 102,Group1-stimuli/group1-block1/real-group1-b1/Group1_IMG_0310.jpg,1,Group1_IMG_0310.jpg,,,,,0.0,101.0,101.0,101.0,,,,,,,,,,,,,,,,,,,,,,,,,,,,,,,,,,,,,865.3883799558971,None,865.3883799558971,None,865.3883799558971,None,1.0,3.956775458995253,865.3883799558971,None,865.3883799558971,None,1.0,4.395380496047437,866.7734077409841,None,865.3883799558971,None,4.0,5.46893160790205,869.340329624014,None,865.3883799558971,None,space,0.503127268049866,5.487703587394208,None,865.3883799558971,None,865.3883799558971,None,,,,,,,,,1,2022_Apr_14_1153,SAR-soap,2021.1.2,
107,Trial # 103,Group1-stimuli/group1-block1/fake-group2-b1/encoded_Group2_IMG_0528.jpg,0,encoded_Group2_IMG_0528.jpg,,,,,0.0,102.0,102.0,102.0,,,,,,,,,,,,,,,,,,,,,,,,,,,,,,,,,,,,,871.4401357329916,None,871.4401357329916,None,871.4401357329916,None,5.0,2.175780310994014,871.4401357329916,None,871.4401357329916,None,2.0,4.6649379779119045,873.1587036068086,None,871.4401357329916,None,2.0,5.26946982415393,873.759046854917,None,871.4401357329916,None,space,0.404397166101262,5.292725061299279,None,871.4401357329916,None,871.4401357329916,None,,,,,,,,,1,2022_Apr_14_1153,SAR-soap,2021.1.2,
108,Trial # 104,Group1-stimuli/group1-block1/fake-group2-b1/encoded_Group2_IMG_1975.jpg,0,encoded_Group2_IMG_1975.jpg,,,,,0.0,103.0,103.0,103.0,,,,,,,,,,,,,,,,,,,,,,,,,,,,,,,,,,,,,877.1929586138576,None,877.1929586138576,None,877.1929586138576,None,1.0,1.7761238608509302,877.1929586138576,None,877.1929586138576,None,1.0,2.166249230969697,878.510348783806,None,877.1929586138576,None,3.0,3.071223739068955,878.9110497098882,None,877.1929586138576,None,space,0.1809150928165763,3.093002198264003,None,877.1929586138576,None,877.1929586138576,None,,,,,,,,,1,2022_Apr_14_1153,SAR-soap,2021.1.2,
109,Trial # 105,Group1-stimuli/group1-block1/fake-group2-b1/encoded_Group2_IMG_0052.jpg,0,encoded_Group2_IMG_0052.jpg,,,,,0.0,104.0,104.0,104.0,,,,,,,,,,,,,,,,,,,,,,,,,,,,,,,,,,,,,880.5098550820258,None,880.5098550820258,None,880.5098550820258,None,1.0,1.2902769970241934,880.5098550820258,None,880.5098550820258,None,1.0,2.0812520820181817,881.3441233758349,None,880.5098550820258,None,1.0,2.651723067043349,882.1455272778403,None,880.5098550820258,None,space,0.1675452559720724,2.675213376525789,None,880.5098550820258,None,880.5098550820258,None,,,,,,,,,1,2022_Apr_14_1153,SAR-soap,2021.1.2,
110,Trial # 106,Group1-stimuli/group1-block1/fake-group2-b1/encoded_Group2_IMG_0225.jpg,0,encoded_Group2_IMG_0225.jpg,,,,,0.0,105.0,105.0,105.0,,,,,,,,,,,,,,,,,,,,,,,,,,,,,,,,,,,,,883.4115238068625,None,883.4115238068625,None,883.4115238068625,None,3.0,3.626052743056789,883.4115238068625,None,883.4115238068625,None,2.0,4.232790909009054,885.2621430268046,None,883.4115238068625,None,1.0,5.1045612138696015,887.1970018858556,None,883.4115238068625,None,space,1.0950768259353936,5.128898450173438,None,883.4115238068625,None,883.4115238068625,None,,,,,,,,,1,2022_Apr_14_1153,SAR-soap,2021.1.2,
111,Trial # 107,Group1-stimuli/group1-block1/real-group1-b1/Group1_IMG_2231.jpg,1,Group1_IMG_2231.jpg,,,,,0.0,106.0,106.0,106.0,,,,,,,,,,,,,,,,,,,,,,,,,,,,,,,,,,,,,889.6632539678831,None,889.6632539678831,None,889.6632539678831,None,7.0,2.2932728480082005,889.6632539678831,None,889.6632539678831,None,3.0,5.4504059799946845,891.4963887438644,None,889.6632539678831,None,2.0,6.55543839209713,893.7981499789748,None,889.6632539678831,None,space,0.2177378849592059,6.580213454319164,None,889.6632539678831,None,889.6632539678831,None,,,,,,,,,1,2022_Apr_14_1153,SAR-soap,2021.1.2,
112,Trial # 108,Group1-stimuli/group1-block1/real-group1-b1/Group1_IMG_0217.jpg,1,Group1_IMG_0217.jpg,,,,,0.0,107.0,107.0,107.0,,,,,,,,,,,,,,,,,,,,,,,,,,,,,,,,,,,,,896.4987241008785,None,896.4987241008785,None,896.4987241008785,None,6.0,3.101811787113548,896.4987241008785,None,896.4987241008785,None,4.0,3.540196534013376,897.5002518589608,None,896.4987241008785,None,2.0,4.413099420955405,899.5992703658994,None,896.4987241008785,None,space,0.2603231579996645,4.444047334138304,None,896.4987241008785,None,896.4987241008785,None,,,,,,,,,1,2022_Apr_14_1153,SAR-soap,2021.1.2,
113,Trial # 109,Group1-stimuli/group1-block1/real-group1-b1/Group1_IMG_0264.jpg,1,Group1_IMG_0264.jpg,,,,,0.0,108.0,108.0,108.0,,,,,,,,,,,,,,,,,,,,,,,,,,,,,,,,,,,,,901.2327684159392,None,901.2327684159392,None,901.2327684159392,None,7.0,1.7174958209507167,901.2327684159392,None,901.2327684159392,None,1.0,4.27432063780725,902.5018050749786,None,901.2327684159392,None,1.0,5.346473330864683,903.8017618418672,None,901.2327684159392,None,space,0.3277157600969076,5.3775950379204005,None,901.2327684159392,None,901.2327684159392,None,,,,,,,,,1,2022_Apr_14_1153,SAR-soap,2021.1.2,
114,Trial # 110,Group1-stimuli/group1-block1/fake-group2-b1/encoded_Group2_IMG_0254.jpg,0,encoded_Group2_IMG_0254.jpg,,,,,0.0,109.0,109.0,109.0,,,,,,,,,,,,,,,,,,,,,,,,,,,,,,,,,,,,,906.9679273539224,None,906.9679273539224,None,906.9679273539224,None,1.0,1.4927783738821745,906.9679273539224,None,906.9679273539224,None,1.0,2.115419126814232,908.003260867903,None,906.9679273539224,None,3.0,3.1542282889131457,908.636059681885,None,906.9679273539224,None,space,0.161703900899738,3.1775965043343604,None,906.9679273539224,None,906.9679273539224,None,,,,,,,,,1,2022_Apr_14_1153,SAR-soap,2021.1.2,
115,Trial # 111,Group1-stimuli/group1-block1/fake-group2-b1/encoded_Group2_IMG_5433.jpg,0,encoded_Group2_IMG_5433.jpg,,,,,0.0,110.0,110.0,110.0,,,,,,,,,,,,,,,,,,,,,,,,,,,,,,,,,,,,,910.3193767808845,None,910.3193767808845,None,910.3193767808845,None,1.0,2.8382617158349603,910.3193767808845,None,910.3193767808845,None,1.0,3.794219668954611,912.7213119578082,None,910.3193767808845,None,4.0,4.600304336054251,913.6871927350294,None,910.3193767808845,None,space,0.2869730640668422,4.634677230846137,None,910.3193767808845,None,910.3193767808845,None,,,,,,,,,1,2022_Apr_14_1153,SAR-soap,2021.1.2,
116,Trial # 112,Group1-stimuli/group1-block1/real-group1-b1/Group1_IMG_0252.jpg,1,Group1_IMG_0252.jpg,,,,,0.0,111.0,111.0,111.0,,,,,,,,,,,,,,,,,,,,,,,,,,,,,,,,,,,,,915.287734724814,None,915.287734724814,None,915.287734724814,None,1.0,1.1291539641097188,915.287734724814,None,915.287734724814,None,1.0,1.7853888280224055,915.9710292918608,None,915.287734724814,None,2.0,2.590858126990497,916.6387460390106,None,915.287734724814,None,space,0.1593109730165451,2.618106903275475,None,915.287734724814,None,915.287734724814,None,,,,,,,,,1,2022_Apr_14_1153,SAR-soap,2021.1.2,
117,Trial # 113,Group1-stimuli/group1-block1/real-group1-b1/Group1_IMG_9720.jpg,1,Group1_IMG_9720.jpg,,,,,0.0,112.0,112.0,112.0,,,,,,,,,,,,,,,,,,,,,,,,,,,,,,,,,,,,,918.105415352853,None,918.105415352853,None,918.105415352853,None,7.0,1.9751705639064312,918.105415352853,None,918.105415352853,None,5.0,2.7632782799191773,919.6223578290084,None,918.105415352853,None,2.0,4.470286677125841,920.4229260520078,None,918.105415352853,None,space,0.1390333499293774,4.493863461306319,None,918.105415352853,None,918.105415352853,None,,,,,,,,,1,2022_Apr_14_1153,SAR-soap,2021.1.2,
118,Trial # 114,Group1-stimuli/group1-block1/fake-group2-b1/encoded_Group2_IMG_0550.jpg,0,encoded_Group2_IMG_0550.jpg,,,,,0.0,113.0,113.0,113.0,,,,,,,,,,,,,,,,,,,,,,,,,,,,,,,,,,,,,922.7741597078276,None,922.7741597078276,None,922.7741597078276,None,1.0,1.6126563739962876,922.7741597078276,None,922.7741597078276,None,1.0,2.5017821649089456,923.9413478928618,None,922.7741597078276,None,3.0,3.041330644860864,924.8403292489238,None,922.7741597078276,None,space,0.2252540178596973,3.067297645146027,None,922.7741597078276,None,922.7741597078276,None,,,,,,,,,1,2022_Apr_14_1153,SAR-soap,2021.1.2,
119,Trial # 115,Group1-stimuli/group1-block1/real-group1-b1/Group1_IMG_9915.jpg,1,Group1_IMG_9915.jpg,,,,,0.0,114.0,114.0,114.0,,,,,,,,,,,,,,,,,,,,,,,,,,,,,,,,,,,,,926.107307700906,None,926.107307700906,None,926.107307700906,None,1.0,1.390756486915052,926.107307700906,None,926.107307700906,None,1.0,1.8495456569362432,927.0416370190214,None,926.107307700906,None,1.0,2.5877539119683206,927.5094167608768,None,926.107307700906,None,space,0.141166262095794,2.609075827291236,None,926.107307700906,None,926.107307700906,None,,,,,,,,,1,2022_Apr_14_1153,SAR-soap,2021.1.2,
120,Trial # 116,Group1-stimuli/group1-block1/real-group1-b1/Group1_IMG_9850.jpg,1,Group1_IMG_9850.jpg,,,,,0.0,115.0,115.0,115.0,,,,,,,,,,,,,,,,,,,,,,,,,,,,,,,,,,,,,928.9251945859288,None,928.9251945859288,None,928.9251945859288,None,1.0,1.16050242818892,928.9251945859288,None,928.9251945859288,None,1.0,1.7826047781854868,929.6255122399888,None,928.9251945859288,None,3.0,2.61961869802326,930.2589865538756,None,928.9251945859288,None,space,0.1138718239963054,2.647140526911244,None,928.9251945859288,None,928.9251945859288,None,,,,,,,,,1,2022_Apr_14_1153,SAR-soap,2021.1.2,
121,Trial # 117,Group1-stimuli/group1-block1/real-group1-b1/Group1_IMG_3579.jpg,1,Group1_IMG_3579.jpg,,,,,0.0,116.0,116.0,116.0,,,,,,,,,,,,,,,,,,,,,,,,,,,,,,,,,,,,,931.7260240919422,None,931.7260240919422,None,931.7260240919422,None,6.0,1.90191244892776,931.7260240919422,None,931.7260240919422,None,2.0,4.274175967089832,932.426941794809,None,931.7260240919422,None,1.0,4.844783236971125,933.6940586208366,None,931.7260240919422,None,space,0.199714473914355,4.87557583511807,None,931.7260240919422,None,931.7260240919422,None,,,,,,,,,1,2022_Apr_14_1153,SAR-soap,2021.1.2,
122,Trial # 118,Group1-stimuli/group1-block1/fake-group2-b1/encoded_Group2_IMG_0377.jpg,0,encoded_Group2_IMG_0377.jpg,,,,,0.0,117.0,117.0,117.0,,,,,,,,,,,,,,,,,,,,,,,,,,,,,,,,,,,,,936.8108427969272,None,936.8108427969272,None,936.8108427969272,None,1.0,1.3473653960973024,936.8108427969272,None,936.8108427969272,None,1.0,1.7701035279314965,937.7118974558545,None,936.8108427969272,None,2.0,2.607918723952025,938.1454433228356,None,936.8108427969272,None,space,0.1726415459997952,2.634750793222338,None,936.8108427969272,None,936.8108427969272,None,,,,,,,,,1,2022_Apr_14_1153,SAR-soap,2021.1.2,
123,Trial # 119,Group1-stimuli/group1-block1/real-group1-b1/Group1_IMG_0469.jpg,1,Group1_IMG_0469.jpg,,,,,0.0,118.0,118.0,118.0,,,,,,,,,,,,,,,,,,,,,,,,,,,,,,,,,,,,,939.6789718319196,None,939.6789718319196,None,939.6789718319196,None,1.0,1.4901788039132953,939.6789718319196,None,939.6789718319196,None,1.0,1.9458429981023075,940.7119199568406,None,939.6789718319196,None,3.0,3.0851944300811738,941.1787513478192,None,939.6789718319196,None,space,0.1414482300169766,3.1070989053696394,None,939.6789718319196,None,939.6789718319196,None,,,,,,,,,1,2022_Apr_14_1153,SAR-soap,2021.1.2,
124,Trial # 120,Group1-stimuli/group1-block1/fake-group2-b1/encoded_Group2_IMG_0100.jpg,0,encoded_Group2_IMG_0100.jpg,,,,,0.0,119.0,119.0,119.0,,,,,,,,,,,,,,,,,,,,,,,,,,,,,,,,,,,,,942.9795961808412,None,942.9795961808412,None,942.9795961808412,None,1.0,1.0819233360234648,942.9795961808412,None,942.9795961808412,None,1.0,1.4711114238016307,943.6142523929012,None,942.9795961808412,None,1.0,1.8762809270992875,944.0139185870066,None,942.9795961808412,None,space,0.1617473929654806,1.9058788761030885,None,942.9795961808412,None,942.9795961808412,None,,,,,,,,,1,2022_Apr_14_1153,SAR-soap,2021.1.2,
125,Trial # 121,Group1-stimuli/group1-block1/real-group1-b1/Group1_IMG_5359.jpg,1,Group1_IMG_5359.jpg,,,,,0.0,120.0,120.0,120.0,,,,,,,,,,,,,,,,,,,,,,,,,,,,,,,,,,,,,945.0799463028088,None,945.0799463028088,None,945.0799463028088,None,6.0,2.0974382490385324,945.0799463028088,None,945.0799463028088,None,2.0,3.1211676911916584,946.7309211099056,None,945.0799463028088,None,2.0,4.193383167963475,947.7647080589086,None,945.0799463028088,None,space,0.1271967261563986,4.22220446402207,None,945.0799463028088,None,945.0799463028088,None,,,,,,,,,1,2022_Apr_14_1153,SAR-soap,2021.1.2,
126,Trial # 122,Group1-stimuli/group1-block1/fake-group2-b1/encoded_Group2_IMG_0304.jpg,0,encoded_Group2_IMG_0304.jpg,,,,,0.0,121.0,121.0,121.0,,,,,,,,,,,,,,,,,,,,,,,,,,,,,,,,,,,,,949.447890064912,None,949.447890064912,None,949.447890064912,None,5.0,4.162241298006848,949.447890064912,None,949.447890064912,None,3.0,6.43599547399208,950.2487322718372,None,949.447890064912,None,1.0,5.674194174818695,952.215920845978,None,949.447890064912,None,space,1.5154347901698202,5.701366439461708,None,949.447890064912,None,949.447890064912,None,,,,,,,,,1,2022_Apr_14_1153,SAR-soap,2021.1.2,
127,Trial # 123,Group1-stimuli/group1-block1/real-group1-b1/Group1_IMG_0306.jpg,1,Group1_IMG_0306.jpg,,,,,0.0,122.0,122.0,122.0,,,,,,,,,,,,,,,,,,,,,,,,,,,,,,,,,,,,,956.7171482008416,None,956.7171482008416,None,956.7171482008416,None,6.0,2.6200916299130768,956.7171482008416,None,956.7171482008416,None,3.0,3.3408798510208726,958.5345044999848,None,956.7171482008416,None,2.0,3.879976114956662,959.6185403920244,None,956.7171482008416,None,space,0.2709287670440972,3.914035225054249,None,956.7171482008416,None,956.7171482008416,None,,,,,,,,,1,2022_Apr_14_1153,SAR-soap,2021.1.2,
128,Trial # 124,Group1-stimuli/group1-block1/real-group1-b1/Group1_IMG_0224.jpg,1,Group1_IMG_0224.jpg,,,,,0.0,123.0,123.0,123.0,,,,,,,,,,,,,,,,,,,,,,,,,,,,,,,,,,,,,960.9510867858772,None,960.9510867858772,None,960.9510867858772,None,6.0,2.202717458829284,960.9510867858772,None,960.9510867858772,None,3.0,2.675253007095307,961.7187865818852,None,960.9510867858772,None,2.0,3.4132223578635603,963.1867036838084,None,960.9510867858772,None,space,0.135587059892714,3.444927708245814,None,960.9510867858772,None,960.9510867858772,None,,,,,,,,,1,2022_Apr_14_1153,SAR-soap,2021.1.2,
129,Trial # 125,Group1-stimuli/group1-block1/real-group1-b1/Group1_IMG_9889.jpg,1,Group1_IMG_9889.jpg,,,,,0.0,124.0,124.0,124.0,,,,,,,,,,,,,,,,,,,,,,,,,,,,,,,,,,,,,964.5856680388096,None,964.5856680388096,None,964.5856680388096,None,1.0,1.5071508889086545,964.5856680388096,None,964.5856680388096,None,1.0,2.0624600399751216,965.6372243408114,None,964.5856680388096,None,3.0,3.102642363170162,966.2041225808208,None,964.5856680388096,None,space,0.177090193843469,3.123219184111804,None,964.5856680388096,None,964.5856680388096,None,,,,,,,,,1,2022_Apr_14_1153,SAR-soap,2021.1.2,
130,Trial # 126,Group1-stimuli/group1-block1/real-group1-b1/Group1_IMG_0293.jpg,1,Group1_IMG_0293.jpg,,,,,0.0,125.0,125.0,125.0,,,,,,,,,,,,,,,,,,,,,,,,,,,,,,,,,,,,,967.9549015208612,None,967.9549015208612,None,967.9549015208612,None,1.0,1.278302351012826,967.9549015208612,None,967.9549015208612,None,1.0,2.9333763590548187,968.7722661308944,None,967.9549015208612,None,7.0,3.6383196911774576,970.4386554188096,None,967.9549015208612,None,space,0.4367464650422334,3.665034098085016,None,967.9549015208612,None,967.9549015208612,None,,,,,,,,,1,2022_Apr_14_1153,SAR-soap,2021.1.2,
131,Trial # 127,Group1-stimuli/group1-block1/fake-group2-b1/encoded_Group2_IMG_0321.jpg,0,encoded_Group2_IMG_0321.jpg,,,,,0.0,126.0,126.0,126.0,,,,,,,,,,,,,,,,,,,,,,,,,,,,,,,,,,,,,972.105409282958,None,972.105409282958,None,972.105409282958,None,1.0,1.2150899060070517,972.105409282958,None,972.105409282958,None,1.0,2.204746000934392,972.8724697779398,None,972.105409282958,None,2.0,3.109673094935715,973.8725369828752,None,972.105409282958,None,space,0.7780438209883869,3.139876653207466,None,972.105409282958,None,972.105409282958,None,,,,,,,,,1,2022_Apr_14_1153,SAR-soap,2021.1.2,
132,Trial # 128,Group1-stimuli/group1-block1/fake-group2-b1/encoded_Group2_IMG_0400.jpg,0,encoded_Group2_IMG_0400.jpg,,,,,0.0,127.0,127.0,127.0,,,,,,,,,,,,,,,,,,,,,,,,,,,,,,,,,,,,,976.0737305849324,None,976.0737305849324,None,976.0737305849324,None,6.0,2.0276506459340453,976.0737305849324,None,976.0737305849324,None,3.0,2.6504537141881883,977.6417292279656,None,976.0737305849324,None,2.0,3.6222081140149385,978.2749815599528,None,976.0737305849324,None,space,0.1497275049332529,3.6465496632736176,None,976.0737305849324,None,976.0737305849324,None,,,,,,,,,1,2022_Apr_14_1153,SAR-soap,2021.1.2,
133,Trial # 129,Group1-stimuli/group1-block1/fake-group2-b1/encoded_Group2_IMG_0443.jpg,0,encoded_Group2_IMG_0443.jpg,,,,,0.0,128.0,128.0,128.0,,,,,,,,,,,,,,,,,,,,,,,,,,,,,,,,,,,,,979.9084309239406,None,979.9084309239406,None,979.9084309239406,None,7.0,1.816955988993868,979.9084309239406,None,979.9084309239406,None,2.0,3.0416108099743724,981.2751319960224,None,979.9084309239406,None,1.0,4.745451832888648,982.5089285119902,None,979.9084309239406,None,space,1.0462352610193193,3.946438199840486,None,979.9084309239406,None,979.9084309239406,None,,,,,,,,,1,2022_Apr_14_1153,SAR-soap,2021.1.2,
134,Trial # 130,Group1-stimuli/group1-block1/fake-group2-b1/encoded_Group2_IMG_0542.jpg,0,encoded_Group2_IMG_0542.jpg,,,,,0.0,129.0,129.0,129.0,,,,,,,,,,,,,,,,,,,,,,,,,,,,,,,,,,,,,984.9421147599352,None,984.9421147599352,None,984.9421147599352,None,1.0,1.46136135305278,984.9421147599352,None,984.9421147599352,None,1.0,2.01791662001051,985.9437843100168,None,984.9421147599352,None,3.0,2.824266748968512,986.509351729881,None,984.9421147599352,None,space,0.1755789900198578,2.850973420543596,None,984.9421147599352,None,984.9421147599352,None,,,,,,,,,1,2022_Apr_14_1153,SAR-soap,2021.1.2,
135,Trial # 131,Group1-stimuli/group1-block1/real-group1-b1/Group1_IMG_0885.jpg,1,Group1_IMG_0885.jpg,,,,,0.0,130.0,130.0,130.0,,,,,,,,,,,,,,,,,,,,,,,,,,,,,,,,,,,,,988.0111061488278,None,988.0111061488278,None,988.0111061488278,None,7.0,1.799154544947669,988.0111061488278,None,988.0111061488278,None,6.0,4.856231682002544,989.3604483038652,None,988.0111061488278,None,1.0,5.595705277984962,992.4288007719442,None,988.0111061488278,None,space,0.4124533450230956,5.627172783249989,None,988.0111061488278,None,988.0111061488278,None,,,,,,,,,1,2022_Apr_14_1153,SAR-soap,2021.1.2,
136,Trial # 132,Group1-stimuli/group1-block1/real-group1-b1/Group1_IMG_0375.jpg,1,Group1_IMG_0375.jpg,,,,,0.0,131.0,131.0,131.0,,,,,,,,,,,,,,,,,,,,,,,,,,,,,,,,,,,,,994.09620686993,None,994.09620686993,None,994.09620686993,None,1.0,1.7259288120549172,994.09620686993,None,994.09620686993,None,1.0,2.150104673812166,995.3626829069108,None,994.09620686993,None,7.0,2.8540205638855696,995.7952973449136,None,994.09620686993,None,space,0.1668715470004826,2.8789990635123104,None,994.09620686993,None,994.09620686993,None,,,,,,,,,1,2022_Apr_14_1153,SAR-soap,2021.1.2,
137,Trial # 133,Group1-stimuli/group1-block1/fake-group2-b1/encoded_Group2_IMG_7351.jpg,0,encoded_Group2_IMG_7351.jpg,,,,,0.0,132.0,132.0,132.0,,,,,,,,,,,,,,,,,,,,,,,,,,,,,,,,,,,,,997.179724090034,None,997.179724090034,None,997.179724090034,None,6.0,1.8148197499103844,997.179724090034,None,997.179724090034,None,2.0,4.570459570968524,998.5473555598874,None,997.179724090034,None,2.0,4.00849400088191,999.3134006289764,None,997.179724090034,None,space,1.0669653969816864,4.036166242323816,None,997.179724090034,None,997.179724090034,None,,,,,,,,,1,2022_Apr_14_1153,SAR-soap,2021.1.2,
138,Trial # 134,Group1-stimuli/group1-block1/fake-group2-b1/encoded_Group2_IMG_0416.jpg,0,encoded_Group2_IMG_0416.jpg,,,,,0.0,133.0,133.0,133.0,,,,,,,,,,,,,,,,,,,,,,,,,,,,,,,,,,,,,1002.364686116809,None,1002.364686116809,None,1002.364686116809,None,7.0,1.7957220140378922,1002.364686116809,None,1002.364686116809,None,2.0,2.418049657950178,1003.6996477229986,None,1002.364686116809,None,1.0,3.2227952301036566,1004.3323469068856,None,1002.364686116809,None,space,0.289815213996917,3.250340419122949,None,1002.364686116809,None,1002.364686116809,None,,,,,,,,,1,2022_Apr_14_1153,SAR-soap,2021.1.2,
139,Trial # 135,Group1-stimuli/group1-block1/fake-group2-b1/encoded_Group2_IMG_0139.jpg,0,encoded_Group2_IMG_0139.jpg,,,,,0.0,134.0,134.0,134.0,,,,,,,,,,,,,,,,,,,,,,,,,,,,,,,,,,,,,1005.9147768770345,None,1005.9147768770345,None,1005.9147768770345,None,1.0,1.7635838009882718,1005.9147768770345,None,1005.9147768770345,None,1.0,2.452533203875646,1007.2342242999002,None,1005.9147768770345,None,2.0,4.724811531137675,1007.9339483110234,None,1005.9147768770345,None,space,1.4030556548386812,3.418716309359297,None,1005.9147768770345,None,1005.9147768770345,None,,,,,,,,,1,2022_Apr_14_1153,SAR-soap,2021.1.2,
140,Trial # 136,Group1-stimuli/group1-block1/real-group1-b1/Group1_IMG_9677.jpg,1,Group1_IMG_9677.jpg,,,,,0.0,135.0,135.0,135.0,,,,,,,,,,,,,,,,,,,,,,,,,,,,,,,,,,,,,1010.8000537988264,None,1010.8000537988264,None,1010.8000537988264,None,1.0,1.3071070371661335,1010.8000537988264,None,1010.8000537988264,None,1.0,1.730463129002601,1011.6505344009493,None,1010.8000537988264,None,2.0,3.070002758875489,1012.084915516898,None,1010.8000537988264,None,space,-0.6196304990444332,3.091712999390438,None,1010.8000537988264,None,1010.8000537988264,None,,,,,,,,,1,2022_Apr_14_1153,SAR-soap,2021.1.2,
141,Trial # 137,Group1-stimuli/group1-block1/fake-group2-b1/encoded_Group2_IMG_5982.jpg,0,encoded_Group2_IMG_5982.jpg,,,,,0.0,136.0,136.0,136.0,,,,,,,,,,,,,,,,,,,,,,,,,,,,,,,,,,,,,1013.9010284328832,None,1013.9010284328832,None,1013.9010284328832,None,1.0,1.2963686052244157,1013.9010284328832,None,1013.9010284328832,None,1.0,1.7189298330340534,1014.7520504868588,None,1013.9010284328832,None,2.0,2.390371805988252,1015.1853842218406,None,1013.9010284328832,None,space,-2.3093121380079538,2.4183463423978537,None,1013.9010284328832,None,1013.9010284328832,None,,,,,,,,,1,2022_Apr_14_1153,SAR-soap,2021.1.2,
142,Trial # 138,Group1-stimuli/group1-block1/fake-group2-b1/encoded_Group2_IMG_1144.jpg,0,encoded_Group2_IMG_1144.jpg,,,,,0.0,137.0,137.0,137.0,,,,,,,,,,,,,,,,,,,,,,,,,,,,,,,,,,,,,1016.3516150580252,None,1016.3516150580252,None,1016.3516150580252,None,7.0,1.6095553119666874,1016.3516150580252,None,1016.3516150580252,None,2.0,2.96675964188762,1017.5031010420062,None,1016.3516150580252,None,1.0,3.704417290864512,1018.8698770760092,None,1016.3516150580252,None,space,-3.548856212059036,3.72924602846615,None,1016.3516150580252,None,1016.3516150580252,None,,,,,,,,,1,2022_Apr_14_1153,SAR-soap,2021.1.2,
143,Trial # 139,Group1-stimuli/group1-block1/fake-group2-b1/encoded_Group2_IMG_0315.jpg,0,encoded_Group2_IMG_0315.jpg,,,,,0.0,138.0,138.0,138.0,,,,,,,,,,,,,,,,,,,,,,,,,,,,,,,,,,,,,1020.0873400168492,None,1020.0873400168492,None,1020.0873400168492,None,7.0,1.7459240569733083,1020.0873400168492,None,1020.0873400168492,None,2.0,2.7190893220249563,1021.3866581018084,None,1020.0873400168492,None,2.0,3.524870255030692,1022.3718570789788,None,1020.0873400168492,None,space,0.5225426589604467,3.5535339945927262,None,1020.0873400168492,None,1020.0873400168492,None,,,,,,,,,1,2022_Apr_14_1153,SAR-soap,2021.1.2,
144,Trial # 140,Group1-stimuli/group1-block1/real-group1-b1/Group1_IMG_130.jpg,1,Group1_IMG_130.jpg,,,,,0.0,139.0,139.0,139.0,,,,,,,,,,,,,,,,,,,,,,,,,,,,,,,,,,,,,1024.2048153658395,None,1024.2048153658395,None,1024.2048153658395,None,7.0,2.1064730470534414,1024.2048153658395,None,1024.2048153658395,None,6.0,4.479533432051539,1025.8554832849186,None,1024.2048153658395,None,2.0,5.152006581192836,1028.2397422199138,None,1024.2048153658395,None,space,0.1398123260587453,5.1735719894059,None,1024.2048153658395,None,1024.2048153658395,None,,,,,,,,,1,2022_Apr_14_1153,SAR-soap,2021.1.2,
145,Trial # 141,Group1-stimuli/group1-block1/real-group1-b1/Group1_IMG_0024.jpg,1,Group1_IMG_0024.jpg,,,,,0.0,140.0,140.0,140.0,,,,,,,,,,,,,,,,,,,,,,,,,,,,,,,,,,,,,1029.5735258529894,None,1029.5735258529894,None,1029.5735258529894,None,7.0,1.6580060720443726,1029.5735258529894,None,1029.5735258529894,None,2.0,2.5467603460419923,1030.7732895929366,None,1029.5735258529894,None,2.0,4.220915264915675,1031.6738215170335,None,1029.5735258529894,None,space,0.2088019999209791,4.2438839743845165,None,1029.5735258529894,None,1029.5735258529894,None,,,,,,,,,1,2022_Apr_14_1153,SAR-soap,2021.1.2,
146,Trial # 142,Group1-stimuli/group1-block1/fake-group2-b1/encoded_Group2_IMG_5012.jpg,0,encoded_Group2_IMG_5012.jpg,,,,,0.0,141.0,141.0,141.0,,,,,,,,,,,,,,,,,,,,,,,,,,,,,,,,,,,,,1034.074990985915,None,1034.074990985915,None,1034.074990985915,None,3.0,2.8655932371038944,1034.074990985915,None,1034.074990985915,None,1.0,3.638735679909587,1036.4915491510185,None,1034.074990985915,None,1.0,4.578268066048622,1037.27562803193,None,1034.074990985915,None,space,0.3404606299009174,4.60812650504522,None,1034.074990985915,None,1034.074990985915,None,,,,,,,,,1,2022_Apr_14_1153,SAR-soap,2021.1.2,
147,Trial # 143,Group1-stimuli/group1-block1/fake-group2-b1/encoded_Group2_IMG_0209.jpg,0,encoded_Group2_IMG_0209.jpg,,,,,0.0,142.0,142.0,142.0,,,,,,,,,,,,,,,,,,,,,,,,,,,,,,,,,,,,,1039.0594345449936,None,1039.0594345449936,None,1039.0594345449936,None,1.0,2.128069075057283,1039.0594345449936,None,1039.0594345449936,None,1.0,2.5837150448933244,1040.7431107929442,None,1039.0594345449936,None,3.0,4.157713107997552,1041.2095973419491,None,1039.0594345449936,None,space,1.1653599159326404,3.216059746220708,None,1039.0594345449936,None,1039.0594345449936,None,,,,,,,,,1,2022_Apr_14_1153,SAR-soap,2021.1.2,
148,Trial # 144,Group1-stimuli/group1-block1/real-group1-b1/Group1_IMG_0373.jpg,1,Group1_IMG_0373.jpg,,,,,0.0,143.0,143.0,143.0,,,,,,,,,,,,,,,,,,,,,,,,,,,,,,,,,,,,,1043.4782123218756,None,1043.4782123218756,None,1043.4782123218756,None,1.0,1.3244682420045135,1043.4782123218756,None,1043.4782123218756,None,1.0,1.81238477001898,1044.344254870899,None,1043.4782123218756,None,2.0,2.352770917117596,1044.8442321598995,None,1043.4782123218756,None,space,0.141380547080189,2.372129502473399,None,1043.4782123218756,None,1043.4782123218756,None,,,,,,,,,1,2022_Apr_14_1153,SAR-soap,2021.1.2,
149,Trial # 145,Group1-stimuli/group1-block1/real-group1-b1/Group1_IMG_5899.jpg,1,Group1_IMG_5899.jpg,,,,,0.0,144.0,144.0,144.0,,,,,,,,,,,,,,,,,,,,,,,,,,,,,,,,,,,,,1046.044098849874,None,1046.044098849874,None,1046.044098849874,None,1.0,1.289038761984557,1046.044098849874,None,1046.044098849874,None,1.0,1.713043418014422,1046.8784791028593,None,1046.044098849874,None,3.0,2.418247979134321,1047.3118527478073,None,1046.044098849874,None,space,0.1857603539247065,2.4400085932575166,None,1046.044098849874,None,1046.044098849874,None,,,,,,,,,1,2022_Apr_14_1153,SAR-soap,2021.1.2,
150,Trial # 146,Group1-stimuli/group1-block1/real-group1-b1/Group1_IMG_0162.jpg,1,Group1_IMG_0162.jpg,,,,,0.0,145.0,145.0,145.0,,,,,,,,,,,,,,,,,,,,,,,,,,,,,,,,,,,,,1048.7119771558791,None,1048.7119771558791,None,1048.7119771558791,None,6.0,1.572314501972869,1048.7119771558791,None,1048.7119771558791,None,4.0,2.79441744601354,1049.8290761839598,None,1048.7119771558791,None,2.0,3.499116664985195,1050.62907760893,None,1048.7119771558791,None,space,0.2592933629639447,3.519552260171622,None,1048.7119771558791,None,1048.7119771558791,None,,,,,,,,,1,2022_Apr_14_1153,SAR-soap,2021.1.2,
151,Trial # 147,Group1-stimuli/group1-block1/real-group1-b1/Group1_IMG_0543.jpg,1,Group1_IMG_0543.jpg,,,,,0.0,146.0,146.0,146.0,,,,,,,,,,,,,,,,,,,,,,,,,,,,,,,,,,,,,1052.530578534817,None,1052.530578534817,None,1052.530578534817,None,1.0,1.4745557790156454,1052.530578534817,None,1052.530578534817,None,1.0,2.180530946934596,1053.5481003699824,None,1052.530578534817,None,5.0,3.3843486451078206,1054.263812234858,None,1052.530578534817,None,space,0.270194464828819,3.407510859426111,None,1052.530578534817,None,1052.530578534817,None,,,,,,,,,1,2022_Apr_14_1153,SAR-soap,2021.1.2,
152,Trial # 148,Group1-stimuli/group1-block1/fake-group2-b1/encoded_Group2_IMG_0355.jpg,0,encoded_Group2_IMG_0355.jpg,,,,,0.0,147.0,147.0,147.0,,,,,,,,,,,,,,,,,,,,,,,,,,,,,,,,,,,,,1056.264157925034,None,1056.264157925034,None,1056.264157925034,None,1.0,1.2583436670247463,1056.264157925034,None,1056.264157925034,None,1.0,1.8147665599826723,1057.0655476688407,None,1056.264157925034,None,3.0,2.4862617449834943,1057.6318500409834,None,1056.264157925034,None,space,0.1721930389758199,2.509994827443734,None,1056.264157925034,None,1056.264157925034,None,,,,,,,,,1,2022_Apr_14_1153,SAR-soap,2021.1.2,
153,Trial # 149,Group1-stimuli/group1-block1/real-group1-b1/Group1_IMG_9765.jpg,1,Group1_IMG_9765.jpg,,,,,0.0,148.0,148.0,148.0,,,,,,,,,,,,,,,,,,,,,,,,,,,,,,,,,,,,,1058.9989395260343,None,1058.9989395260343,None,1058.9989395260343,None,6.0,1.939213503152132,1058.9989395260343,None,1058.9989395260343,None,5.0,3.629084834130481,1060.4828466540202,None,1058.9989395260343,None,3.0,4.23524242406711,1062.182995003881,None,1058.9989395260343,None,space,0.2706702121067792,4.255606864579022,None,1058.9989395260343,None,1058.9989395260343,None,,,,,,,,,1,2022_Apr_14_1153,SAR-soap,2021.1.2,
154,Trial # 150,Group1-stimuli/group1-block1/fake-group2-b1/encoded_Group2_IMG_1378.jpg,0,encoded_Group2_IMG_1378.jpg,,,,,0.0,149.0,149.0,149.0,,,,,,,,,,,,,,,,,,,,,,,,,,,,,,,,,,,,,1063.583740997827,None,1063.583740997827,None,1063.583740997827,None,6.0,2.8277127239853144,1063.583740997827,None,1063.583740997827,None,2.0,5.999931358965114,1065.2685444559902,None,1063.583740997827,None,2.0,6.706405669217929,1069.135749044828,None,1063.583740997827,None,space,0.1704609969165176,6.731340666534379,None,1063.583740997827,None,1063.583740997827,None,,,,,,,,,1,2022_Apr_14_1153,SAR-soap,2021.1.2,
155,Trial # 1,Group1-stimuli/group1-block2/fake-group2-b2/encoded_Group2_IMG_0155.jpg,0,encoded_Group2_IMG_0155.jpg,,,,,,,,,0.0,0.0,0.0,0.0,,,,,,,,,,,,,,,,,,,,,,,,,,,,,,,,,1103.1466348089743,None,1103.1466348089743,None,1103.1466348089743,None,6.0,4.691833551041782,1103.1466348089743,None,1103.1466348089743,None,4.0,6.763804377056658,1104.8127377168275,None,1103.1466348089743,None,1.0,8.436630820855498,1109.465031896951,None,1103.1466348089743,None,space,0.1233316739089787,8.457443781197071,None,1103.1466348089743,None,1103.1466348089743,None,1100.578054212965,None,1100.578054212965,None,1100.578054212965,None,1070.0188606549054,None,1,2022_Apr_14_1153,SAR-soap,2021.1.2,
156,Trial # 2,Group1-stimuli/group1-block2/real-group1-b2/Group1_IMG_0519.jpg,1,Group1_IMG_0519.jpg,,,,,,,,,0.0,1.0,1.0,1.0,,,,,,,,,,,,,,,,,,,,,,,,,,,,,,,,,1111.7477108410094,None,1111.7477108410094,None,1111.7477108410094,None,4.0,3.0886340679135174,1111.7477108410094,None,1111.7477108410094,None,2.0,3.5282522689085454,1112.8996143459808,None,1111.7477108410094,None,2.0,5.533011503983289,1114.849415702978,None,1111.7477108410094,None,space,0.8729276901576668,4.868960056221113,None,1111.7477108410094,None,1111.7477108410094,None,,,,,,,,,1,2022_Apr_14_1153,SAR-soap,2021.1.2,
157,Trial # 3,Group1-stimuli/group1-block2/fake-group2-b2/encoded_Group2_IMG_0135.jpg,0,encoded_Group2_IMG_0135.jpg,,,,,,,,,0.0,2.0,2.0,2.0,,,,,,,,,,,,,,,,,,,,,,,,,,,,,,,,,1117.551096225856,None,1117.551096225856,None,1117.551096225856,None,1.0,2.177101192064584,1117.551096225856,None,1117.551096225856,None,1.0,3.01619924698025,1119.2685259960126,None,1117.551096225856,None,4.0,4.222381709143519,1120.1178736728616,None,1117.551096225856,None,space,0.152459142031148,4.246048596221954,None,1117.551096225856,None,1117.551096225856,None,,,,,,,,,1,2022_Apr_14_1153,SAR-soap,2021.1.2,
158,Trial # 4,Group1-stimuli/group1-block2/real-group1-b2/Group1_IMG_5310.jpg,1,Group1_IMG_5310.jpg,,,,,,,,,0.0,3.0,3.0,3.0,,,,,,,,,,,,,,,,,,,,,,,,,,,,,,,,,1121.983834774932,None,1121.983834774932,None,1121.983834774932,None,5.0,1.8049174242187287,1121.983834774932,None,1121.983834774932,None,3.0,2.3273893848527223,1123.3362360720057,None,1121.983834774932,None,3.0,2.9002707451581955,1123.8690657929983,None,1121.983834774932,None,space,0.2263086489401757,2.9201105011161417,None,1121.983834774932,None,1121.983834774932,None,,,,,,,,,1,2022_Apr_14_1153,SAR-soap,2021.1.2,
159,Trial # 5,Group1-stimuli/group1-block2/real-group1-b2/Group1_IMG_0522.jpg,1,Group1_IMG_0522.jpg,,,,,,,,,0.0,4.0,4.0,4.0,,,,,,,,,,,,,,,,,,,,,,,,,,,,,,,,,1125.1692482319197,None,1125.1692482319197,None,1125.1692482319197,None,6.0,2.5063746699597687,1125.1692482319197,None,1125.1692482319197,None,3.0,3.011190441902727,1125.985668306006,None,1125.1692482319197,None,3.0,4.817523798905313,1127.7378926239908,None,1125.1692482319197,None,space,0.1730131160002201,4.836968652205542,None,1125.1692482319197,None,1125.1692482319197,None,,,,,,,,,1,2022_Apr_14_1153,SAR-soap,2021.1.2,
160,Trial # 6,Group1-stimuli/group1-block2/fake-group2-b2/encoded_Group2_IMG_0484.jpg,0,encoded_Group2_IMG_0484.jpg,,,,,,,,,0.0,5.0,5.0,5.0,,,,,,,,,,,,,,,,,,,,,,,,,,,,,,,,,1130.2199796459172,None,1130.2199796459172,None,1130.2199796459172,None,1.0,1.94494405714795,1130.2199796459172,None,1130.2199796459172,None,1.0,2.5350381878670305,1131.7214761879295,None,1130.2199796459172,None,3.0,3.806848457083106,1132.3213215218857,None,1130.2199796459172,None,space,0.1224277399014681,3.833381506381557,None,1130.2199796459172,None,1130.2199796459172,None,,,,,,,,,1,2022_Apr_14_1153,SAR-soap,2021.1.2,
161,Trial # 7,Group1-stimuli/group1-block2/fake-group2-b2/encoded_Group2_IMG_5948.jpg,0,encoded_Group2_IMG_5948.jpg,,,,,,,,,0.0,6.0,6.0,6.0,,,,,,,,,,,,,,,,,,,,,,,,,,,,,,,,,1134.206014273921,None,1134.206014273921,None,1134.206014273921,None,1.0,1.4650592780672014,1134.206014273921,None,1134.206014273921,None,1.0,2.0375575739890337,1135.2219922549557,None,1134.206014273921,None,2.0,2.676224505994469,1135.8060064120218,None,1134.206014273921,None,space,0.1759005829226225,2.703700971323997,None,1134.206014273921,None,1134.206014273921,None,,,,,,,,,1,2022_Apr_14_1153,SAR-soap,2021.1.2,
162,Trial # 8,Group1-stimuli/group1-block2/fake-group2-b2/encoded_Group2_IMG_3591.jpg,0,encoded_Group2_IMG_3591.jpg,,,,,,,,,0.0,7.0,7.0,7.0,,,,,,,,,,,,,,,,,,,,,,,,,,,,,,,,,1137.1404400849715,None,1137.1404400849715,None,1137.1404400849715,None,2.0,3.3273463118821383,1137.1404400849715,None,1137.1404400849715,None,1.0,5.5498917570803314,1138.590037359856,None,1137.1404400849715,None,1.0,6.122539256000891,1142.2416392948944,None,1137.1404400849715,None,space,0.1977053529117256,6.146667854394764,None,1137.1404400849715,None,1137.1404400849715,None,,,,,,,,,1,2022_Apr_14_1153,SAR-soap,2021.1.2,
163,Trial # 9,Group1-stimuli/group1-block2/real-group1-b2/Group1_IMG_9835.jpg,1,Group1_IMG_9835.jpg,,,,,,,,,0.0,8.0,8.0,8.0,,,,,,,,,,,,,,,,,,,,,,,,,,,,,,,,,1143.5092008369977,None,1143.5092008369977,None,1143.5092008369977,None,1.0,1.395149101037532,1143.5092008369977,None,1143.5092008369977,None,1.0,1.884959844872356,1144.458439784823,None,1143.5092008369977,None,3.0,3.890632888069376,1144.9589896318505,None,1143.5092008369977,None,space,1.090482437051833,3.0503343150485307,None,1143.5092008369977,None,1143.5092008369977,None,,,,,,,,,1,2022_Apr_14_1153,SAR-soap,2021.1.2,
164,Trial # 10,Group1-stimuli/group1-block2/real-group1-b2/Group1_IMG_0556.jpg,1,Group1_IMG_0556.jpg,,,,,,,,,0.0,9.0,9.0,9.0,,,,,,,,,,,,,,,,,,,,,,,,,,,,,,,,,1147.693540978944,None,1147.693540978944,None,1147.693540978944,None,1.0,1.356897674035281,1147.693540978944,None,1147.693540978944,None,1.0,1.945157733047381,1148.5937464579474,None,1147.693540978944,None,5.0,3.6164689569268376,1149.1934846248478,None,1147.693540978944,None,space,0.2264482639729976,3.638499716529623,None,1147.693540978944,None,1147.693540978944,None,,,,,,,,,1,2022_Apr_14_1153,SAR-soap,2021.1.2,
165,Trial # 11,Group1-stimuli/group1-block2/fake-group2-b2/encoded_Group2_IMG_9736.jpg,0,encoded_Group2_IMG_9736.jpg,,,,,,,,,0.0,10.0,10.0,10.0,,,,,,,,,,,,,,,,,,,,,,,,,,,,,,,,,1151.5933957919478,None,1151.5933957919478,None,1151.5933957919478,None,6.0,1.959162615938112,1151.5933957919478,None,1151.5933957919478,None,4.0,2.532405824866146,1153.0951642149594,None,1151.5933957919478,None,2.0,3.1700597209855914,1153.6781099839136,None,1151.5933957919478,None,space,0.5511851829942316,3.1930178434122354,None,1151.5933957919478,None,1151.5933957919478,None,,,,,,,,,1,2022_Apr_14_1153,SAR-soap,2021.1.2,
166,Trial # 12,Group1-stimuli/group1-block2/real-group1-b2/Group1_IMG_9867.jpg,1,Group1_IMG_9867.jpg,,,,,,,,,0.0,11.0,11.0,11.0,,,,,,,,,,,,,,,,,,,,,,,,,,,,,,,,,1155.37864810694,None,1155.37864810694,None,1155.37864810694,None,1.0,1.673237842041999,1155.37864810694,None,1155.37864810694,None,1.0,2.162269008811564,1156.5954102219548,None,1155.37864810694,None,3.0,3.034500292968005,1157.0959370748606,None,1155.37864810694,None,space,0.123188171070069,3.0564132393337786,None,1155.37864810694,None,1155.37864810694,None,,,,,,,,,1,2022_Apr_14_1153,SAR-soap,2021.1.2,
167,Trial # 13,Group1-stimuli/group1-block2/fake-group2-b2/encoded_Group2_IMG_9886.jpg,0,encoded_Group2_IMG_9886.jpg,,,,,,,,,0.0,12.0,12.0,12.0,,,,,,,,,,,,,,,,,,,,,,,,,,,,,,,,,1158.5968947289512,None,1158.5968947289512,None,1158.5968947289512,None,1.0,1.3587721190415325,1158.5968947289512,None,1158.5968947289512,None,1.0,1.7139955810271204,1159.496192773804,None,1158.5968947289512,None,1.0,2.454229044960812,1159.863086402882,None,1158.5968947289512,None,space,0.2576721541117877,2.4770010642241687,None,1158.5968947289512,None,1158.5968947289512,None,,,,,,,,,1,2022_Apr_14_1153,SAR-soap,2021.1.2,
168,Trial # 14,Group1-stimuli/group1-block2/fake-group2-b2/encoded_Group2_IMG_2245.jpg,0,encoded_Group2_IMG_2245.jpg,,,,,,,,,0.0,13.0,13.0,13.0,,,,,,,,,,,,,,,,,,,,,,,,,,,,,,,,,1161.3626929698512,None,1161.3626929698512,None,1161.3626929698512,None,6.0,1.6255916920490563,1161.3626929698512,None,1161.3626929698512,None,2.0,3.848557773977518,1162.5314940069802,None,1161.3626929698512,None,2.0,4.587043417152017,1163.131870148005,None,1161.3626929698512,None,space,0.1890535620041191,4.610152240144089,None,1161.3626929698512,None,1161.3626929698512,None,,,,,,,,,1,2022_Apr_14_1153,SAR-soap,2021.1.2,
