,Trial_num,image_path,ground_truth,image_name,demos.thisRepN,demos.thisTrialN,demos.thisN,demos.thisIndex,block_1.thisRepN,block_1.thisTrialN,block_1.thisN,block_1.thisIndex,block_2.thisRepN,block_2.thisTrialN,block_2.thisN,block_2.thisIndex,text_3.started,text_3.stopped,Task.started,Task.stopped,text_10.started,text_10.stopped,key_resp.keys,key_resp.rt,key_resp.started,key_resp.stopped,image_2.started,image_2.stopped,text_5.started,text_5.stopped,image_3.started,image_3.stopped,text_6.started,text_6.stopped,translucency.started,translucency.stopped,see_throughness.started,see_throughness.stopped,glow.started,glow.stopped,key_resp_10.keys,key_resp_10.rt,key_resp_10.started,key_resp_10.stopped,instruction.started,instruction.stopped,text_12.started,text_12.stopped,Trial_number.started,Trial_number.stopped,image.started,image.stopped,Instruction.started,Instruction.stopped,translucency_score.response,translucency_score.rt,translucency_score.started,translucency_score.stopped,Translucency.started,Translucency.stopped,seethroughness_score.response,seethroughness_score.rt,seethroughness_score.started,seethroughness_score.stopped,SeeThroughness.started,SeeThroughness.stopped,glow_score.response,glow_score.rt,glow_score.started,glow_score.stopped,Glow.started,Glow.stopped,to_next.keys,to_next.rt,to_next.started,to_next.stopped,grading_label_left.started,grading_label_left.stopped,grading_label_right.started,grading_label_right.stopped,instruct1.started,instruct1.stopped,instruct2.started,instruct2.stopped,text_4.started,text_4.stopped,text_2.started,text_2.stopped,session,date,expName,psychopyVersion,Unnamed: 94
0,,,,,,,,,,,,,,,,,25.907119708135724,None,61.78932175412774,None,78.50780128408223,None,space,3.8956857826560736,83.475760971196,None,,,,,,,,,,,,,,,,,,,,,,,,,,,,,,,,,,,,,,,,,,,,,,,,,,,,,,,,,,,,,,,1,2022_May_27_0938,SAR-soap,2021.1.2,
1,,,,,,,,,,,,,,,,,,,,,,,,,,,87.86404029745609,None,87.86404029745609,None,93.4789798092097,None,93.4789798092097,None,102.38524012546986,None,102.38524012546986,None,102.38524012546986,None,space,2.930240117944777,102.38524012546986,None,,,,,,,,,,,,,,,,,,,,,,,,,,,,,,,,,,,,,,,,,,,,,1,2022_May_27_0938,SAR-soap,2021.1.2,
2,Demo 1,demo/Demo_IMG_0974.jpg,demo,Demo_IMG_0974.jpg,0.0,0.0,0.0,0.0,,,,,,,,,,,,,,,,,,,,,,,,,,,,,,,,,,,,,102.38524012546986,None,105.33694508951156,None,107.88205686956644,None,107.88205686956644,None,107.88205686956644,None,6.0,80.44066166784614,107.88205686956644,None,107.88205686956644,None,4.0,86.48105657100677,187.85748114343733,None,107.88205686956644,None,2.0,87.58862870652229,193.90968963410705,None,107.88205686956644,None,space,-17.389198650605977,87.6222201064229,None,107.88205686956644,None,107.88205686956644,None,,,,,,,,,1,2022_May_27_0938,SAR-soap,2021.1.2,
3,Demo 2,demo/Demo_IMG_1024.jpg,demo,Demo_IMG_1024.jpg,0.0,1.0,1.0,1.0,,,,,,,,,,,,,,,,,,,,,,,,,,,,,,,,,,,,,,,,,195.57582978438583,None,195.57582978438583,None,195.57582978438583,None,2.0,33.790836098603904,195.57582978438583,None,195.57582978438583,None,1.0,39.69839384127408,228.9208734119311,None,195.57582978438583,None,2.0,42.90411095693708,234.83892313856632,None,195.57582978438583,None,space,1.5172663778066635,42.93337872810662,None,195.57582978438583,None,195.57582978438583,None,,,,,,,,,1,2022_May_27_0938,SAR-soap,2021.1.2,
4,Demo 3,demo/Demo_seed_80003.png,demo,Demo_seed_80003.png,0.0,2.0,2.0,2.0,,,,,,,,,,,,,,,,,,,,,,,,,,,,,,,,,,,,,,,,,240.15733351372185,None,240.15733351372185,None,240.15733351372185,None,5.0,8.427879662252963,240.15733351372185,None,240.15733351372185,None,4.0,14.202832211740317,248.126335175708,None,240.15733351372185,None,3.0,20.043512498028576,253.9111604038626,None,240.15733351372185,None,space,7.995244357734919,16.266141762025654,None,240.15733351372185,None,240.15733351372185,None,,,,,,,,,1,2022_May_27_0938,SAR-soap,2021.1.2,
5,Trial # 1,Group1-stimuli/group1-block1/real-group1-b1/Group1_IMG_0022.jpg,1,Group1_IMG_0022.jpg,,,,,0.0,0.0,0.0,0.0,,,,,,,,,,,,,,,,,,,,,,,,,,,,,,,,,,,,,266.7816828126088,None,266.7816828126088,None,266.7816828126088,None,3.0,26.72140073589981,266.7816828126088,None,266.7816828126088,None,5.0,33.013973377645016,287.5044459691271,None,266.7816828126088,None,6.0,36.986427549272776,299.3592487545684,None,266.7816828126088,None,space,1.2933029048144815,37.015693644061685,None,266.7816828126088,None,266.7816828126088,None,264.414208561182,None,264.414208561182,None,264.414208561182,None,,,1,2022_May_27_0938,SAR-soap,2021.1.2,
6,Trial # 2,Group1-stimuli/group1-block1/fake-group2-b1/encoded_Group2_IMG_0386.jpg,0,encoded_Group2_IMG_0386.jpg,,,,,0.0,1.0,1.0,1.0,,,,,,,,,,,,,,,,,,,,,,,,,,,,,,,,,,,,,305.16087675560266,None,305.16087675560266,None,305.16087675560266,None,4.0,17.68185377959162,305.16087675560266,None,305.16087675560266,None,2.0,18.38698355201632,312.21236294694245,None,305.16087675560266,None,4.0,24.928455795161423,323.09891865681857,None,305.16087675560266,None,space,0.9213801799342036,24.95276925619692,None,305.16087675560266,None,305.16087675560266,None,,,,,,,,,1,2022_May_27_0938,SAR-soap,2021.1.2,
7,Trial # 3,Group1-stimuli/group1-block1/real-group1-b1/Group1_IMG_9704.jpg,1,Group1_IMG_9704.jpg,,,,,0.0,2.0,2.0,2.0,,,,,,,,,,,,,,,,,,,,,,,,,,,,,,,,,,,,,331.08423361647874,None,331.08423361647874,None,331.08423361647874,None,4.0,3.8211137503385535,331.08423361647874,None,331.08423361647874,None,1.0,9.996244466863573,334.4531709207222,None,331.08423361647874,None,3.0,22.67047626338899,340.63763471413404,None,331.08423361647874,None,space,0.4163694838061929,22.704905026592314,None,331.08423361647874,None,331.08423361647874,None,,,,,,,,,1,2022_May_27_0938,SAR-soap,2021.1.2,
8,Trial # 4,Group1-stimuli/group1-block1/real-group1-b1/Group1_IMG_0406.jpg,1,Group1_IMG_0406.jpg,,,,,0.0,3.0,3.0,3.0,,,,,,,,,,,,,,,,,,,,,,,,,,,,,,,,,,,,,354.2591894650832,None,354.2591894650832,None,354.2591894650832,None,2.0,11.156046057119966,354.2591894650832,None,354.2591894650832,None,5.0,15.030829300172629,364.96327987127006,None,354.2591894650832,None,4.0,26.30513621214777,368.84758500847965,None,354.2591894650832,None,space,0.1917954422533512,26.339117277413607,None,354.2591894650832,None,354.2591894650832,None,,,,,,,,,1,2022_May_27_0938,SAR-soap,2021.1.2,
9,Trial # 5,Group1-stimuli/group1-block1/fake-group2-b1/encoded_Group2_IMG_0364.jpg,0,encoded_Group2_IMG_0364.jpg,,,,,0.0,4.0,4.0,4.0,,,,,,,,,,,,,,,,,,,,,,,,,,,,,,,,,,,,,380.8499220618978,None,380.8499220618978,None,380.8499220618978,None,1.0,14.123544278554618,380.8499220618978,None,380.8499220618978,None,3.0,18.597169612534344,393.0373406279832,None,380.8499220618978,None,2.0,44.20968134328723,399.0066350130364,None,380.8499220618978,None,space,1.5817925725132227,44.244628983549774,None,380.8499220618978,None,380.8499220618978,None,,,,,,,,,1,2022_May_27_0938,SAR-soap,2021.1.2,
10,Trial # 6,Group1-stimuli/group1-block1/fake-group2-b1/encoded_Group2_IMG_0407.jpg,0,encoded_Group2_IMG_0407.jpg,,,,,0.0,5.0,5.0,5.0,,,,,,,,,,,,,,,,,,,,,,,,,,,,,,,,,,,,,426.73080489598215,None,426.73080489598215,None,426.73080489598215,None,2.0,5.551720855757594,426.73080489598215,None,426.73080489598215,None,3.0,12.909155181609094,431.8326797131449,None,426.73080489598215,None,2.0,14.547490668483078,439.20250861160457,None,426.73080489598215,None,space,0.4015059750527143,14.57876767218113,None,426.73080489598215,None,426.73080489598215,None,,,,,,,,,1,2022_May_27_0938,SAR-soap,2021.1.2,
11,Trial # 7,Group1-stimuli/group1-block1/real-group1-b1/Group1_IMG_0428.jpg,1,Group1_IMG_0428.jpg,,,,,0.0,6.0,6.0,6.0,,,,,,,,,,,,,,,,,,,,,,,,,,,,,,,,,,,,,441.8016519881785,None,441.8016519881785,None,441.8016519881785,None,5.0,4.807238674722612,441.8016519881785,None,441.8016519881785,None,6.0,8.9469912070781,446.15418443549424,None,441.8016519881785,None,3.0,11.5527284136042,450.3058646870777,None,441.8016519881785,None,space,0.2669410686939955,11.573693710379304,None,441.8016519881785,None,441.8016519881785,None,,,,,,,,,1,2022_May_27_0938,SAR-soap,2021.1.2,
12,Trial # 8,Group1-stimuli/group1-block1/fake-group2-b1/encoded_Group2_IMG_0474.jpg,0,encoded_Group2_IMG_0474.jpg,,,,,0.0,7.0,7.0,7.0,,,,,,,,,,,,,,,,,,,,,,,,,,,,,,,,,,,,,453.7231579981744,None,453.7231579981744,None,453.7231579981744,None,1.0,7.090733350254595,453.7231579981744,None,453.7231579981744,None,2.0,6.363434126600623,455.0566808152944,None,453.7231579981744,None,2.0,9.734888329170644,456.4070808235556,None,453.7231579981744,None,space,0.5158646674826741,9.753726131282749,None,453.7231579981744,None,453.7231579981744,None,,,,,,,,,1,2022_May_27_0938,SAR-soap,2021.1.2,
13,Trial # 9,Group1-stimuli/group1-block1/fake-group2-b1/encoded_Group2_IMG_1506.jpg,0,encoded_Group2_IMG_1506.jpg,,,,,0.0,8.0,8.0,8.0,,,,,,,,,,,,,,,,,,,,,,,,,,,,,,,,,,,,,464.0599886169657,None,464.0599886169657,None,464.0599886169657,None,6.0,3.8780975556001054,464.0599886169657,None,464.0599886169657,None,7.0,7.552153591066599,467.4776792880148,None,464.0599886169657,None,4.0,11.658257205970584,471.1621397556737,None,464.0599886169657,None,space,0.2294111782684922,11.684699084609749,None,464.0599886169657,None,464.0599886169657,None,,,,,,,,,1,2022_May_27_0938,SAR-soap,2021.1.2,
14,Trial # 10,Group1-stimuli/group1-block1/real-group1-b1/Group1_IMG_9789.jpg,1,Group1_IMG_9789.jpg,,,,,0.0,9.0,9.0,9.0,,,,,,,,,,,,,,,,,,,,,,,,,,,,,,,,,,,,,476.03006578516215,None,476.03006578516215,None,476.03006578516215,None,1.0,4.089908116497099,476.03006578516215,None,476.03006578516215,None,1.0,5.780374696478248,479.66562216263264,None,476.03006578516215,None,2.0,8.319311698898673,481.3646151134744,None,476.03006578516215,None,space,0.2098163310438394,8.34018552582711,None,476.03006578516215,None,476.03006578516215,None,,,,,,,,,1,2022_May_27_0938,SAR-soap,2021.1.2,
15,Trial # 11,Group1-stimuli/group1-block1/real-group1-b1/Group1_IMG_9778.jpg,1,Group1_IMG_9778.jpg,,,,,0.0,10.0,10.0,10.0,,,,,,,,,,,,,,,,,,,,,,,,,,,,,,,,,,,,,484.6334175709635,None,484.6334175709635,None,484.6334175709635,None,5.0,2.0841540759429336,484.6334175709635,None,484.6334175709635,None,5.0,4.108015978708863,486.2672988511622,None,484.6334175709635,None,2.0,7.881875456310809,488.3009285414592,None,484.6334175709635,None,space,0.3286334127187729,7.911743832752109,None,484.6334175709635,None,484.6334175709635,None,,,,,,,,,1,2022_May_27_0938,SAR-soap,2021.1.2,
16,Trial # 12,Group1-stimuli/group1-block1/real-group1-b1/Group1_IMG_9813.jpg,1,Group1_IMG_9813.jpg,,,,,0.0,11.0,11.0,11.0,,,,,,,,,,,,,,,,,,,,,,,,,,,,,,,,,,,,,492.91753973905,None,492.91753973905,None,492.91753973905,None,1.0,2.3593441797420382,492.91753973905,None,492.91753973905,None,2.0,5.464287048205733,494.8190168915317,None,492.91753973905,None,2.0,9.60528028011322,497.93687246367335,None,492.91753973905,None,space,0.2218304509297013,9.626719364896417,None,492.91753973905,None,492.91753973905,None,,,,,,,,,1,2022_May_27_0938,SAR-soap,2021.1.2,
17,Trial # 13,Group1-stimuli/group1-block1/real-group1-b1/Group1_IMG_0516.jpg,1,Group1_IMG_0516.jpg,,,,,0.0,12.0,12.0,12.0,,,,,,,,,,,,,,,,,,,,,,,,,,,,,,,,,,,,,502.80486865062267,None,502.80486865062267,None,502.80486865062267,None,6.0,2.1975883739069104,502.80486865062267,None,502.80486865062267,None,6.0,3.9357387591153374,504.5549812838435,None,502.80486865062267,None,4.0,4.8744791289791465,506.3054113443941,None,502.80486865062267,None,space,0.2694510482251644,4.902633935213089,None,502.80486865062267,None,502.80486865062267,None,,,,,,,,,1,2022_May_27_0938,SAR-soap,2021.1.2,
18,Trial # 14,Group1-stimuli/group1-block1/fake-group2-b1/encoded_Group2_IMG_0038.jpg,0,encoded_Group2_IMG_0038.jpg,,,,,0.0,13.0,13.0,13.0,,,,,,,,,,,,,,,,,,,,,,,,,,,,,,,,,,,,,508.0396358631551,None,508.0396358631551,None,508.0396358631551,None,6.0,2.1517242519184947,508.0396358631551,None,508.0396358631551,None,4.0,4.407750206999481,509.7407225314528,None,508.0396358631551,None,2.0,9.314377810806036,510.9736353019253,None,508.0396358631551,None,space,1.1279904283583164,9.346300778910518,None,508.0396358631551,None,508.0396358631551,None,,,,,,,,,1,2022_May_27_0938,SAR-soap,2021.1.2,
19,Trial # 15,Group1-stimuli/group1-block1/real-group1-b1/Group1_IMG_5984.jpg,1,Group1_IMG_5984.jpg,,,,,0.0,14.0,14.0,14.0,,,,,,,,,,,,,,,,,,,,,,,,,,,,,,,,,,,,,518.5606327289715,None,518.5606327289715,None,518.5606327289715,None,2.0,6.21142955776304,518.5606327289715,None,518.5606327289715,None,4.0,9.000831770710647,524.312227152288,None,518.5606327289715,None,2.0,12.240367938764392,527.1119355391711,None,518.5606327289715,None,space,0.8822773657739162,12.263335973024368,None,518.5606327289715,None,518.5606327289715,None,,,,,,,,,1,2022_May_27_0938,SAR-soap,2021.1.2,
20,Trial # 16,Group1-stimuli/group1-block1/real-group1-b1/Group1_IMG_0383.jpg,1,Group1_IMG_0383.jpg,,,,,0.0,15.0,15.0,15.0,,,,,,,,,,,,,,,,,,,,,,,,,,,,,,,,,,,,,531.7636250220239,None,531.7636250220239,None,531.7636250220239,None,5.0,6.113223911263049,531.7636250220239,None,531.7636250220239,None,3.0,7.469378970563412,537.4159494144842,None,531.7636250220239,None,6.0,11.6091426378116,538.7835016837344,None,531.7636250220239,None,space,0.184358793310821,11.6332623437047,None,531.7636250220239,None,531.7636250220239,None,,,,,,,,,1,2022_May_27_0938,SAR-soap,2021.1.2,
21,Trial # 17,Group1-stimuli/group1-block1/fake-group2-b1/encoded_Group2_IMG_0456.jpg,0,encoded_Group2_IMG_0456.jpg,,,,,0.0,16.0,16.0,16.0,,,,,,,,,,,,,,,,,,,,,,,,,,,,,,,,,,,,,543.6515257507563,None,543.6515257507563,None,543.6515257507563,None,6.0,6.36079079285264,543.6515257507563,None,543.6515257507563,None,5.0,8.43267915584147,549.5530246077105,None,543.6515257507563,None,3.0,15.974296673201025,551.6366311684251,None,543.6515257507563,None,space,1.6955618765205145,15.997129357419908,None,543.6515257507563,None,543.6515257507563,None,,,,,,,,,1,2022_May_27_0938,SAR-soap,2021.1.2,
22,Trial # 18,Group1-stimuli/group1-block1/fake-group2-b1/encoded_Group2_IMG_8390.jpg,0,encoded_Group2_IMG_8390.jpg,,,,,0.0,17.0,17.0,17.0,,,,,,,,,,,,,,,,,,,,,,,,,,,,,,,,,,,,,561.3724259911105,None,561.3724259911105,None,561.3724259911105,None,6.0,2.216135408729315,561.3724259911105,None,561.3724259911105,None,5.0,3.206352484412492,563.1397268837318,None,561.3724259911105,None,4.0,7.012032416649163,564.1409923192114,None,561.3724259911105,None,space,0.7036539847031236,7.04301771428436,None,561.3724259911105,None,561.3724259911105,None,,,,,,,,,1,2022_May_27_0938,SAR-soap,2021.1.2,
23,Trial # 19,Group1-stimuli/group1-block1/real-group1-b1/Group1_IMG_0011.jpg,1,Group1_IMG_0011.jpg,,,,,0.0,18.0,18.0,18.0,,,,,,,,,,,,,,,,,,,,,,,,,,,,,,,,,,,,,569.1923370463774,None,569.1923370463774,None,569.1923370463774,None,6.0,1.760853270068765,569.1923370463774,None,569.1923370463774,None,5.0,2.717034762725234,570.4934324920177,None,569.1923370463774,None,4.0,3.689182252623141,571.458765049465,None,569.1923370463774,None,space,0.2748477645218372,3.7157939644530416,None,569.1923370463774,None,569.1923370463774,None,,,,,,,,,1,2022_May_27_0938,SAR-soap,2021.1.2,
24,Trial # 20,Group1-stimuli/group1-block1/fake-group2-b1/encoded_Group2_IMG_0328.jpg,0,encoded_Group2_IMG_0328.jpg,,,,,0.0,19.0,19.0,19.0,,,,,,,,,,,,,,,,,,,,,,,,,,,,,,,,,,,,,573.2265310743824,None,573.2265310743824,None,573.2265310743824,None,2.0,2.80346457939595,573.2265310743824,None,573.2265310743824,None,1.0,5.794088440015912,575.5778560694307,None,573.2265310743824,None,3.0,7.498443707823753,578.5788814378902,None,573.2265310743824,None,space,0.3983367960900068,7.532803535461426,None,573.2265310743824,None,573.2265310743824,None,,,,,,,,,1,2022_May_27_0938,SAR-soap,2021.1.2,
25,Trial # 21,Group1-stimuli/group1-block1/fake-group2-b1/encoded_Group2_IMG_0163.jpg,0,encoded_Group2_IMG_0163.jpg,,,,,0.0,20.0,20.0,20.0,,,,,,,,,,,,,,,,,,,,,,,,,,,,,,,,,,,,,581.161873806268,None,581.161873806268,None,581.161873806268,None,6.0,6.580650593154132,581.161873806268,None,581.161873806268,None,6.0,11.738316955044866,587.2973164236173,None,581.161873806268,None,3.0,19.61274260096252,592.4655075995252,None,581.161873806268,None,space,0.7100641811266541,19.639244847930968,None,581.161873806268,None,581.161873806268,None,,,,,,,,,1,2022_May_27_0938,SAR-soap,2021.1.2,
26,Trial # 22,Group1-stimuli/group1-block1/real-group1-b1/Group1_IMG_9862.jpg,1,Group1_IMG_9862.jpg,,,,,0.0,21.0,21.0,21.0,,,,,,,,,,,,,,,,,,,,,,,,,,,,,,,,,,,,,601.601828398183,None,601.601828398183,None,601.601828398183,None,2.0,2.76197509188205,601.601828398183,None,601.601828398183,None,3.0,6.151032456196845,603.90278875269,None,601.601828398183,None,2.0,8.724933810532093,607.3036803295836,None,601.601828398183,None,space,0.165463114157319,8.750080147758126,None,601.601828398183,None,601.601828398183,None,,,,,,,,,1,2022_May_27_0938,SAR-soap,2021.1.2,
27,Trial # 23,Group1-stimuli/group1-block1/fake-group2-b1/encoded_Group2_IMG_0296.jpg,0,encoded_Group2_IMG_0296.jpg,,,,,0.0,22.0,22.0,22.0,,,,,,,,,,,,,,,,,,,,,,,,,,,,,,,,,,,,,610.5382474372163,None,610.5382474372163,None,610.5382474372163,None,6.0,3.861911306157708,610.5382474372163,None,610.5382474372163,None,7.0,4.78485697042197,613.9400559617206,None,610.5382474372163,None,4.0,10.092162445187569,614.8729340778664,None,610.5382474372163,None,space,0.1906124167144298,10.11781319975853,None,610.5382474372163,None,610.5382474372163,None,,,,,,,,,1,2022_May_27_0938,SAR-soap,2021.1.2,
28,Trial # 24,Group1-stimuli/group1-block1/fake-group2-b1/encoded_Group2_IMG_0503.jpg,0,encoded_Group2_IMG_0503.jpg,,,,,0.0,23.0,23.0,23.0,,,,,,,,,,,,,,,,,,,,,,,,,,,,,,,,,,,,,620.8584064282477,None,620.8584064282477,None,620.8584064282477,None,6.0,1.7204204481095076,620.8584064282477,None,620.8584064282477,None,7.0,2.575589766725898,622.1414378192276,None,620.8584064282477,None,4.0,5.715400252491236,623.008491535671,None,620.8584064282477,None,space,0.8542711986228824,5.7504479475319386,None,620.8584064282477,None,620.8584064282477,None,,,,,,,,,1,2022_May_27_0938,SAR-soap,2021.1.2,
29,Trial # 25,Group1-stimuli/group1-block1/fake-group2-b1/encoded_Group2_IMG_9804.jpg,0,encoded_Group2_IMG_9804.jpg,,,,,0.0,24.0,24.0,24.0,,,,,,,,,,,,,,,,,,,,,,,,,,,,,,,,,,,,,627.4929871633649,None,627.4929871633649,None,627.4929871633649,None,1.0,7.198101838119328,627.4929871633649,None,627.4929871633649,None,2.0,5.103754978626967,629.0617068586871,None,627.4929871633649,None,1.0,8.043163728900254,631.0607697283849,None,627.4929871633649,None,space,0.2213859912008047,8.069915043190122,None,627.4929871633649,None,627.4929871633649,None,,,,,,,,,1,2022_May_27_0938,SAR-soap,2021.1.2,
30,Trial # 26,Group1-stimuli/group1-block1/real-group1-b1/Group1_IMG_0391.jpg,1,Group1_IMG_0391.jpg,,,,,0.0,25.0,25.0,25.0,,,,,,,,,,,,,,,,,,,,,,,,,,,,,,,,,,,,,635.8450206033885,None,635.8450206033885,None,635.8450206033885,None,4.0,3.043020431883633,635.8450206033885,None,635.8450206033885,None,5.0,4.298820866271853,638.4304567724466,None,635.8450206033885,None,2.0,6.103637324646115,639.6973944464698,None,635.8450206033885,None,space,0.4269638266414404,6.1292390851303935,None,635.8450206033885,None,635.8450206033885,None,,,,,,,,,1,2022_May_27_0938,SAR-soap,2021.1.2,
31,Trial # 27,Group1-stimuli/group1-block1/fake-group2-b1/encoded_Group2_IMG_3584.jpg,0,encoded_Group2_IMG_3584.jpg,,,,,0.0,26.0,26.0,26.0,,,,,,,,,,,,,,,,,,,,,,,,,,,,,,,,,,,,,642.4308794895187,None,642.4308794895187,None,642.4308794895187,None,5.0,4.799806390888989,642.4308794895187,None,642.4308794895187,None,4.0,5.655888381414115,646.7821854157373,None,642.4308794895187,None,4.0,7.695237912237644,647.6493488876149,None,642.4308794895187,None,space,0.1535678701475262,7.724232823587954,None,642.4308794895187,None,642.4308794895187,None,,,,,,,,,1,2022_May_27_0938,SAR-soap,2021.1.2,
32,Trial # 28,Group1-stimuli/group1-block1/fake-group2-b1/encoded_Group2_IMG_0434.jpg,0,encoded_Group2_IMG_0434.jpg,,,,,0.0,27.0,27.0,27.0,,,,,,,,,,,,,,,,,,,,,,,,,,,,,,,,,,,,,650.350857147947,None,650.350857147947,None,650.350857147947,None,7.0,2.954835924319923,650.350857147947,None,650.350857147947,None,7.0,3.71254753600806,652.8515373887494,None,650.350857147947,None,5.0,7.3836337784305215,653.6191040240228,None,650.350857147947,None,space,0.1916497591882944,7.40330565162003,None,650.350857147947,None,650.350857147947,None,,,,,,,,,1,2022_May_27_0938,SAR-soap,2021.1.2,
33,Trial # 29,Group1-stimuli/group1-block1/fake-group2-b1/encoded_Group2_IMG_9575.jpg,0,encoded_Group2_IMG_9575.jpg,,,,,0.0,28.0,28.0,28.0,,,,,,,,,,,,,,,,,,,,,,,,,,,,,,,,,,,,,657.9688948271796,None,657.9688948271796,None,657.9688948271796,None,3.0,5.832597511820495,657.9688948271796,None,657.9688948271796,None,6.0,6.604476056993008,659.5198163641617,None,657.9688948271796,None,3.0,9.34257092140615,664.1388950897381,None,657.9688948271796,None,space,0.1967385951429605,9.370008724741638,None,657.9688948271796,None,657.9688948271796,None,,,,,,,,,1,2022_May_27_0938,SAR-soap,2021.1.2,
34,Trial # 30,Group1-stimuli/group1-block1/fake-group2-b1/encoded_Group2_IMG_1025.jpg,0,encoded_Group2_IMG_1025.jpg,,,,,0.0,29.0,29.0,29.0,,,,,,,,,,,,,,,,,,,,,,,,,,,,,,,,,,,,,667.5552616324276,None,667.5552616324276,None,667.5552616324276,None,1.0,11.549958063289523,667.5552616324276,None,667.5552616324276,None,2.0,10.987805626355112,670.2739567495883,None,667.5552616324276,None,1.0,7.893427453003824,671.9733298970386,None,667.5552616324276,None,space,3.9174059061333537,7.919428295455873,None,667.5552616324276,None,667.5552616324276,None,,,,,,,,,1,2022_May_27_0938,SAR-soap,2021.1.2,
35,Trial # 31,Group1-stimuli/group1-block1/real-group1-b1/Group1_IMG_0502.jpg,1,Group1_IMG_0502.jpg,,,,,0.0,30.0,30.0,30.0,,,,,,,,,,,,,,,,,,,,,,,,,,,,,,,,,,,,,679.4427090240642,None,679.4427090240642,None,679.4427090240642,None,6.0,8.432670409791172,679.4427090240642,None,679.4427090240642,None,6.0,3.0034793112427,681.4428945388645,None,679.4427090240642,None,5.0,5.975823551416397,682.0093341721222,None,679.4427090240642,None,space,2.6745244404301047,6.004246427677572,None,679.4427090240642,None,679.4427090240642,None,,,,,,,,,1,2022_May_27_0938,SAR-soap,2021.1.2,
36,Trial # 32,Group1-stimuli/group1-block1/real-group1-b1/Group1_IMG_0182.jpg,1,Group1_IMG_0182.jpg,,,,,0.0,31.0,31.0,31.0,,,,,,,,,,,,,,,,,,,,,,,,,,,,,,,,,,,,,688.1783206546679,None,688.1783206546679,None,688.1783206546679,None,7.0,2.066223496571183,688.1783206546679,None,688.1783206546679,None,7.0,2.790621992200613,689.7960081361234,None,688.1783206546679,None,5.0,5.0287532703951,690.5292610302567,None,688.1783206546679,None,space,0.9379579043015838,5.058030324988067,None,688.1783206546679,None,688.1783206546679,None,,,,,,,,,1,2022_May_27_0938,SAR-soap,2021.1.2,
37,Trial # 33,Group1-stimuli/group1-block1/fake-group2-b1/encoded_Group2_IMG_2728.jpg,0,encoded_Group2_IMG_2728.jpg,,,,,0.0,32.0,32.0,32.0,,,,,,,,,,,,,,,,,,,,,,,,,,,,,,,,,,,,,694.2135537564754,None,694.2135537564754,None,694.2135537564754,None,2.0,9.481605879962444,694.2135537564754,None,694.2135537564754,None,4.0,8.719856671988964,697.947718619369,None,694.2135537564754,None,3.0,17.360598063096404,702.4997368389741,None,694.2135537564754,None,space,0.4294091388583183,17.388652763329446,None,694.2135537564754,None,694.2135537564754,None,,,,,,,,,1,2022_May_27_0938,SAR-soap,2021.1.2,
38,Trial # 34,Group1-stimuli/group1-block1/fake-group2-b1/encoded_Group2_IMG_4867.jpg,0,encoded_Group2_IMG_4867.jpg,,,,,0.0,33.0,33.0,33.0,,,,,,,,,,,,,,,,,,,,,,,,,,,,,,,,,,,,,712.0853765197098,None,712.0853765197098,None,712.0853765197098,None,5.0,3.476040764711797,712.0853765197098,None,712.0853765197098,None,7.0,4.43304040376097,715.1039924100041,None,712.0853765197098,None,4.0,7.739589158445597,716.0699591943994,None,712.0853765197098,None,space,0.1604672921821475,7.76225041039288,None,712.0853765197098,None,712.0853765197098,None,,,,,,,,,1,2022_May_27_0938,SAR-soap,2021.1.2,
39,Trial # 35,Group1-stimuli/group1-block1/real-group1-b1/Group1_IMG_9894.jpg,1,Group1_IMG_9894.jpg,,,,,0.0,34.0,34.0,34.0,,,,,,,,,,,,,,,,,,,,,,,,,,,,,,,,,,,,,720.0390895167366,None,720.0390895167366,None,720.0390895167366,None,2.0,2.2845737766474485,720.0390895167366,None,720.0390895167366,None,4.0,5.2920316541567445,721.8724530916661,None,720.0390895167366,None,3.0,9.198702046647668,724.8907181471586,None,720.0390895167366,None,space,0.2126596197485923,9.231929631903768,None,720.0390895167366,None,720.0390895167366,None,,,,,,,,,1,2022_May_27_0938,SAR-soap,2021.1.2,
40,Trial # 36,Group1-stimuli/group1-block1/fake-group2-b1/encoded_Group2_IMG_0444.jpg,0,encoded_Group2_IMG_0444.jpg,,,,,0.0,35.0,35.0,35.0,,,,,,,,,,,,,,,,,,,,,,,,,,,,,,,,,,,,,729.5079999798909,None,729.5079999798909,None,729.5079999798909,None,5.0,1.91234421171248,729.5079999798909,None,729.5079999798909,None,7.0,3.7015636451542377,730.975391340442,None,729.5079999798909,None,4.0,6.506894146092236,732.7753313360736,None,729.5079999798909,None,space,-2.5233529452234507,6.533632930368185,None,729.5079999798909,None,729.5079999798909,None,,,,,,,,,1,2022_May_27_0938,SAR-soap,2021.1.2,
41,Trial # 37,Group1-stimuli/group1-block1/real-group1-b1/Group1_IMG_2656.jpg,1,Group1_IMG_2656.jpg,,,,,0.0,36.0,36.0,36.0,,,,,,,,,,,,,,,,,,,,,,,,,,,,,,,,,,,,,736.0760939167812,None,736.0760939167812,None,736.0760939167812,None,2.0,4.929321702569723,736.0760939167812,None,736.0760939167812,None,4.0,6.351635503582656,740.5452337507159,None,736.0760939167812,None,3.0,12.35825793351978,741.9787770975381,None,736.0760939167812,None,space,-12.295731538906692,12.383669530041516,None,736.0760939167812,None,736.0760939167812,None,,,,,,,,,1,2022_May_27_0938,SAR-soap,2021.1.2,
42,Trial # 38,Group1-stimuli/group1-block1/real-group1-b1/Group1_IMG_0207.jpg,1,Group1_IMG_0207.jpg,,,,,0.0,37.0,37.0,37.0,,,,,,,,,,,,,,,,,,,,,,,,,,,,,,,,,,,,,748.4973322162405,None,748.4973322162405,None,748.4973322162405,None,3.0,9.337789547629654,748.4973322162405,None,748.4973322162405,None,3.0,11.39450911898166,757.382958933711,None,748.4973322162405,None,4.0,13.166230149567127,759.4511378863826,None,748.4973322162405,None,space,-13.060423696413636,13.198924615047872,None,748.4973322162405,None,748.4973322162405,None,,,,,,,,,1,2022_May_27_0938,SAR-soap,2021.1.2,
43,Trial # 39,Group1-stimuli/group1-block1/real-group1-b1/Group1_IMG_9638.jpg,1,Group1_IMG_9638.jpg,,,,,0.0,38.0,38.0,38.0,,,,,,,,,,,,,,,,,,,,,,,,,,,,,,,,,,,,,761.7177402991802,None,761.7177402991802,None,761.7177402991802,None,5.0,8.567087136209011,761.7177402991802,None,761.7177402991802,None,6.0,9.356237928383052,769.8372815987095,None,761.7177402991802,None,5.0,11.462561029940844,770.6370986625552,None,761.7177402991802,None,space,-11.308869521133602,11.49058660119772,None,761.7177402991802,None,761.7177402991802,None,,,,,,,,,1,2022_May_27_0938,SAR-soap,2021.1.2,
44,Trial # 40,Group1-stimuli/group1-block1/real-group1-b1/Group1_IMG_0148.jpg,1,Group1_IMG_0148.jpg,,,,,0.0,39.0,39.0,39.0,,,,,,,,,,,,,,,,,,,,,,,,,,,,,,,,,,,,,773.2715438436717,None,773.2715438436717,None,773.2715438436717,None,7.0,11.640203368850052,773.2715438436717,None,773.2715438436717,None,7.0,12.329991606995463,784.4590911529958,None,773.2715438436717,None,4.0,14.067835596390069,785.1581328781322,None,773.2715438436717,None,space,1.8957779314368963,14.10287281870842,None,773.2715438436717,None,773.2715438436717,None,,,,,,,,,1,2022_May_27_0938,SAR-soap,2021.1.2,
45,Trial # 41,Group1-stimuli/group1-block1/real-group1-b1/Group1_IMG_2891.jpg,1,Group1_IMG_2891.jpg,,,,,0.0,40.0,40.0,40.0,,,,,,,,,,,,,,,,,,,,,,,,,,,,,,,,,,,,,789.3095545815304,None,789.3095545815304,None,789.3095545815304,None,4.0,4.097174655646086,789.3095545815304,None,789.3095545815304,None,2.0,4.721482176333666,792.9607832320035,None,789.3095545815304,None,4.0,5.8922780668362975,793.5945965144783,None,789.3095545815304,None,space,0.6987183894962072,5.919739621691406,None,789.3095545815304,None,789.3095545815304,None,,,,,,,,,1,2022_May_27_0938,SAR-soap,2021.1.2,
46,Trial # 42,Group1-stimuli/group1-block1/real-group1-b1/Group1_IMG_0157.jpg,1,Group1_IMG_0157.jpg,,,,,0.0,41.0,41.0,41.0,,,,,,,,,,,,,,,,,,,,,,,,,,,,,,,,,,,,,795.9619157621637,None,795.9619157621637,None,795.9619157621637,None,5.0,1.7791129108518362,795.9619157621637,None,795.9619157621637,None,7.0,4.835927792824805,797.2957590725273,None,795.9619157621637,None,4.0,6.609122402966023,798.1616728147492,None,795.9619157621637,None,space,2.225793824531138,6.636644271202385,None,795.9619157621637,None,795.9619157621637,None,,,,,,,,,1,2022_May_27_0938,SAR-soap,2021.1.2,
47,Trial # 43,Group1-stimuli/group1-block1/real-group1-b1/Group1_IMG_9833.jpg,1,Group1_IMG_9833.jpg,,,,,0.0,42.0,42.0,42.0,,,,,,,,,,,,,,,,,,,,,,,,,,,,,,,,,,,,,804.8646482946351,None,804.8646482946351,None,804.8646482946351,None,4.0,6.81935315579176,804.8646482946351,None,804.8646482946351,None,3.0,7.557525541633367,806.3483322029933,None,804.8646482946351,None,2.0,10.531707854010165,811.9829776771367,None,804.8646482946351,None,space,0.3490759460255503,10.56522507313639,None,804.8646482946351,None,804.8646482946351,None,,,,,,,,,1,2022_May_27_0938,SAR-soap,2021.1.2,
48,Trial # 44,Group1-stimuli/group1-block1/fake-group2-b1/encoded_Group2_IMG_2230.jpg,0,encoded_Group2_IMG_2230.jpg,,,,,0.0,43.0,43.0,43.0,,,,,,,,,,,,,,,,,,,,,,,,,,,,,,,,,,,,,815.8344546770677,None,815.8344546770677,None,815.8344546770677,None,5.0,1.9979008240625264,815.8344546770677,None,815.8344546770677,None,7.0,2.870043548755348,817.3848374122754,None,815.8344546770677,None,3.0,4.908724436536431,818.269010419026,None,815.8344546770677,None,space,0.2295066881924867,4.938500521704555,None,815.8344546770677,None,815.8344546770677,None,,,,,,,,,1,2022_May_27_0938,SAR-soap,2021.1.2,
49,Trial # 45,Group1-stimuli/group1-block1/real-group1-b1/Group1_IMG_9966.jpg,1,Group1_IMG_9966.jpg,,,,,0.0,44.0,44.0,44.0,,,,,,,,,,,,,,,,,,,,,,,,,,,,,,,,,,,,,821.036126694642,None,821.036126694642,None,821.036126694642,None,6.0,6.166496749036014,821.036126694642,None,821.036126694642,None,7.0,10.723959820345044,826.7547039780766,None,821.036126694642,None,7.0,12.831568174995482,831.3220243649557,None,821.036126694642,None,space,1.1170068243518472,12.860144140198829,None,821.036126694642,None,821.036126694642,None,,,,,,,,,1,2022_May_27_0938,SAR-soap,2021.1.2,
50,Trial # 46,Group1-stimuli/group1-block1/real-group1-b1/Group1_IMG_0239.jpg,1,Group1_IMG_0239.jpg,,,,,0.0,45.0,45.0,45.0,,,,,,,,,,,,,,,,,,,,,,,,,,,,,,,,,,,,,835.0739303687587,None,835.0739303687587,None,835.0739303687587,None,3.0,3.131405114196241,835.0739303687587,None,835.0739303687587,None,3.0,7.188342489302158,837.7586172809824,None,835.0739303687587,None,4.0,10.26120950654149,841.3587223952636,None,835.0739303687587,None,space,0.1264997832477092,10.290887845680118,None,835.0739303687587,None,835.0739303687587,None,,,,,,,,,1,2022_May_27_0938,SAR-soap,2021.1.2,
51,Trial # 47,Group1-stimuli/group1-block1/fake-group2-b1/encoded_Group2_IMG_0536.jpg,0,encoded_Group2_IMG_0536.jpg,,,,,0.0,46.0,46.0,46.0,,,,,,,,,,,,,,,,,,,,,,,,,,,,,,,,,,,,,845.5104715032503,None,845.5104715032503,None,845.5104715032503,None,2.0,4.597373339347541,845.5104715032503,None,845.5104715032503,None,3.0,5.853300009854138,849.6621186379343,None,845.5104715032503,None,2.0,8.660729636438191,850.9294332796708,None,845.5104715032503,None,space,0.2178805284202098,8.687968115322292,None,845.5104715032503,None,845.5104715032503,None,,,,,,,,,1,2022_May_27_0938,SAR-soap,2021.1.2,
52,Trial # 48,Group1-stimuli/group1-block1/fake-group2-b1/encoded_Group2_IMG_0521.jpg,0,encoded_Group2_IMG_0521.jpg,,,,,0.0,47.0,47.0,47.0,,,,,,,,,,,,,,,,,,,,,,,,,,,,,,,,,,,,,854.4639350948855,None,854.4639350948855,None,854.4639350948855,None,6.0,1.6491208896040916,854.4639350948855,None,854.4639350948855,None,4.0,3.754551541991532,855.6648833518848,None,854.4639350948855,None,3.0,6.2955755982548,857.7804112769663,None,854.4639350948855,None,space,0.2012729151174426,6.325285587459803,None,854.4639350948855,None,854.4639350948855,None,,,,,,,,,1,2022_May_27_0938,SAR-soap,2021.1.2,
53,Trial # 49,Group1-stimuli/group1-block1/fake-group2-b1/encoded_Group2_IMG_9924.jpg,0,encoded_Group2_IMG_9924.jpg,,,,,0.0,48.0,48.0,48.0,,,,,,,,,,,,,,,,,,,,,,,,,,,,,,,,,,,,,861.0481410333887,None,861.0481410333887,None,861.0481410333887,None,3.0,2.9054424483329058,861.0481410333887,None,861.0481410333887,None,2.0,7.427726372145116,863.4998608492315,None,861.0481410333887,None,3.0,8.767687391489744,868.033613407053,None,861.0481410333887,None,space,0.1880397507920861,8.787453901022673,None,861.0481410333887,None,861.0481410333887,None,,,,,,,,,1,2022_May_27_0938,SAR-soap,2021.1.2,
54,Trial # 50,Group1-stimuli/group1-block1/real-group1-b1/Group1_IMG_9730.jpg,1,Group1_IMG_9730.jpg,,,,,0.0,49.0,49.0,49.0,,,,,,,,,,,,,,,,,,,,,,,,,,,,,,,,,,,,,870.0688692908734,None,870.0688692908734,None,870.0688692908734,None,7.0,3.582540670409798,870.0688692908734,None,870.0688692908734,None,7.0,5.906552569940686,873.2018845295534,None,870.0688692908734,None,5.0,8.711638388223946,875.5364937856793,None,870.0688692908734,None,space,1.2040331214666369,8.742393179796636,None,870.0688692908734,None,870.0688692908734,None,,,,,,,,,1,2022_May_27_0938,SAR-soap,2021.1.2,
55,Trial # 51,Group1-stimuli/group1-block1/real-group1-b1/Group1_IMG_0053.jpg,1,Group1_IMG_0053.jpg,,,,,0.0,50.0,50.0,50.0,,,,,,,,,,,,,,,,,,,,,,,,,,,,,,,,,,,,,880.1050102720037,None,880.1050102720037,None,880.1050102720037,None,2.0,7.164587336592376,880.1050102720037,None,880.1050102720037,None,1.0,9.704125092364848,884.4397125449032,None,880.1050102720037,None,3.0,11.44338886719197,889.3739641420543,None,880.1050102720037,None,space,0.1447384003549814,11.470842005684972,None,880.1050102720037,None,880.1050102720037,None,,,,,,,,,1,2022_May_27_0938,SAR-soap,2021.1.2,
56,Trial # 52,Group1-stimuli/group1-block1/real-group1-b1/Group1_IMG_9698.jpg,1,Group1_IMG_9698.jpg,,,,,0.0,51.0,51.0,51.0,,,,,,,,,,,,,,,,,,,,,,,,,,,,,,,,,,,,,891.7912966180593,None,891.7912966180593,None,891.7912966180593,None,1.0,4.615031597204506,891.7912966180593,None,891.7912966180593,None,1.0,5.7704834239557385,895.9602867737412,None,891.7912966180593,None,2.0,7.477243458852172,897.1256916150451,None,891.7912966180593,None,space,0.1612486066296696,7.505482466891408,None,891.7912966180593,None,891.7912966180593,None,,,,,,,,,1,2022_May_27_0938,SAR-soap,2021.1.2,
57,Trial # 53,Group1-stimuli/group1-block1/fake-group2-b1/encoded_Group2_IMG_0553.jpg,0,encoded_Group2_IMG_0553.jpg,,,,,0.0,52.0,52.0,52.0,,,,,,,,,,,,,,,,,,,,,,,,,,,,,,,,,,,,,899.4942822027951,None,899.4942822027951,None,899.4942822027951,None,1.0,2.202629018574953,899.4942822027951,None,899.4942822027951,None,1.0,2.9260121881961823,901.2447451986372,None,899.4942822027951,None,3.0,5.231363581493497,901.9776605470106,None,899.4942822027951,None,space,1.1499171378090978,4.297362109646201,None,899.4942822027951,None,899.4942822027951,None,,,,,,,,,1,2022_May_27_0938,SAR-soap,2021.1.2,
58,Trial # 54,Group1-stimuli/group1-block1/fake-group2-b1/encoded_Group2_IMG_9758.jpg,0,encoded_Group2_IMG_9758.jpg,,,,,0.0,53.0,53.0,53.0,,,,,,,,,,,,,,,,,,,,,,,,,,,,,,,,,,,,,904.9790835417808,None,904.9790835417808,None,904.9790835417808,None,6.0,1.947545004077256,904.9790835417808,None,904.9790835417808,None,7.0,7.921358500607312,906.4801565948874,None,904.9790835417808,None,4.0,10.129427297972144,912.4644122468308,None,904.9790835417808,None,space,0.1311273109167814,10.157204644754527,None,904.9790835417808,None,904.9790835417808,None,,,,,,,,,1,2022_May_27_0938,SAR-soap,2021.1.2,
59,Trial # 55,Group1-stimuli/group1-block1/fake-group2-b1/encoded_Group2_IMG_0339.jpg,0,encoded_Group2_IMG_0339.jpg,,,,,0.0,54.0,54.0,54.0,,,,,,,,,,,,,,,,,,,,,,,,,,,,,,,,,,,,,915.2818358270453,None,915.2818358270453,None,915.2818358270453,None,3.0,2.161643802188337,915.2818358270453,None,915.2818358270453,None,3.0,6.336531866341829,916.999174603261,None,915.2818358270453,None,5.0,8.176003457978368,921.1845365520568,None,915.2818358270453,None,space,0.5627567693591118,8.201596165075898,None,915.2818358270453,None,915.2818358270453,None,,,,,,,,,1,2022_May_27_0938,SAR-soap,2021.1.2,
60,Trial # 56,Group1-stimuli/group1-block1/real-group1-b1/Group1_IMG_0314.jpg,1,Group1_IMG_0314.jpg,,,,,0.0,55.0,55.0,55.0,,,,,,,,,,,,,,,,,,,,,,,,,,,,,,,,,,,,,924.085238979198,None,924.085238979198,None,924.085238979198,None,2.0,2.2840032409876585,924.085238979198,None,924.085238979198,None,2.0,2.8727809693664312,925.9195052189752,None,924.085238979198,None,3.0,3.877814743667841,926.519508502446,None,924.085238979198,None,space,0.3890026984736323,3.911555386148393,None,924.085238979198,None,924.085238979198,None,,,,,,,,,1,2022_May_27_0938,SAR-soap,2021.1.2,
61,Trial # 57,Group1-stimuli/group1-block1/fake-group2-b1/encoded_Group2_IMG_0532.jpg,0,encoded_Group2_IMG_0532.jpg,,,,,0.0,56.0,56.0,56.0,,,,,,,,,,,,,,,,,,,,,,,,,,,,,,,,,,,,,928.4036415610462,None,928.4036415610462,None,928.4036415610462,None,5.0,1.946297075599432,928.4036415610462,None,928.4036415610462,None,4.0,2.969032769091428,929.9045546678826,None,928.4036415610462,None,4.0,3.876092166639864,930.9373145606368,None,928.4036415610462,None,space,2.479524176567793,3.90168032143265,None,928.4036415610462,None,928.4036415610462,None,,,,,,,,,1,2022_May_27_0938,SAR-soap,2021.1.2,
62,Trial # 58,Group1-stimuli/group1-block1/fake-group2-b1/encoded_Group2_IMG_0462.jpg,0,encoded_Group2_IMG_0462.jpg,,,,,0.0,57.0,57.0,57.0,,,,,,,,,,,,,,,,,,,,,,,,,,,,,,,,,,,,,934.8210870735348,None,934.8210870735348,None,934.8210870735348,None,7.0,2.195833253674209,934.8210870735348,None,934.8210870735348,None,7.0,3.019210180267692,936.5717729777098,None,934.8210870735348,None,5.0,3.922540345229209,937.4048179816456,None,934.8210870735348,None,space,0.1390680503100156,3.9504474401474,None,934.8210870735348,None,934.8210870735348,None,,,,,,,,,1,2022_May_27_0938,SAR-soap,2021.1.2,
63,Trial # 59,Group1-stimuli/group1-block1/real-group1-b1/Group1_IMG_0172.jpg,1,Group1_IMG_0172.jpg,,,,,0.0,58.0,58.0,58.0,,,,,,,,,,,,,,,,,,,,,,,,,,,,,,,,,,,,,938.9737335536628,None,938.9737335536628,None,938.9737335536628,None,2.0,1.9009786238893869,938.9737335536628,None,938.9737335536628,None,2.0,2.457320684567094,940.4234662270172,None,938.9737335536628,None,4.0,3.928885422647,940.9894994208588,None,938.9737335536628,None,space,0.2043165313079953,3.959931554272771,None,938.9737335536628,None,938.9737335536628,None,,,,,,,,,1,2022_May_27_0938,SAR-soap,2021.1.2,
64,Trial # 60,Group1-stimuli/group1-block1/real-group1-b1/Group1_IMG_4841.jpg,1,Group1_IMG_4841.jpg,,,,,0.0,59.0,59.0,59.0,,,,,,,,,,,,,,,,,,,,,,,,,,,,,,,,,,,,,943.1899467986076,None,943.1899467986076,None,943.1899467986076,None,6.0,1.962308638729155,943.1899467986076,None,943.1899467986076,None,7.0,2.785546338185668,944.7088101450354,None,943.1899467986076,None,4.0,4.057829324156046,945.5417866976932,None,943.1899467986076,None,space,0.2843424770981073,4.084572644904256,None,943.1899467986076,None,943.1899467986076,None,,,,,,,,,1,2022_May_27_0938,SAR-soap,2021.1.2,
65,Trial # 61,Group1-stimuli/group1-block1/fake-group2-b1/encoded_Group2_IMG_0352.jpg,0,encoded_Group2_IMG_0352.jpg,,,,,0.0,60.0,60.0,60.0,,,,,,,,,,,,,,,,,,,,,,,,,,,,,,,,,,,,,947.5912047997116,None,947.5912047997116,None,947.5912047997116,None,2.0,2.5460952520370483,947.5912047997116,None,947.5912047997116,None,2.0,3.4023359837010503,949.694161362946,None,947.5912047997116,None,4.0,4.240906238555908,950.5595222003758,None,947.5912047997116,None,space,0.4277905859053135,4.267269250936806,None,947.5912047997116,None,947.5912047997116,None,,,,,,,,,1,2022_May_27_0938,SAR-soap,2021.1.2,
66,Trial # 62,Group1-stimuli/group1-block1/fake-group2-b1/encoded_Group2_IMG_9726.jpg,0,encoded_Group2_IMG_9726.jpg,,,,,0.0,61.0,61.0,61.0,,,,,,,,,,,,,,,,,,,,,,,,,,,,,,,,,,,,,952.3095427379012,None,952.3095427379012,None,952.3095427379012,None,7.0,1.7624032497406006,952.3095427379012,None,952.3095427379012,None,7.0,2.386737768538296,953.6279888562858,None,952.3095427379012,None,5.0,4.258043382316828,954.2608794504775,None,952.3095427379012,None,space,0.1806678520515561,4.285025988705456,None,952.3095427379012,None,952.3095427379012,None,,,,,,,,,1,2022_May_27_0938,SAR-soap,2021.1.2,
67,Trial # 63,Group1-stimuli/group1-block1/fake-group2-b1/encoded_Group2_IMG_9785.jpg,0,encoded_Group2_IMG_9785.jpg,,,,,0.0,62.0,62.0,62.0,,,,,,,,,,,,,,,,,,,,,,,,,,,,,,,,,,,,,956.8284493992104,None,956.8284493992104,None,956.8284493992104,None,6.0,1.9119722181931136,956.8284493992104,None,956.8284493992104,None,5.0,2.635044110007584,958.2781735910104,None,956.8284493992104,None,4.0,3.741288980469108,959.012809222564,None,956.8284493992104,None,space,0.2761091189458966,3.765968750230968,None,956.8284493992104,None,956.8284493992104,None,,,,,,,,,1,2022_May_27_0938,SAR-soap,2021.1.2,
68,Trial # 64,Group1-stimuli/group1-block1/fake-group2-b1/encoded_Group2_IMG_0440.jpg,0,encoded_Group2_IMG_0440.jpg,,,,,0.0,63.0,63.0,63.0,,,,,,,,,,,,,,,,,,,,,,,,,,,,,,,,,,,,,960.9130727685988,None,960.9130727685988,None,960.9130727685988,None,6.0,1.6686249151825905,960.9130727685988,None,960.9130727685988,None,6.0,2.1581529593095183,962.1297459201888,None,960.9130727685988,None,4.0,2.928610490635037,962.629503226839,None,960.9130727685988,None,space,0.334168791770935,2.9644060572609305,None,960.9130727685988,None,960.9130727685988,None,,,,,,,,,1,2022_May_27_0938,SAR-soap,2021.1.2,
69,Trial # 65,Group1-stimuli/group1-block1/fake-group2-b1/encoded_Group2_IMG_1695.jpg,0,encoded_Group2_IMG_1695.jpg,,,,,0.0,64.0,64.0,64.0,,,,,,,,,,,,,,,,,,,,,,,,,,,,,,,,,,,,,964.2644448867068,None,964.2644448867068,None,964.2644448867068,None,2.0,2.066824410110712,964.2644448867068,None,964.2644448867068,None,2.0,2.805594184435904,965.8819047398864,None,964.2644448867068,None,4.0,3.977399789728224,966.6315410779788,None,964.2644448867068,None,space,0.3022141009569168,4.009384756907821,None,964.2644448867068,None,964.2644448867068,None,,,,,,,,,1,2022_May_27_0938,SAR-soap,2021.1.2,
70,Trial # 66,Group1-stimuli/group1-block1/real-group1-b1/Group1_IMG_0552.jpg,1,Group1_IMG_0552.jpg,,,,,0.0,65.0,65.0,65.0,,,,,,,,,,,,,,,,,,,,,,,,,,,,,,,,,,,,,968.6326392209156,None,968.6326392209156,None,968.6326392209156,None,2.0,2.469769502058625,968.6326392209156,None,968.6326392209156,None,1.0,3.2258670506998897,970.6492405459284,None,968.6326392209156,None,2.0,4.230872680433095,971.4164751479402,None,968.6326392209156,None,space,0.1960397139191627,4.265033796429634,None,968.6326392209156,None,968.6326392209156,None,,,,,,,,,1,2022_May_27_0938,SAR-soap,2021.1.2,
71,Trial # 67,Group1-stimuli/group1-block1/real-group1-b1/Group1_IMG_1029.jpg,1,Group1_IMG_1029.jpg,,,,,0.0,66.0,66.0,66.0,,,,,,,,,,,,,,,,,,,,,,,,,,,,,,,,,,,,,973.1158321006224,None,973.1158321006224,None,973.1158321006224,None,6.0,1.7022390505298972,973.1158321006224,None,973.1158321006224,None,5.0,2.693298893980682,974.3684379374608,None,973.1158321006224,None,5.0,4.331462977454066,975.3675899282098,None,973.1158321006224,None,space,0.1081829294562339,4.363206787966192,None,973.1158321006224,None,973.1158321006224,None,,,,,,,,,1,2022_May_27_0938,SAR-soap,2021.1.2,
72,Trial # 68,Group1-stimuli/group1-block1/fake-group2-b1/encoded_Group2_IMG_6517.jpg,0,encoded_Group2_IMG_6517.jpg,,,,,0.0,67.0,67.0,67.0,,,,,,,,,,,,,,,,,,,,,,,,,,,,,,,,,,,,,977.6173027595504,None,977.6173027595504,None,977.6173027595504,None,2.0,1.7131642922759056,977.6173027595504,None,977.6173027595504,None,2.0,3.3685769578441978,978.8853412671016,None,977.6173027595504,None,3.0,5.540010306052864,980.5520801041276,None,977.6173027595504,None,space,0.1492288447916507,5.56737385224551,None,977.6173027595504,None,977.6173027595504,None,,,,,,,,,1,2022_May_27_0938,SAR-soap,2021.1.2,
73,Trial # 69,Group1-stimuli/group1-block1/fake-group2-b1/encoded_Group2_IMG_0002.jpg,0,encoded_Group2_IMG_0002.jpg,,,,,0.0,68.0,68.0,68.0,,,,,,,,,,,,,,,,,,,,,,,,,,,,,,,,,,,,,983.3698910204694,None,983.3698910204694,None,983.3698910204694,None,5.0,1.813658540137112,983.3698910204694,None,983.3698910204694,None,6.0,2.7698127944022417,984.738065426238,None,983.3698910204694,None,4.0,3.54127517528832,985.7037054896356,None,983.3698910204694,None,space,0.1984475795179605,3.5677856048569083,None,983.3698910204694,None,983.3698910204694,None,,,,,,,,,1,2022_May_27_0938,SAR-soap,2021.1.2,
74,Trial # 70,Group1-stimuli/group1-block1/real-group1-b1/Group1_IMG_0495.jpg,1,Group1_IMG_0495.jpg,,,,,0.0,69.0,69.0,69.0,,,,,,,,,,,,,,,,,,,,,,,,,,,,,,,,,,,,,987.170992800966,None,987.170992800966,None,987.170992800966,None,2.0,1.630179082043469,987.170992800966,None,987.170992800966,None,1.0,2.65337120462209,988.3541495725513,None,987.170992800966,None,3.0,3.724682266823947,989.3889573616908,None,987.170992800966,None,space,0.1166539639234542,3.7541691614314914,None,987.170992800966,None,987.170992800966,None,,,,,,,,,1,2022_May_27_0938,SAR-soap,2021.1.2,
75,Trial # 71,Group1-stimuli/group1-block1/real-group1-b1/Group1_IMG_1391.jpg,1,Group1_IMG_1391.jpg,,,,,0.0,70.0,70.0,70.0,,,,,,,,,,,,,,,,,,,,,,,,,,,,,,,,,,,,,991.0884545100852,None,991.0884545100852,None,991.0884545100852,None,6.0,1.9117772774770856,991.0884545100852,None,991.0884545100852,None,7.0,2.568737922236324,992.5554538620636,None,991.0884545100852,None,4.0,3.4410002697259188,993.2218074360862,None,991.0884545100852,None,space,0.2108589597046375,3.468223325908184,None,991.0884545100852,None,991.0884545100852,None,,,,,,,,,1,2022_May_27_0938,SAR-soap,2021.1.2,
76,Trial # 72,Group1-stimuli/group1-block1/real-group1-b1/Group1_IMG_0343.jpg,1,Group1_IMG_0343.jpg,,,,,0.0,71.0,71.0,71.0,,,,,,,,,,,,,,,,,,,,,,,,,,,,,,,,,,,,,994.8232187619432,None,994.8232187619432,None,994.8232187619432,None,2.0,1.5928160259500146,994.8232187619432,None,994.8232187619432,None,1.0,2.248184519819916,995.9567490275948,None,994.8232187619432,None,4.0,3.486129396595061,996.6240881104022,None,994.8232187619432,None,space,0.2191724758595228,3.510731724090874,None,994.8232187619432,None,994.8232187619432,None,,,,,,,,,1,2022_May_27_0938,SAR-soap,2021.1.2,
77,Trial # 73,Group1-stimuli/group1-block1/fake-group2-b1/encoded_Group2_IMG_9810.jpg,0,encoded_Group2_IMG_9810.jpg,,,,,0.0,72.0,72.0,72.0,,,,,,,,,,,,,,,,,,,,,,,,,,,,,,,,,,,,,998.5753275034948,None,998.5753275034948,None,998.5753275034948,None,2.0,1.7787958066910503,998.5753275034948,None,998.5753275034948,None,3.0,2.8178495904430747,999.908478949219,None,998.5753275034948,None,1.0,3.5236264588311315,1000.9579872451724,None,998.5753275034948,None,space,0.209864730015397,3.550650294870138,None,998.5753275034948,None,998.5753275034948,None,,,,,,,,,1,2022_May_27_0938,SAR-soap,2021.1.2,
78,Trial # 74,Group1-stimuli/group1-block1/fake-group2-b1/encoded_Group2_IMG_5900.jpg,0,encoded_Group2_IMG_5900.jpg,,,,,0.0,73.0,73.0,73.0,,,,,,,,,,,,,,,,,,,,,,,,,,,,,,,,,,,,,1002.3925035111606,None,1002.3925035111606,None,1002.3925035111606,None,2.0,3.1000333121046424,1002.3925035111606,None,1002.3925035111606,None,1.0,4.988663105294108,1005.0430983901024,None,1002.3925035111606,None,5.0,5.9594927579164505,1006.9440220920368,None,1002.3925035111606,None,space,0.1981221996247768,5.989681849256158,None,1002.3925035111606,None,1002.3925035111606,None,,,,,,,,,1,2022_May_27_0938,SAR-soap,2021.1.2,
79,Trial # 75,Group1-stimuli/group1-block1/real-group1-b1/Group1_IMG_9679.jpg,1,Group1_IMG_9679.jpg,,,,,0.0,74.0,74.0,74.0,,,,,,,,,,,,,,,,,,,,,,,,,,,,,,,,,,,,,1008.6109888199716,None,1008.6109888199716,None,1008.6109888199716,None,2.0,1.772010345943272,1008.6109888199716,None,1008.6109888199716,None,2.0,2.3279903950169683,1009.9285642709584,None,1008.6109888199716,None,4.0,3.2657206002622843,1010.4954720987008,None,1008.6109888199716,None,space,0.296362716704607,3.2859548944979906,None,1008.6109888199716,None,1008.6109888199716,None,,,,,,,,,1,2022_May_27_0938,SAR-soap,2021.1.2,
80,Trial # 76,Group1-stimuli/group1-block1/fake-group2-b1/encoded_Group2_IMG_4249.jpg,0,encoded_Group2_IMG_4249.jpg,,,,,0.0,75.0,75.0,75.0,,,,,,,,,,,,,,,,,,,,,,,,,,,,,,,,,,,,,1012.2119565000758,None,1012.2119565000758,None,1012.2119565000758,None,7.0,2.2305419873446226,1012.2119565000758,None,1012.2119565000758,None,6.0,2.935658901929856,1013.479464164935,None,1012.2119565000758,None,4.0,3.7731606075540185,1014.7135742194952,None,1012.2119565000758,None,space,0.1466633370146155,3.800185437314212,None,1012.2119565000758,None,1012.2119565000758,None,,,,,,,,,1,2022_May_27_0938,SAR-soap,2021.1.2,
81,Trial # 77,Group1-stimuli/group1-block1/fake-group2-b1/encoded_Group2_IMG_0174.jpg,0,encoded_Group2_IMG_0174.jpg,,,,,0.0,76.0,76.0,76.0,,,,,,,,,,,,,,,,,,,,,,,,,,,,,,,,,,,,,1016.2132604438812,None,1016.2132604438812,None,1016.2132604438812,None,2.0,2.627964509651065,1016.2132604438812,None,1016.2132604438812,None,1.0,3.4514717431738973,1018.3816949399188,None,1016.2132604438812,None,3.0,4.756710240617394,1019.2139826901256,None,1016.2132604438812,None,space,0.1618870254606008,4.78289707377553,None,1016.2132604438812,None,1016.2132604438812,None,,,,,,,,,1,2022_May_27_0938,SAR-soap,2021.1.2,
82,Trial # 78,Group1-stimuli/group1-block1/fake-group2-b1/encoded_Group2_IMG_0475.jpg,0,encoded_Group2_IMG_0475.jpg,,,,,0.0,77.0,77.0,77.0,,,,,,,,,,,,,,,,,,,,,,,,,,,,,,,,,,,,,1021.1806242391468,None,1021.1806242391468,None,1021.1806242391468,None,2.0,1.7411018861457703,1021.1806242391468,None,1021.1806242391468,None,1.0,2.2651591189205647,1022.465913515538,None,1021.1806242391468,None,2.0,3.103572497144341,1022.9979540025817,None,1021.1806242391468,None,space,0.0676977867260575,3.1269295420497656,None,1021.1806242391468,None,1021.1806242391468,None,,,,,,,,,1,2022_May_27_0938,SAR-soap,2021.1.2,
83,Trial # 79,Group1-stimuli/group1-block1/fake-group2-b1/encoded_Group2_IMG_9751.jpg,0,encoded_Group2_IMG_9751.jpg,,,,,0.0,78.0,78.0,78.0,,,,,,,,,,,,,,,,,,,,,,,,,,,,,,,,,,,,,1024.4162238966674,None,1024.4162238966674,None,1024.4162238966674,None,6.0,1.7286381870508194,1024.4162238966674,None,1024.4162238966674,None,5.0,2.65051874704659,1025.7005346724764,None,1024.4162238966674,None,4.0,4.724669956602156,1026.63335255906,None,1024.4162238966674,None,space,0.1357134580612182,4.750350907444954,None,1024.4162238966674,None,1024.4162238966674,None,,,,,,,,,1,2022_May_27_0938,SAR-soap,2021.1.2,
84,Trial # 80,Group1-stimuli/group1-block1/fake-group2-b1/encoded_Group2_IMG_0492.jpg,0,encoded_Group2_IMG_0492.jpg,,,,,0.0,79.0,79.0,79.0,,,,,,,,,,,,,,,,,,,,,,,,,,,,,,,,,,,,,1029.3846995979548,None,1029.3846995979548,None,1029.3846995979548,None,2.0,2.0671167206019163,1029.3846995979548,None,1029.3846995979548,None,1.0,2.690151653252542,1031.0019553815946,None,1029.3846995979548,None,2.0,3.3619376132264733,1031.634777837433,None,1029.3846995979548,None,space,0.3031637631356716,3.39384573046118,None,1029.3846995979548,None,1029.3846995979548,None,,,,,,,,,1,2022_May_27_0938,SAR-soap,2021.1.2,
85,Trial # 81,Group1-stimuli/group1-block1/real-group1-b1/Group1_IMG_0535.jpg,1,Group1_IMG_0535.jpg,,,,,0.0,80.0,80.0,80.0,,,,,,,,,,,,,,,,,,,,,,,,,,,,,,,,,,,,,1033.15124709066,None,1033.15124709066,None,1033.15124709066,None,2.0,2.717494759708643,1033.15124709066,None,1033.15124709066,None,4.0,3.590961284004152,1035.420333199203,None,1033.15124709066,None,2.0,4.49553803820163,1036.303524881601,None,1033.15124709066,None,space,0.105394541285932,4.526336450129747,None,1033.15124709066,None,1033.15124709066,None,,,,,,,,,1,2022_May_27_0938,SAR-soap,2021.1.2,
86,Trial # 82,Group1-stimuli/group1-block1/real-group1-b1/Group1_IMG_0077.jpg,1,Group1_IMG_0077.jpg,,,,,0.0,81.0,81.0,81.0,,,,,,,,,,,,,,,,,,,,,,,,,,,,,,,,,,,,,1037.8531499849632,None,1037.8531499849632,None,1037.8531499849632,None,6.0,2.4114242726936936,1037.8531499849632,None,1037.8531499849632,None,7.0,3.433765328489244,1039.8041898868978,None,1037.8531499849632,None,7.0,5.806348066776991,1040.8372480720282,None,1037.8531499849632,None,space,0.2315902663394808,5.831727695651352,None,1037.8531499849632,None,1037.8531499849632,None,,,,,,,,,1,2022_May_27_0938,SAR-soap,2021.1.2,
87,Trial # 83,Group1-stimuli/group1-block1/fake-group2-b1/encoded_Group2_IMG_9702.jpg,0,encoded_Group2_IMG_9702.jpg,,,,,0.0,82.0,82.0,82.0,,,,,,,,,,,,,,,,,,,,,,,,,,,,,,,,,,,,,1043.93909976352,None,1043.93909976352,None,1043.93909976352,None,2.0,13.664061475545168,1043.93909976352,None,1043.93909976352,None,1.0,14.920090340077875,1057.1423627417537,None,1043.93909976352,None,4.0,17.693611685186625,1058.410578098148,None,1043.93909976352,None,space,0.7232930064201355,17.71883375570178,None,1043.93909976352,None,1043.93909976352,None,,,,,,,,,1,2022_May_27_0938,SAR-soap,2021.1.2,
88,Trial # 84,Group1-stimuli/group1-block1/real-group1-b1/Group1_IMG_0357.jpg,1,Group1_IMG_0357.jpg,,,,,0.0,83.0,83.0,83.0,,,,,,,,,,,,,,,,,,,,,,,,,,,,,,,,,,,,,1062.410766669549,None,1062.410766669549,None,1062.410766669549,None,2.0,1.693955359980464,1062.410766669549,None,1062.410766669549,None,2.0,2.350612185895443,1063.6455443967134,None,1062.410766669549,None,3.0,5.28775374032557,1064.311262580566,None,1062.410766669549,None,space,0.0715466197580099,5.312473091296852,None,1062.410766669549,None,1062.410766669549,None,,,,,,,,,1,2022_May_27_0938,SAR-soap,2021.1.2,
89,Trial # 85,Group1-stimuli/group1-block1/real-group1-b1/Group1_IMG_9772.jpg,1,Group1_IMG_9772.jpg,,,,,0.0,84.0,84.0,84.0,,,,,,,,,,,,,,,,,,,,,,,,,,,,,,,,,,,,,1067.9447594415396,None,1067.9447594415396,None,1067.9447594415396,None,7.0,1.892269459553063,1067.9447594415396,None,1067.9447594415396,None,7.0,2.514541011303664,1069.3797429120168,None,1067.9447594415396,None,5.0,3.419763598591089,1070.0137694766745,None,1067.9447594415396,None,space,0.1071682386100292,3.4423648612573743,None,1067.9447594415396,None,1067.9447594415396,None,,,,,,,,,1,2022_May_27_0938,SAR-soap,2021.1.2,
90,Trial # 86,Group1-stimuli/group1-block1/real-group1-b1/Group1_IMG_0482.jpg,1,Group1_IMG_0482.jpg,,,,,0.0,85.0,85.0,85.0,,,,,,,,,,,,,,,,,,,,,,,,,,,,,,,,,,,,,1071.5462358053774,None,1071.5462358053774,None,1071.5462358053774,None,2.0,1.714512212201953,1071.5462358053774,None,1071.5462358053774,None,1.0,2.5051574083045125,1072.8135963231323,None,1071.5462358053774,None,5.0,4.443383649922907,1073.6152662420643,None,1071.5462358053774,None,space,0.2488672044128179,4.471064331941307,None,1071.5462358053774,None,1071.5462358053774,None,,,,,,,,,1,2022_May_27_0938,SAR-soap,2021.1.2,
91,Trial # 87,Group1-stimuli/group1-block1/real-group1-b1/Group1_IMG_0299.jpg,1,Group1_IMG_0299.jpg,,,,,0.0,86.0,86.0,86.0,,,,,,,,,,,,,,,,,,,,,,,,,,,,,,,,,,,,,1076.3150480370969,None,1076.3150480370969,None,1076.3150480370969,None,6.0,6.534692789427936,1076.3150480370969,None,1076.3150480370969,None,7.0,7.258922039531171,1082.400364594534,None,1076.3150480370969,None,5.0,8.53146074526012,1083.1338934209198,None,1076.3150480370969,None,space,0.0827106675133109,8.562211361713707,None,1076.3150480370969,None,1076.3150480370969,None,,,,,,,,,1,2022_May_27_0938,SAR-soap,2021.1.2,
92,Trial # 88,Group1-stimuli/group1-block1/fake-group2-b1/encoded_Group2_IMG_0301.jpg,0,encoded_Group2_IMG_0301.jpg,,,,,0.0,87.0,87.0,87.0,,,,,,,,,,,,,,,,,,,,,,,,,,,,,,,,,,,,,1085.0021357014775,None,1085.0021357014775,None,1085.0021357014775,None,7.0,1.847686146385968,1085.0021357014775,None,1085.0021357014775,None,7.0,2.4704951466992497,1086.4020950952545,None,1085.0021357014775,None,6.0,3.0778707107529044,1087.035118751228,None,1085.0021357014775,None,space,0.1289016911759972,3.1054069250822067,None,1085.0021357014775,None,1085.0021357014775,None,,,,,,,,,1,2022_May_27_0938,SAR-soap,2021.1.2,
93,Trial # 89,Group1-stimuli/group1-block1/fake-group2-b1/encoded_Group2_IMG_5136.jpg,0,encoded_Group2_IMG_5136.jpg,,,,,0.0,88.0,88.0,88.0,,,,,,,,,,,,,,,,,,,,,,,,,,,,,,,,,,,,,1088.2691183686256,None,1088.2691183686256,None,1088.2691183686256,None,7.0,2.6480000494048,1088.2691183686256,None,1088.2691183686256,None,6.0,3.4047579346224666,1090.470863994211,None,1088.2691183686256,None,5.0,5.442739557474852,1091.236570908688,None,1088.2691183686256,None,space,0.4138790853321552,5.471963606774807,None,1088.2691183686256,None,1088.2691183686256,None,,,,,,,,,1,2022_May_27_0938,SAR-soap,2021.1.2,
94,Trial # 90,Group1-stimuli/group1-block1/real-group1-b1/Group1_IMG_0460.jpg,1,Group1_IMG_0460.jpg,,,,,0.0,89.0,89.0,89.0,,,,,,,,,,,,,,,,,,,,,,,,,,,,,,,,,,,,,1094.204808237031,None,1094.204808237031,None,1094.204808237031,None,7.0,2.36813978292048,1094.204808237031,None,1094.204808237031,None,7.0,3.091713260859251,1096.121824794449,None,1094.204808237031,None,5.0,4.3301361333578825,1096.8552492288873,None,1094.204808237031,None,space,0.0841225832700729,4.3621914917603135,None,1094.204808237031,None,1094.204808237031,None,,,,,,,,,1,2022_May_27_0938,SAR-soap,2021.1.2,
95,Trial # 91,Group1-stimuli/group1-block1/fake-group2-b1/encoded_Group2_IMG_0068.jpg,0,encoded_Group2_IMG_0068.jpg,,,,,0.0,90.0,90.0,90.0,,,,,,,,,,,,,,,,,,,,,,,,,,,,,,,,,,,,,1098.6727173756808,None,1098.6727173756808,None,1098.6727173756808,None,7.0,1.5960949435830116,1098.6727173756808,None,1098.6727173756808,None,7.0,2.085721745155752,1099.822262735106,None,1098.6727173756808,None,5.0,2.6559888534247875,1100.3223911076784,None,1098.6727173756808,None,space,0.1390996417030692,2.6827249405905604,None,1098.6727173756808,None,1098.6727173756808,None,,,,,,,,,1,2022_May_27_0938,SAR-soap,2021.1.2,
96,Trial # 92,Group1-stimuli/group1-block1/real-group1-b1/Group1_IMG_0337.jpg,1,Group1_IMG_0337.jpg,,,,,0.0,91.0,91.0,91.0,,,,,,,,,,,,,,,,,,,,,,,,,,,,,,,,,,,,,1101.556149338372,None,1101.556149338372,None,1101.556149338372,None,2.0,1.5306649645790458,1101.556149338372,None,1101.556149338372,None,1.0,2.421431723982096,1102.6397123178467,None,1101.556149338372,None,3.0,3.1608511665835977,1103.540565609932,None,1101.556149338372,None,space,0.2500050701200962,3.1888863891363144,None,1101.556149338372,None,1101.556149338372,None,,,,,,,,,1,2022_May_27_0938,SAR-soap,2021.1.2,
97,Trial # 93,Group1-stimuli/group1-block1/fake-group2-b1/encoded_Group2_IMG_0346.jpg,0,encoded_Group2_IMG_0346.jpg,,,,,0.0,92.0,92.0,92.0,,,,,,,,,,,,,,,,,,,,,,,,,,,,,,,,,,,,,1105.0408911285922,None,1105.0408911285922,None,1105.0408911285922,None,1.0,1.937535517849028,1105.0408911285922,None,1105.0408911285922,None,1.0,2.4590459624305367,1106.5248499754816,None,1105.0408911285922,None,2.0,3.597217549569905,1107.0574992662296,None,1105.0408911285922,None,space,0.1339320596307516,3.616722143255174,None,1105.0408911285922,None,1105.0408911285922,None,,,,,,,,,1,2022_May_27_0938,SAR-soap,2021.1.2,
98,Trial # 94,Group1-stimuli/group1-block1/real-group1-b1/Group1_IMG_4253.jpg,1,Group1_IMG_4253.jpg,,,,,0.0,93.0,93.0,93.0,,,,,,,,,,,,,,,,,,,,,,,,,,,,,,,,,,,,,1108.8593339528888,None,1108.8593339528888,None,1108.8593339528888,None,7.0,1.699637700803578,1108.8593339528888,None,1108.8593339528888,None,7.0,3.255750915966928,1110.108746633865,None,1108.8593339528888,None,4.0,4.527662452310324,1111.6760403448716,None,1108.8593339528888,None,space,0.1498793754726648,4.557154540903866,None,1108.8593339528888,None,1108.8593339528888,None,,,,,,,,,1,2022_May_27_0938,SAR-soap,2021.1.2,
99,Trial # 95,Group1-stimuli/group1-block1/fake-group2-b1/encoded_Group2_IMG_9280.jpg,0,encoded_Group2_IMG_9280.jpg,,,,,0.0,94.0,94.0,94.0,,,,,,,,,,,,,,,,,,,,,,,,,,,,,,,,,,,,,1113.6106028016657,None,1113.6106028016657,None,1113.6106028016657,None,6.0,1.81475102622062,1113.6106028016657,None,1113.6106028016657,None,6.0,4.304613992571831,1114.977551046759,None,1113.6106028016657,None,5.0,4.976364346221089,1115.810418645851,None,1113.6106028016657,None,space,0.2283395687118172,5.005058101378381,None,1113.6106028016657,None,1113.6106028016657,None,,,,,,,,,1,2022_May_27_0938,SAR-soap,2021.1.2,
100,Trial # 96,Group1-stimuli/group1-block1/real-group1-b1/Group1_IMG_0417.jpg,1,Group1_IMG_0417.jpg,,,,,0.0,95.0,95.0,95.0,,,,,,,,,,,,,,,,,,,,,,,,,,,,,,,,,,,,,1118.8788981297985,None,1118.8788981297985,None,1118.8788981297985,None,5.0,1.89504114817828,1118.8788981297985,None,1118.8788981297985,None,5.0,2.6177687775343657,1120.3126713577658,None,1118.8788981297985,None,4.0,3.3575682835653424,1121.045145221986,None,1118.8788981297985,None,space,0.177119243890047,3.3827020190656185,None,1118.8788981297985,None,1118.8788981297985,None,,,,,,,,,1,2022_May_27_0938,SAR-soap,2021.1.2,
101,Trial # 97,Group1-stimuli/group1-block1/fake-group2-b1/encoded_Group2_IMG_9695.jpg,0,encoded_Group2_IMG_9695.jpg,,,,,0.0,96.0,96.0,96.0,,,,,,,,,,,,,,,,,,,,,,,,,,,,,,,,,,,,,1122.479563551955,None,1122.479563551955,None,1122.479563551955,None,1.0,6.286389788612723,1122.479563551955,None,1122.479563551955,None,2.0,7.109367065131664,1128.3152977656573,None,1122.479563551955,None,4.0,9.048062139190732,1129.1479577776045,None,1122.479563551955,None,space,0.1709114471450448,9.080222809687257,None,1122.479563551955,None,1122.479563551955,None,,,,,,,,,1,2022_May_27_0938,SAR-soap,2021.1.2,
102,Trial # 98,Group1-stimuli/group1-block1/real-group1-b1/Group1_IMG_1160.jpg,1,Group1_IMG_1160.jpg,,,,,0.0,97.0,97.0,97.0,,,,,,,,,,,,,,,,,,,,,,,,,,,,,,,,,,,,,1131.7822228455916,None,1131.7822228455916,None,1131.7822228455916,None,7.0,2.6859921030700207,1131.7822228455916,None,1131.7822228455916,None,6.0,3.341971918940544,1134.0174746736884,None,1131.7822228455916,None,5.0,6.147700726054609,1134.6838206117973,None,1131.7822228455916,None,space,1.360759804956615,6.178336765617132,None,1131.7822228455916,None,1131.7822228455916,None,,,,,,,,,1,2022_May_27_0938,SAR-soap,2021.1.2,
103,Trial # 99,Group1-stimuli/group1-block1/real-group1-b1/Group1_IMG_0448.jpg,1,Group1_IMG_0448.jpg,,,,,0.0,98.0,98.0,98.0,,,,,,,,,,,,,,,,,,,,,,,,,,,,,,,,,,,,,1139.3515325933697,None,1139.3515325933697,None,1139.3515325933697,None,6.0,2.849694574251771,1139.3515325933697,None,1139.3515325933697,None,7.0,3.372143207117915,1141.7514567300675,None,1139.3515325933697,None,4.0,4.91246120352298,1142.2853427529335,None,1139.3515325933697,None,space,1.9876038003712893,4.308460371568799,None,1139.3515325933697,None,1139.3515325933697,None,,,,,,,,,1,2022_May_27_0938,SAR-soap,2021.1.2,
104,Trial # 100,Group1-stimuli/group1-block1/fake-group2-b1/encoded_Group2_IMG_0393.jpg,0,encoded_Group2_IMG_0393.jpg,,,,,0.0,99.0,99.0,99.0,,,,,,,,,,,,,,,,,,,,,,,,,,,,,,,,,,,,,1145.6702771000564,None,1145.6702771000564,None,1145.6702771000564,None,6.0,1.9616529485210776,1145.6702771000564,None,1145.6702771000564,None,6.0,2.4514369014650583,1147.187153189443,None,1145.6702771000564,None,5.0,3.1901091132313013,1147.6871616300195,None,1145.6702771000564,None,space,0.1277788998559117,3.2178582223132253,None,1145.6702771000564,None,1145.6702771000564,None,,,,,,,,,1,2022_May_27_0938,SAR-soap,2021.1.2,
105,Trial # 101,Group1-stimuli/group1-block1/real-group1-b1/Group1_IMG_0090.jpg,1,Group1_IMG_0090.jpg,,,,,0.0,100.0,100.0,100.0,,,,,,,,,,,,,,,,,,,,,,,,,,,,,,,,,,,,,1149.0548422839493,None,1149.0548422839493,None,1149.0548422839493,None,1.0,1.732878239825368,1149.0548422839493,None,1149.0548422839493,None,1.0,2.2228872245177627,1150.3395244982094,None,1149.0548422839493,None,2.0,6.394830515608192,1150.8376286020502,None,1149.0548422839493,None,space,0.2375775091350078,6.426165056414902,None,1149.0548422839493,None,1149.0548422839493,None,,,,,,,,,1,2022_May_27_0938,SAR-soap,2021.1.2,
106,Trial # 102,Group1-stimuli/group1-block1/real-group1-b1/Group1_IMG_0310.jpg,1,Group1_IMG_0310.jpg,,,,,0.0,101.0,101.0,101.0,,,,,,,,,,,,,,,,,,,,,,,,,,,,,,,,,,,,,1155.7737594675273,None,1155.7737594675273,None,1155.7737594675273,None,1.0,1.5738968262448907,1155.7737594675273,None,1155.7737594675273,None,1.0,2.09700171276927,1156.889891045168,None,1155.7737594675273,None,1.0,2.80240648239851,1157.4233322292566,None,1155.7737594675273,None,space,0.1367157232016325,2.825802077539265,None,1155.7737594675273,None,1155.7737594675273,None,,,,,,,,,1,2022_May_27_0938,SAR-soap,2021.1.2,
107,Trial # 103,Group1-stimuli/group1-block1/fake-group2-b1/encoded_Group2_IMG_0528.jpg,0,encoded_Group2_IMG_0528.jpg,,,,,0.0,102.0,102.0,102.0,,,,,,,,,,,,,,,,,,,,,,,,,,,,,,,,,,,,,1158.7910447455945,None,1158.7910447455945,None,1158.7910447455945,None,6.0,1.605699623003602,1158.7910447455945,None,1158.7910447455945,None,6.0,2.627593282610178,1159.9418166866526,None,1158.7910447455945,None,5.0,3.468098148703575,1160.9742190381512,None,1158.7910447455945,None,space,0.1571492971852421,3.484656916931272,None,1158.7910447455945,None,1158.7910447455945,None,,,,,,,,,1,2022_May_27_0938,SAR-soap,2021.1.2,
108,Trial # 104,Group1-stimuli/group1-block1/fake-group2-b1/encoded_Group2_IMG_1975.jpg,0,encoded_Group2_IMG_1975.jpg,,,,,0.0,103.0,103.0,103.0,,,,,,,,,,,,,,,,,,,,,,,,,,,,,,,,,,,,,1162.458275893703,None,1162.458275893703,None,1162.458275893703,None,2.0,2.0471301227808,1162.458275893703,None,1162.458275893703,None,2.0,2.736442378722132,1164.0592415016145,None,1162.458275893703,None,2.0,3.309196688234806,1164.7594942012802,None,1162.458275893703,None,space,0.070316856727004,3.3363104658201337,None,1162.458275893703,None,1162.458275893703,None,,,,,,,,,1,2022_May_27_0938,SAR-soap,2021.1.2,
109,Trial # 105,Group1-stimuli/group1-block1/fake-group2-b1/encoded_Group2_IMG_0052.jpg,0,encoded_Group2_IMG_0052.jpg,,,,,0.0,104.0,104.0,104.0,,,,,,,,,,,,,,,,,,,,,,,,,,,,,,,,,,,,,1165.925712093711,None,1165.925712093711,None,1165.925712093711,None,1.0,1.84485671389848,1165.925712093711,None,1165.925712093711,None,1.0,2.8674956345930696,1167.3098065098748,None,1165.925712093711,None,1.0,3.572786499746144,1168.3437639195472,None,1165.925712093711,None,space,0.1284098401665687,3.598747835494578,None,1165.925712093711,None,1165.925712093711,None,,,,,,,,,1,2022_May_27_0938,SAR-soap,2021.1.2,
110,Trial # 106,Group1-stimuli/group1-block1/fake-group2-b1/encoded_Group2_IMG_0225.jpg,0,encoded_Group2_IMG_0225.jpg,,,,,0.0,105.0,105.0,105.0,,,,,,,,,,,,,,,,,,,,,,,,,,,,,,,,,,,,,1169.6611186582595,None,1169.6611186582595,None,1169.6611186582595,None,6.0,1.6299406215548515,1169.6611186582595,None,1169.6611186582595,None,6.0,2.419403968378901,1170.8445998867974,None,1169.6611186582595,None,5.0,3.1233574049547315,1171.6440891502425,None,1169.6611186582595,None,space,0.1238318821415305,3.1517642475664616,None,1169.6611186582595,None,1169.6611186582595,None,,,,,,,,,1,2022_May_27_0938,SAR-soap,2021.1.2,
111,Trial # 107,Group1-stimuli/group1-block1/real-group1-b1/Group1_IMG_2231.jpg,1,Group1_IMG_2231.jpg,,,,,0.0,106.0,106.0,106.0,,,,,,,,,,,,,,,,,,,,,,,,,,,,,,,,,,,,,1172.9774633338675,None,1172.9774633338675,None,1172.9774633338675,None,7.0,2.1865576561540365,1172.9774633338675,None,1172.9774633338675,None,7.0,2.9255956718698144,1174.7126286970451,None,1172.9774633338675,None,5.0,3.864921023137868,1175.4629597701132,None,1172.9774633338675,None,space,0.0650413688272237,3.8979354621842495,None,1172.9774633338675,None,1172.9774633338675,None,,,,,,,,,1,2022_May_27_0938,SAR-soap,2021.1.2,
112,Trial # 108,Group1-stimuli/group1-block1/real-group1-b1/Group1_IMG_0217.jpg,1,Group1_IMG_0217.jpg,,,,,0.0,107.0,107.0,107.0,,,,,,,,,,,,,,,,,,,,,,,,,,,,,,,,,,,,,1176.9630747046322,None,1176.9630747046322,None,1176.9630747046322,None,6.0,1.5907159307971597,1176.9630747046322,None,1176.9630747046322,None,6.0,2.281335319392383,1178.0970343202353,None,1176.9630747046322,None,5.0,2.820896469987929,1178.7966557433829,None,1176.9630747046322,None,space,0.4022239912301302,2.843089400790632,None,1176.9630747046322,None,1176.9630747046322,None,,,,,,,,,1,2022_May_27_0938,SAR-soap,2021.1.2,
113,Trial # 109,Group1-stimuli/group1-block1/real-group1-b1/Group1_IMG_0264.jpg,1,Group1_IMG_0264.jpg,,,,,0.0,108.0,108.0,108.0,,,,,,,,,,,,,,,,,,,,,,,,,,,,,,,,,,,,,1180.2635950669646,None,1180.2635950669646,None,1180.2635950669646,None,7.0,1.6155251674354076,1180.2635950669646,None,1180.2635950669646,None,7.0,2.139588934369385,1181.431387346238,None,1180.2635950669646,None,5.0,3.543440847657621,1181.9641371499747,None,1180.2635950669646,None,space,0.2484030174091458,3.574085768312216,None,1180.2635950669646,None,1180.2635950669646,None,,,,,,,,,1,2022_May_27_0938,SAR-soap,2021.1.2,
114,Trial # 110,Group1-stimuli/group1-block1/fake-group2-b1/encoded_Group2_IMG_0254.jpg,0,encoded_Group2_IMG_0254.jpg,,,,,0.0,109.0,109.0,109.0,,,,,,,,,,,,,,,,,,,,,,,,,,,,,,,,,,,,,1184.1326787080616,None,1184.1326787080616,None,1184.1326787080616,None,2.0,1.9859078144654632,1184.1326787080616,None,1184.1326787080616,None,2.0,3.0427193297073245,1185.666145321913,None,1184.1326787080616,None,4.0,4.080441559664905,1186.7325436184185,None,1184.1326787080616,None,space,0.1506009884178638,4.114861602894962,None,1184.1326787080616,None,1184.1326787080616,None,,,,,,,,,1,2022_May_27_0938,SAR-soap,2021.1.2,
115,Trial # 111,Group1-stimuli/group1-block1/fake-group2-b1/encoded_Group2_IMG_5433.jpg,0,encoded_Group2_IMG_5433.jpg,,,,,0.0,110.0,110.0,110.0,,,,,,,,,,,,,,,,,,,,,,,,,,,,,,,,,,,,,1188.433828870766,None,1188.433828870766,None,1188.433828870766,None,1.0,1.937545446678996,1188.433828870766,None,1188.433828870766,None,2.0,2.758204670622945,1189.9181271689013,None,1188.433828870766,None,1.0,3.5305977053940296,1190.7501762155443,None,1188.433828870766,None,space,0.1034878436475992,3.564783440902829,None,1188.433828870766,None,1188.433828870766,None,,,,,,,,,1,2022_May_27_0938,SAR-soap,2021.1.2,
116,Trial # 112,Group1-stimuli/group1-block1/real-group1-b1/Group1_IMG_0252.jpg,1,Group1_IMG_0252.jpg,,,,,0.0,111.0,111.0,111.0,,,,,,,,,,,,,,,,,,,,,,,,,,,,,,,,,,,,,1192.133946944028,None,1192.133946944028,None,1192.133946944028,None,2.0,1.5039573423564434,1192.133946944028,None,1192.133946944028,None,1.0,2.060682041570544,1193.201233276166,None,1192.133946944028,None,3.0,3.066260968334973,1193.7687273966148,None,1192.133946944028,None,space,0.1071834182366728,3.1013759206980467,None,1192.133946944028,None,1192.133946944028,None,,,,,,,,,1,2022_May_27_0938,SAR-soap,2021.1.2,
117,Trial # 113,Group1-stimuli/group1-block1/real-group1-b1/Group1_IMG_9720.jpg,1,Group1_IMG_9720.jpg,,,,,0.0,112.0,112.0,112.0,,,,,,,,,,,,,,,,,,,,,,,,,,,,,,,,,,,,,1195.4027201384306,None,1195.4027201384306,None,1195.4027201384306,None,7.0,1.5092190820723772,1195.4027201384306,None,1195.4027201384306,None,7.0,2.114210242405534,1196.437062246725,None,1195.4027201384306,None,5.0,3.65503391623497,1197.068768917583,None,1195.4027201384306,None,space,0.2571160662919283,3.678435037843883,None,1195.4027201384306,None,1195.4027201384306,None,,,,,,,,,1,2022_May_27_0938,SAR-soap,2021.1.2,
118,Trial # 114,Group1-stimuli/group1-block1/fake-group2-b1/encoded_Group2_IMG_0550.jpg,0,encoded_Group2_IMG_0550.jpg,,,,,0.0,113.0,113.0,113.0,,,,,,,,,,,,,,,,,,,,,,,,,,,,,,,,,,,,,1199.3530097575858,None,1199.3530097575858,None,1199.3530097575858,None,2.0,1.8125577867031093,1199.3530097575858,None,1199.3530097575858,None,1.0,2.5023072361946106,1200.7206247597933,None,1199.3530097575858,None,2.0,4.573550864122808,1201.4199560554698,None,1199.3530097575858,None,space,0.195998378098011,4.602907679975033,None,1199.3530097575858,None,1199.3530097575858,None,,,,,,,,,1,2022_May_27_0938,SAR-soap,2021.1.2,
119,Trial # 115,Group1-stimuli/group1-block1/real-group1-b1/Group1_IMG_9915.jpg,1,Group1_IMG_9915.jpg,,,,,0.0,114.0,114.0,114.0,,,,,,,,,,,,,,,,,,,,,,,,,,,,,,,,,,,,,1204.2052061632276,None,1204.2052061632276,None,1204.2052061632276,None,2.0,1.5416614394634962,1204.2052061632276,None,1204.2052061632276,None,1.0,2.415225428529084,1205.2887083655223,None,1204.2052061632276,None,3.0,3.285957678221166,1206.1725688539443,None,1204.2052061632276,None,space,0.3418489005416631,3.309265068732202,None,1204.2052061632276,None,1204.2052061632276,None,,,,,,,,,1,2022_May_27_0938,SAR-soap,2021.1.2,
120,Trial # 116,Group1-stimuli/group1-block1/real-group1-b1/Group1_IMG_9850.jpg,1,Group1_IMG_9850.jpg,,,,,0.0,115.0,115.0,115.0,,,,,,,,,,,,,,,,,,,,,,,,,,,,,,,,,,,,,1207.90572922118,None,1207.90572922118,None,1207.90572922118,None,2.0,1.6351550659164786,1207.90572922118,None,1207.90572922118,None,1.0,2.2410075198858976,1209.089484559372,None,1207.90572922118,None,1.0,3.0463777044788003,1209.7071150476113,None,1207.90572922118,None,space,0.1852978924289345,3.0782143296673894,None,1207.90572922118,None,1207.90572922118,None,,,,,,,,,1,2022_May_27_0938,SAR-soap,2021.1.2,
121,Trial # 117,Group1-stimuli/group1-block1/real-group1-b1/Group1_IMG_3579.jpg,1,Group1_IMG_3579.jpg,,,,,0.0,116.0,116.0,116.0,,,,,,,,,,,,,,,,,,,,,,,,,,,,,,,,,,,,,1211.223986887373,None,1211.223986887373,None,1211.223986887373,None,7.0,2.0060777626931667,1211.223986887373,None,1211.223986887373,None,5.0,3.264057940803468,1212.774681086652,None,1211.223986887373,None,4.0,4.001665823161602,1214.0416755480692,None,1211.223986887373,None,space,0.1735859289765358,4.023402489721775,None,1211.223986887373,None,1211.223986887373,None,,,,,,,,,1,2022_May_27_0938,SAR-soap,2021.1.2,
122,Trial # 118,Group1-stimuli/group1-block1/fake-group2-b1/encoded_Group2_IMG_0377.jpg,0,encoded_Group2_IMG_0377.jpg,,,,,0.0,117.0,117.0,117.0,,,,,,,,,,,,,,,,,,,,,,,,,,,,,,,,,,,,,1215.458469309844,None,1215.458469309844,None,1215.458469309844,None,2.0,4.145591824315488,1215.458469309844,None,1215.458469309844,None,1.0,4.76992881577462,1219.1599508821964,None,1215.458469309844,None,2.0,5.475084383040667,1219.7934771021828,None,1215.458469309844,None,space,0.1358281094580888,5.501354527659714,None,1215.458469309844,None,1215.458469309844,None,,,,,,,,,1,2022_May_27_0938,SAR-soap,2021.1.2,
123,Trial # 119,Group1-stimuli/group1-block1/real-group1-b1/Group1_IMG_0469.jpg,1,Group1_IMG_0469.jpg,,,,,0.0,118.0,118.0,118.0,,,,,,,,,,,,,,,,,,,,,,,,,,,,,,,,,,,,,1221.160121390596,None,1221.160121390596,None,1221.160121390596,None,2.0,1.598471887409687,1221.160121390596,None,1221.160121390596,None,1.0,2.455283291637897,1222.309680419974,None,1221.160121390596,None,1.0,3.1289566587656736,1223.1762446304783,None,1221.160121390596,None,space,0.1043206956237554,3.15841618552804,None,1221.160121390596,None,1221.160121390596,None,,,,,,,,,1,2022_May_27_0938,SAR-soap,2021.1.2,
124,Trial # 120,Group1-stimuli/group1-block1/fake-group2-b1/encoded_Group2_IMG_0100.jpg,0,encoded_Group2_IMG_0100.jpg,,,,,0.0,119.0,119.0,119.0,,,,,,,,,,,,,,,,,,,,,,,,,,,,,,,,,,,,,1224.4772449908778,None,1224.4772449908778,None,1224.4772449908778,None,4.0,3.2552461912855506,1224.4772449908778,None,1224.4772449908778,None,4.0,4.111836476251483,1227.2786560067907,None,1224.4772449908778,None,4.0,5.418259862810373,1228.1450063865632,None,1224.4772449908778,None,space,1.447108270600438,5.437087839469314,None,1224.4772449908778,None,1224.4772449908778,None,,,,,,,,,1,2022_May_27_0938,SAR-soap,2021.1.2,
125,Trial # 121,Group1-stimuli/group1-block1/real-group1-b1/Group1_IMG_5359.jpg,1,Group1_IMG_5359.jpg,,,,,0.0,120.0,120.0,120.0,,,,,,,,,,,,,,,,,,,,,,,,,,,,,,,,,,,,,1231.4134106598794,None,1231.4134106598794,None,1231.4134106598794,None,6.0,1.6301986668258903,1231.4134106598794,None,1231.4134106598794,None,4.0,2.219197526574135,1232.5974443638695,None,1231.4134106598794,None,4.0,2.8941368591040373,1233.1970395678654,None,1231.4134106598794,None,space,0.1730800829827785,2.920294553041458,None,1231.4134106598794,None,1231.4134106598794,None,,,,,,,,,1,2022_May_27_0938,SAR-soap,2021.1.2,
126,Trial # 122,Group1-stimuli/group1-block1/fake-group2-b1/encoded_Group2_IMG_0304.jpg,0,encoded_Group2_IMG_0304.jpg,,,,,0.0,121.0,121.0,121.0,,,,,,,,,,,,,,,,,,,,,,,,,,,,,,,,,,,,,1234.5475871032104,None,1234.5475871032104,None,1234.5475871032104,None,7.0,1.479611661285162,1234.5475871032104,None,1234.5475871032104,None,5.0,2.134802943095565,1235.581336658448,None,1234.5475871032104,None,4.0,2.9742200169712305,1236.2483436819166,None,1234.5475871032104,None,space,-0.5170984771102667,3.001553477719426,None,1234.5475871032104,None,1234.5475871032104,None,,,,,,,,,1,2022_May_27_0938,SAR-soap,2021.1.2,
127,Trial # 123,Group1-stimuli/group1-block1/real-group1-b1/Group1_IMG_0306.jpg,1,Group1_IMG_0306.jpg,,,,,0.0,122.0,122.0,122.0,,,,,,,,,,,,,,,,,,,,,,,,,,,,,,,,,,,,,1237.5807559574023,None,1237.5807559574023,None,1237.5807559574023,None,5.0,1.6673239171504974,1237.5807559574023,None,1237.5807559574023,None,7.0,2.623538453131914,1238.7995231887326,None,1237.5807559574023,None,4.0,3.4945279844105244,1239.7657646425068,None,1237.5807559574023,None,space,-3.292099878191948,3.525872922502458,None,1237.5807559574023,None,1237.5807559574023,None,,,,,,,,,1,2022_May_27_0938,SAR-soap,2021.1.2,
128,Trial # 124,Group1-stimuli/group1-block1/real-group1-b1/Group1_IMG_0224.jpg,1,Group1_IMG_0224.jpg,,,,,0.0,123.0,123.0,123.0,,,,,,,,,,,,,,,,,,,,,,,,,,,,,,,,,,,,,1241.1334693608806,None,1241.1334693608806,None,1241.1334693608806,None,7.0,2.182415585033596,1241.1334693608806,None,1241.1334693608806,None,6.0,2.840665142983198,1242.8668340351433,None,1241.1334693608806,None,3.0,3.879761532880366,1243.5336150964722,None,1241.1334693608806,None,space,0.7572872871533036,3.909156795591116,None,1241.1334693608806,None,1241.1334693608806,None,,,,,,,,,1,2022_May_27_0938,SAR-soap,2021.1.2,
129,Trial # 125,Group1-stimuli/group1-block1/real-group1-b1/Group1_IMG_9889.jpg,1,Group1_IMG_9889.jpg,,,,,0.0,124.0,124.0,124.0,,,,,,,,,,,,,,,,,,,,,,,,,,,,,,,,,,,,,1245.8346345396712,None,1245.8346345396712,None,1245.8346345396712,None,1.0,2.399364808574319,1245.8346345396712,None,1245.8346345396712,None,2.0,3.088269399479032,1247.7847937317565,None,1245.8346345396712,None,4.0,3.694358925335109,1248.4851820264012,None,1245.8346345396712,None,space,0.1593396086245775,3.724463874474168,None,1245.8346345396712,None,1245.8346345396712,None,,,,,,,,,1,2022_May_27_0938,SAR-soap,2021.1.2,
130,Trial # 126,Group1-stimuli/group1-block1/real-group1-b1/Group1_IMG_0293.jpg,1,Group1_IMG_0293.jpg,,,,,0.0,125.0,125.0,125.0,,,,,,,,,,,,,,,,,,,,,,,,,,,,,,,,,,,,,1249.7686961963773,None,1249.7686961963773,None,1249.7686961963773,None,1.0,1.8931779200211167,1249.7686961963773,None,1249.7686961963773,None,1.0,2.3159994184970856,1251.2031710259616,None,1249.7686961963773,None,1.0,2.889173279516399,1251.6360589386895,None,1249.7686961963773,None,space,0.2332679135724902,2.9139043977484107,None,1249.7686961963773,None,1249.7686961963773,None,,,,,,,,,1,2022_May_27_0938,SAR-soap,2021.1.2,
131,Trial # 127,Group1-stimuli/group1-block1/fake-group2-b1/encoded_Group2_IMG_0321.jpg,0,encoded_Group2_IMG_0321.jpg,,,,,0.0,126.0,126.0,126.0,,,,,,,,,,,,,,,,,,,,,,,,,,,,,,,,,,,,,1252.9688449660316,None,1252.9688449660316,None,1252.9688449660316,None,2.0,8.442458167672157,1252.9688449660316,None,1252.9688449660316,None,1.0,9.19696103502065,1260.955311045982,None,1252.9688449660316,None,1.0,10.235312561504545,1261.7218806575984,None,1252.9688449660316,None,space,0.1765525275841355,10.255540937185287,None,1252.9688449660316,None,1252.9688449660316,None,,,,,,,,,1,2022_May_27_0938,SAR-soap,2021.1.2,
132,Trial # 128,Group1-stimuli/group1-block1/fake-group2-b1/encoded_Group2_IMG_0400.jpg,0,encoded_Group2_IMG_0400.jpg,,,,,0.0,127.0,127.0,127.0,,,,,,,,,,,,,,,,,,,,,,,,,,,,,,,,,,,,,1263.439169644378,None,1263.439169644378,None,1263.439169644378,None,7.0,1.9974425649270413,1263.439169644378,None,1263.439169644378,None,6.0,2.753357524983585,1264.9909019498157,None,1263.439169644378,None,4.0,3.4245951185002923,1265.757694453001,None,1263.439169644378,None,space,0.212551130913198,3.4525011107325554,None,1263.439169644378,None,1263.439169644378,None,,,,,,,,,1,2022_May_27_0938,SAR-soap,2021.1.2,
133,Trial # 129,Group1-stimuli/group1-block1/fake-group2-b1/encoded_Group2_IMG_0443.jpg,0,encoded_Group2_IMG_0443.jpg,,,,,0.0,128.0,128.0,128.0,,,,,,,,,,,,,,,,,,,,,,,,,,,,,,,,,,,,,1267.1568006854504,None,1267.1568006854504,None,1267.1568006854504,None,7.0,1.55119233392179,1267.1568006854504,None,1267.1568006854504,None,7.0,1.9737965697422624,1268.2575988061726,None,1267.1568006854504,None,7.0,2.5454970886930823,1268.6919630039483,None,1267.1568006854504,None,space,0.1217166054993867,2.5777422916144133,None,1267.1568006854504,None,1267.1568006854504,None,,,,,,,,,1,2022_May_27_0938,SAR-soap,2021.1.2,
134,Trial # 130,Group1-stimuli/group1-block1/fake-group2-b1/encoded_Group2_IMG_0542.jpg,0,encoded_Group2_IMG_0542.jpg,,,,,0.0,129.0,129.0,129.0,,,,,,,,,,,,,,,,,,,,,,,,,,,,,,,,,,,,,1269.8751338208094,None,1269.8751338208094,None,1269.8751338208094,None,2.0,2.329294473864138,1269.8751338208094,None,1269.8751338208094,None,1.0,2.9518169444054365,1271.758390692063,None,1269.8751338208094,None,3.0,3.6894440446048975,1272.3924959730357,None,1269.8751338208094,None,space,0.1595871178433299,3.7166607920080414,None,1269.8751338208094,None,1269.8751338208094,None,,,,,,,,,1,2022_May_27_0938,SAR-soap,2021.1.2,
135,Trial # 131,Group1-stimuli/group1-block1/real-group1-b1/Group1_IMG_0885.jpg,1,Group1_IMG_0885.jpg,,,,,0.0,130.0,130.0,130.0,,,,,,,,,,,,,,,,,,,,,,,,,,,,,,,,,,,,,1273.79355749581,None,1273.79355749581,None,1273.79355749581,None,7.0,1.7167304335162044,1273.79355749581,None,1273.79355749581,None,6.0,2.205000721849501,1275.0608194964009,None,1273.79355749581,None,7.0,3.1441354686394334,1275.560596846044,None,1273.79355749581,None,space,0.4309683488681912,3.174676436930895,None,1273.79355749581,None,1273.79355749581,None,,,,,,,,,1,2022_May_27_0938,SAR-soap,2021.1.2,
136,Trial # 132,Group1-stimuli/group1-block1/real-group1-b1/Group1_IMG_0375.jpg,1,Group1_IMG_0375.jpg,,,,,0.0,131.0,131.0,131.0,,,,,,,,,,,,,,,,,,,,,,,,,,,,,,,,,,,,,1277.4263438647613,None,1277.4263438647613,None,1277.4263438647613,None,1.0,2.000309692695737,1277.4263438647613,None,1277.4263438647613,None,1.0,2.5233665499836206,1278.9777567600831,None,1277.4263438647613,None,2.0,3.1949532087892294,1279.51131835673,None,1277.4263438647613,None,space,0.1623837072402238,3.2248548744246364,None,1277.4263438647613,None,1277.4263438647613,None,,,,,,,,,1,2022_May_27_0938,SAR-soap,2021.1.2,
137,Trial # 133,Group1-stimuli/group1-block1/fake-group2-b1/encoded_Group2_IMG_7351.jpg,0,encoded_Group2_IMG_7351.jpg,,,,,0.0,132.0,132.0,132.0,,,,,,,,,,,,,,,,,,,,,,,,,,,,,,,,,,,,,1280.844897623174,None,1280.844897623174,None,1280.844897623174,None,6.0,2.8859481336548924,1280.844897623174,None,1280.844897623174,None,7.0,5.658186989836395,1283.2790848640725,None,1280.844897623174,None,4.0,6.46300564520061,1286.06335479673,None,1280.844897623174,None,space,0.1254321578890085,6.496489346027374,None,1280.844897623174,None,1280.844897623174,None,,,,,,,,,1,2022_May_27_0938,SAR-soap,2021.1.2,
138,Trial # 134,Group1-stimuli/group1-block1/fake-group2-b1/encoded_Group2_IMG_0416.jpg,0,encoded_Group2_IMG_0416.jpg,,,,,0.0,133.0,133.0,133.0,,,,,,,,,,,,,,,,,,,,,,,,,,,,,,,,,,,,,1287.4809710755944,None,1287.4809710755944,None,1287.4809710755944,None,7.0,1.52107803709805,1287.4809710755944,None,1287.4809710755944,None,7.0,2.1104825334623456,1288.5647918377072,None,1287.4809710755944,None,7.0,2.748670184984803,1289.164663432166,None,1287.4809710755944,None,space,0.1909277038648724,2.783182581886649,None,1287.4809710755944,None,1287.4809710755944,None,,,,,,,,,1,2022_May_27_0938,SAR-soap,2021.1.2,
139,Trial # 135,Group1-stimuli/group1-block1/fake-group2-b1/encoded_Group2_IMG_0139.jpg,0,encoded_Group2_IMG_0139.jpg,,,,,0.0,134.0,134.0,134.0,,,,,,,,,,,,,,,,,,,,,,,,,,,,,,,,,,,,,1290.481104400009,None,1290.481104400009,None,1290.481104400009,None,1.0,7.37914012838155,1290.481104400009,None,1290.481104400009,None,2.0,8.503092630766332,1297.416564926505,None,1290.481104400009,None,1.0,10.14171779807657,1298.5514594409617,None,1290.481104400009,None,space,0.2200041888281703,10.16856056638062,None,1290.481104400009,None,1290.481104400009,None,,,,,,,,,1,2022_May_27_0938,SAR-soap,2021.1.2,
140,Trial # 136,Group1-stimuli/group1-block1/real-group1-b1/Group1_IMG_9677.jpg,1,Group1_IMG_9677.jpg,,,,,0.0,135.0,135.0,135.0,,,,,,,,,,,,,,,,,,,,,,,,,,,,,,,,,,,,,1300.9177765827626,None,1300.9177765827626,None,1300.9177765827626,None,2.0,1.5622637765482068,1300.9177765827626,None,1300.9177765827626,None,2.0,2.251424848102033,1302.0351839195937,None,1300.9177765827626,None,4.0,3.057576176710427,1302.735505886376,None,1300.9177765827626,None,space,0.1724489005282521,3.085801281966269,None,1300.9177765827626,None,1300.9177765827626,None,,,,,,,,,1,2022_May_27_0938,SAR-soap,2021.1.2,
141,Trial # 137,Group1-stimuli/group1-block1/fake-group2-b1/encoded_Group2_IMG_5982.jpg,0,encoded_Group2_IMG_5982.jpg,,,,,0.0,136.0,136.0,136.0,,,,,,,,,,,,,,,,,,,,,,,,,,,,,,,,,,,,,1304.2186301201582,None,1304.2186301201582,None,1304.2186301201582,None,2.0,1.6295050764456391,1304.2186301201582,None,1304.2186301201582,None,1.0,2.9524300256744027,1305.4034529849887,None,1304.2186301201582,None,4.0,4.190169823355973,1306.7367050619796,None,1304.2186301201582,None,space,0.122561939060688,4.218619845807552,None,1304.2186301201582,None,1304.2186301201582,None,,,,,,,,,1,2022_May_27_0938,SAR-soap,2021.1.2,
142,Trial # 138,Group1-stimuli/group1-block1/fake-group2-b1/encoded_Group2_IMG_1144.jpg,0,encoded_Group2_IMG_1144.jpg,,,,,0.0,137.0,137.0,137.0,,,,,,,,,,,,,,,,,,,,,,,,,,,,,,,,,,,,,1308.604329542257,None,1308.604329542257,None,1308.604329542257,None,7.0,1.71176734007895,1308.604329542257,None,1308.604329542257,None,6.0,2.268834199756384,1309.8539641862735,None,1308.604329542257,None,5.0,2.9061567531898618,1310.4212675876915,None,1308.604329542257,None,space,0.2387158786877989,2.932411498390138,None,1308.604329542257,None,1308.604329542257,None,,,,,,,,,1,2022_May_27_0938,SAR-soap,2021.1.2,
143,Trial # 139,Group1-stimuli/group1-block1/fake-group2-b1/encoded_Group2_IMG_0315.jpg,0,encoded_Group2_IMG_0315.jpg,,,,,0.0,138.0,138.0,138.0,,,,,,,,,,,,,,,,,,,,,,,,,,,,,,,,,,,,,1311.8203488280997,None,1311.8203488280997,None,1311.8203488280997,None,2.0,1.911098531447351,1311.8203488280997,None,1311.8203488280997,None,1.0,2.668499663472176,1313.2715250244364,None,1311.8203488280997,None,2.0,3.341615560464561,1314.039600443095,None,1311.8203488280997,None,space,0.146293151192367,3.367930232547224,None,1311.8203488280997,None,1311.8203488280997,None,,,,,,,,,1,2022_May_27_0938,SAR-soap,2021.1.2,
144,Trial # 140,Group1-stimuli/group1-block1/real-group1-b1/Group1_IMG_130.jpg,1,Group1_IMG_130.jpg,,,,,0.0,139.0,139.0,139.0,,,,,,,,,,,,,,,,,,,,,,,,,,,,,,,,,,,,,1315.3723652837798,None,1315.3723652837798,None,1315.3723652837798,None,7.0,1.603371161967516,1315.3723652837798,None,1315.3723652837798,None,6.0,2.1585022266954184,1316.522672961466,None,1315.3723652837798,None,7.0,3.1982168555259705,1317.0893799336627,None,1315.3723652837798,None,space,0.2097541578114032,3.2315579941496253,None,1315.3723652837798,None,1315.3723652837798,None,,,,,,,,,1,2022_May_27_0938,SAR-soap,2021.1.2,
145,Trial # 141,Group1-stimuli/group1-block1/real-group1-b1/Group1_IMG_0024.jpg,1,Group1_IMG_0024.jpg,,,,,0.0,140.0,140.0,140.0,,,,,,,,,,,,,,,,,,,,,,,,,,,,,,,,,,,,,1318.8570961775258,None,1318.8570961775258,None,1318.8570961775258,None,7.0,1.563787717372179,1318.8570961775258,None,1318.8570961775258,None,7.0,2.0196497505530715,1319.9749175012112,None,1318.8570961775258,None,7.0,2.957702272571624,1320.440611761063,None,1318.8570961775258,None,space,0.2699677301570773,2.985478274524212,None,1318.8570961775258,None,1318.8570961775258,None,,,,,,,,,1,2022_May_27_0938,SAR-soap,2021.1.2,
146,Trial # 142,Group1-stimuli/group1-block1/fake-group2-b1/encoded_Group2_IMG_5012.jpg,0,encoded_Group2_IMG_5012.jpg,,,,,0.0,141.0,141.0,141.0,,,,,,,,,,,,,,,,,,,,,,,,,,,,,,,,,,,,,1322.1744472300634,None,1322.1744472300634,None,1322.1744472300634,None,7.0,1.5816196333616972,1322.1744472300634,None,1322.1744472300634,None,6.0,2.071929491125047,1323.3081833533945,None,1322.1744472300634,None,4.0,2.810710182413459,1323.8085409831256,None,1322.1744472300634,None,space,0.3107874626293778,2.838571763597429,None,1322.1744472300634,None,1322.1744472300634,None,,,,,,,,,1,2022_May_27_0938,SAR-soap,2021.1.2,
147,Trial # 143,Group1-stimuli/group1-block1/fake-group2-b1/encoded_Group2_IMG_0209.jpg,0,encoded_Group2_IMG_0209.jpg,,,,,0.0,142.0,142.0,142.0,,,,,,,,,,,,,,,,,,,,,,,,,,,,,,,,,,,,,1325.4248715518042,None,1325.4248715518042,None,1325.4248715518042,None,1.0,1.7345584770664573,1325.4248715518042,None,1325.4248715518042,None,2.0,2.39012308139354,1326.7091432707384,None,1325.4248715518042,None,4.0,2.9611605079844594,1327.375364668667,None,1325.4248715518042,None,space,0.2061958322301507,2.9938644198700786,None,1325.4248715518042,None,1325.4248715518042,None,,,,,,,,,1,2022_May_27_0938,SAR-soap,2021.1.2,
148,Trial # 144,Group1-stimuli/group1-block1/real-group1-b1/Group1_IMG_0373.jpg,1,Group1_IMG_0373.jpg,,,,,0.0,143.0,143.0,143.0,,,,,,,,,,,,,,,,,,,,,,,,,,,,,,,,,,,,,1328.6764043942094,None,1328.6764043942094,None,1328.6764043942094,None,2.0,2.602511253207922,1328.6764043942094,None,1328.6764043942094,None,2.0,3.6250612242147326,1330.8277001557872,None,1328.6764043942094,None,4.0,4.696602250449359,1331.8610712457448,None,1328.6764043942094,None,space,5.461501593701541,4.729323593899608,None,1328.6764043942094,None,1328.6764043942094,None,,,,,,,,,1,2022_May_27_0938,SAR-soap,2021.1.2,
149,Trial # 145,Group1-stimuli/group1-block1/real-group1-b1/Group1_IMG_5899.jpg,1,Group1_IMG_5899.jpg,,,,,0.0,144.0,144.0,144.0,,,,,,,,,,,,,,,,,,,,,,,,,,,,,,,,,,,,,1338.8962642997503,None,1338.8962642997503,None,1338.8962642997503,None,2.0,3.784359460696578,1338.8962642997503,None,1338.8962642997503,None,3.0,4.608159061521292,1342.2306012688205,None,1338.8962642997503,None,5.0,5.380593303591013,1343.0635951831937,None,1338.8962642997503,None,space,0.5167520279064775,5.412365037947893,None,1338.8962642997503,None,1338.8962642997503,None,,,,,,,,,1,2022_May_27_0938,SAR-soap,2021.1.2,
150,Trial # 146,Group1-stimuli/group1-block1/real-group1-b1/Group1_IMG_0162.jpg,1,Group1_IMG_0162.jpg,,,,,0.0,145.0,145.0,145.0,,,,,,,,,,,,,,,,,,,,,,,,,,,,,,,,,,,,,1344.8655575076118,None,1344.8655575076118,None,1344.8655575076118,None,7.0,2.8979171831160784,1344.8655575076118,None,1344.8655575076118,None,5.0,3.5210300628095865,1347.3156797802076,None,1344.8655575076118,None,4.0,4.128314747475088,1347.9484364204109,None,1344.8655575076118,None,space,0.2463507447391748,4.1576176434755325,None,1344.8655575076118,None,1344.8655575076118,None,,,,,,,,,1,2022_May_27_0938,SAR-soap,2021.1.2,
151,Trial # 147,Group1-stimuli/group1-block1/real-group1-b1/Group1_IMG_0543.jpg,1,Group1_IMG_0543.jpg,,,,,0.0,146.0,146.0,146.0,,,,,,,,,,,,,,,,,,,,,,,,,,,,,,,,,,,,,1349.316525284201,None,1349.316525284201,None,1349.316525284201,None,2.0,1.8178788805380464,1349.316525284201,None,1349.316525284201,None,3.0,2.4726266637444496,1350.6830927673727,None,1349.316525284201,None,4.0,3.1790079958736897,1351.3495345413685,None,1349.316525284201,None,space,0.2748856358230114,3.2108876453712583,None,1349.316525284201,None,1349.316525284201,None,,,,,,,,,1,2022_May_27_0938,SAR-soap,2021.1.2,
152,Trial # 148,Group1-stimuli/group1-block1/fake-group2-b1/encoded_Group2_IMG_0355.jpg,0,encoded_Group2_IMG_0355.jpg,,,,,0.0,147.0,147.0,147.0,,,,,,,,,,,,,,,,,,,,,,,,,,,,,,,,,,,,,1352.8340095505118,None,1352.8340095505118,None,1352.8340095505118,None,2.0,1.464654991403222,1352.8340095505118,None,1352.8340095505118,None,1.0,1.9871542183682325,1353.8523374507204,None,1352.8340095505118,None,3.0,3.0593012841418386,1354.384375091642,None,1352.8340095505118,None,space,0.3924889713525772,3.087359929457307,None,1352.8340095505118,None,1352.8340095505118,None,,,,,,,,,1,2022_May_27_0938,SAR-soap,2021.1.2,
153,Trial # 149,Group1-stimuli/group1-block1/real-group1-b1/Group1_IMG_9765.jpg,1,Group1_IMG_9765.jpg,,,,,0.0,148.0,148.0,148.0,,,,,,,,,,,,,,,,,,,,,,,,,,,,,,,,,,,,,1356.417904582806,None,1356.417904582806,None,1356.417904582806,None,7.0,1.552528277039528,1356.417904582806,None,1356.417904582806,None,5.0,2.375181361101568,1357.518229308538,None,1356.417904582806,None,4.0,2.9161722669377923,1358.3517893766984,None,1356.417904582806,None,space,0.2711112629622221,2.9489422384649515,None,1356.417904582806,None,1356.417904582806,None,,,,,,,,,1,2022_May_27_0938,SAR-soap,2021.1.2,
154,Trial # 150,Group1-stimuli/group1-block1/fake-group2-b1/encoded_Group2_IMG_1378.jpg,0,encoded_Group2_IMG_1378.jpg,,,,,0.0,149.0,149.0,149.0,,,,,,,,,,,,,,,,,,,,,,,,,,,,,,,,,,,,,1359.6701739942655,None,1359.6701739942655,None,1359.6701739942655,None,7.0,1.7297066384926438,1359.6701739942655,None,1359.6701739942655,None,6.0,2.717800056561828,1360.9534226432445,None,1359.6701739942655,None,3.0,3.524589137174189,1361.9533904986456,None,1359.6701739942655,None,space,0.1877855621278286,3.550870650447905,None,1359.6701739942655,None,1359.6701739942655,None,,,,,,,,,1,2022_May_27_0938,SAR-soap,2021.1.2,
155,Trial # 1,Group1-stimuli/group1-block2/fake-group2-b2/encoded_Group2_IMG_0155.jpg,0,encoded_Group2_IMG_0155.jpg,,,,,,,,,0.0,0.0,0.0,0.0,,,,,,,,,,,,,,,,,,,,,,,,,,,,,,,,,1435.1926597896963,None,1435.1926597896963,None,1435.1926597896963,None,7.0,2.4268412310630083,1435.1926597896963,None,1435.1926597896963,None,6.0,2.9837443474680185,1437.159513763152,None,1435.1926597896963,None,7.0,4.054893773980439,1437.7259598141536,None,1435.1926597896963,None,space,0.1947102146223187,4.080813809297979,None,1435.1926597896963,None,1435.1926597896963,None,1431.9582028407604,None,1431.9582028407604,None,1431.9582028407604,None,1362.9366847779602,None,1,2022_May_27_0938,SAR-soap,2021.1.2,
156,Trial # 2,Group1-stimuli/group1-block2/real-group1-b2/Group1_IMG_0519.jpg,1,Group1_IMG_0519.jpg,,,,,,,,,0.0,1.0,1.0,1.0,,,,,,,,,,,,,,,,,,,,,,,,,,,,,,,,,1439.5103690549731,None,1439.5103690549731,None,1439.5103690549731,None,7.0,1.659446886740625,1439.5103690549731,None,1439.5103690549731,None,6.0,2.381432043388486,1440.7121756104752,None,1439.5103690549731,None,6.0,4.319992470555008,1441.4442358324304,None,1439.5103690549731,None,space,0.2103730393573641,4.345146958716214,None,1439.5103690549731,None,1439.5103690549731,None,,,,,,,,,1,2022_May_27_0938,SAR-soap,2021.1.2,
157,Trial # 3,Group1-stimuli/group1-block2/fake-group2-b2/encoded_Group2_IMG_0135.jpg,0,encoded_Group2_IMG_0135.jpg,,,,,,,,,0.0,2.0,2.0,2.0,,,,,,,,,,,,,,,,,,,,,,,,,,,,,,,,,1444.1121731046587,None,1444.1121731046587,None,1444.1121731046587,None,2.0,1.6823504082858562,1444.1121731046587,None,1444.1121731046587,None,1.0,2.270813914947212,1445.3460818920285,None,1444.1121731046587,None,2.0,2.7441639937460423,1445.946117831394,None,1444.1121731046587,None,space,0.3037003651261329,2.772279011085629,None,1444.1121731046587,None,1444.1121731046587,None,,,,,,,,,1,2022_May_27_0938,SAR-soap,2021.1.2,
158,Trial # 4,Group1-stimuli/group1-block2/real-group1-b2/Group1_IMG_5310.jpg,1,Group1_IMG_5310.jpg,,,,,,,,,0.0,3.0,3.0,3.0,,,,,,,,,,,,,,,,,,,,,,,,,,,,,,,,,1447.245683976449,None,1447.245683976449,None,1447.245683976449,None,7.0,1.6462638704106212,1447.245683976449,None,1447.245683976449,None,6.0,2.104290693067014,1448.445902628824,None,1447.245683976449,None,5.0,2.576156751252711,1448.9135701600462,None,1447.245683976449,None,space,0.0798714375123381,2.603302667848766,None,1447.245683976449,None,1447.245683976449,None,,,,,,,,,1,2022_May_27_0938,SAR-soap,2021.1.2,
159,Trial # 5,Group1-stimuli/group1-block2/real-group1-b2/Group1_IMG_0522.jpg,1,Group1_IMG_0522.jpg,,,,,,,,,0.0,4.0,4.0,4.0,,,,,,,,,,,,,,,,,,,,,,,,,,,,,,,,,1450.0971918813884,None,1450.0971918813884,None,1450.0971918813884,None,7.0,1.4939673617482183,1450.0971918813884,None,1450.0971918813884,None,6.0,2.350638290867209,1451.1309864930809,None,1450.0971918813884,None,4.0,3.42162829823792,1451.9979052357376,None,1450.0971918813884,None,space,0.1478372765704989,3.447256709448993,None,1450.0971918813884,None,1450.0971918813884,None,,,,,,,,,1,2022_May_27_0938,SAR-soap,2021.1.2,
160,Trial # 6,Group1-stimuli/group1-block2/fake-group2-b2/encoded_Group2_IMG_0484.jpg,0,encoded_Group2_IMG_0484.jpg,,,,,,,,,0.0,5.0,5.0,5.0,,,,,,,,,,,,,,,,,,,,,,,,,,,,,,,,,1453.7316428972408,None,1453.7316428972408,None,1453.7316428972408,None,2.0,1.5555533664301038,1453.7316428972408,None,1453.7316428972408,None,1.0,2.078845099546016,1454.832913774997,None,1453.7316428972408,None,3.0,2.783611372113228,1455.3659984003752,None,1453.7316428972408,None,space,0.2820825967937708,2.8032949483022094,None,1453.7316428972408,None,1453.7316428972408,None,,,,,,,,,1,2022_May_27_0938,SAR-soap,2021.1.2,
161,Trial # 7,Group1-stimuli/group1-block2/fake-group2-b2/encoded_Group2_IMG_5948.jpg,0,encoded_Group2_IMG_5948.jpg,,,,,,,,,0.0,6.0,6.0,6.0,,,,,,,,,,,,,,,,,,,,,,,,,,,,,,,,,1456.8485043914989,None,1456.8485043914989,None,1456.8485043914989,None,1.0,1.5454513281583786,1456.8485043914989,None,1456.8485043914989,None,3.0,2.3020646814256907,1457.9491273229942,None,1456.8485043914989,None,2.0,2.907415647059679,1458.7168928720057,None,1456.8485043914989,None,space,0.2472276119515299,2.933749884366989,None,1456.8485043914989,None,1456.8485043914989,None,,,,,,,,,1,2022_May_27_0938,SAR-soap,2021.1.2,
162,Trial # 8,Group1-stimuli/group1-block2/fake-group2-b2/encoded_Group2_IMG_3591.jpg,0,encoded_Group2_IMG_3591.jpg,,,,,,,,,0.0,7.0,7.0,7.0,,,,,,,,,,,,,,,,,,,,,,,,,,,,,,,,,1460.0668103657663,None,1460.0668103657663,None,1460.0668103657663,None,2.0,5.6385895274579525,1460.0668103657663,None,1460.0668103657663,None,5.0,7.627806305885315,1465.2696473989636,None,1460.0668103657663,None,3.0,9.335116500966253,1467.2693911949173,None,1460.0668103657663,None,space,0.017966722138226,9.370336825959384,None,1460.0668103657663,None,1460.0668103657663,None,,,,,,,,,1,2022_May_27_0938,SAR-soap,2021.1.2,
163,Trial # 9,Group1-stimuli/group1-block2/real-group1-b2/Group1_IMG_9835.jpg,1,Group1_IMG_9835.jpg,,,,,,,,,0.0,8.0,8.0,8.0,,,,,,,,,,,,,,,,,,,,,,,,,,,,,,,,,1469.4862253060564,None,1469.4862253060564,None,1469.4862253060564,None,1.0,1.9708737256005409,1469.4862253060564,None,1469.4862253060564,None,1.0,2.793803178705275,1471.0208172341809,None,1469.4862253060564,None,2.0,3.8665360463783145,1471.853460593149,None,1469.4862253060564,None,space,0.1879465198144316,3.8999563194811344,None,1469.4862253060564,None,1469.4862253060564,None,,,,,,,,,1,2022_May_27_0938,SAR-soap,2021.1.2,
164,Trial # 10,Group1-stimuli/group1-block2/real-group1-b2/Group1_IMG_0556.jpg,1,Group1_IMG_0556.jpg,,,,,,,,,0.0,9.0,9.0,9.0,,,,,,,,,,,,,,,,,,,,,,,,,,,,,,,,,1473.6215621829033,None,1473.6215621829033,None,1473.6215621829033,None,2.0,4.474142633378506,1473.6215621829033,None,1473.6215621829033,None,4.0,6.397861052304506,1477.6386753525585,None,1473.6215621829033,None,3.0,8.803801025263965,1479.573864882812,None,1473.6215621829033,None,space,0.2312574498355388,8.822992744855583,None,1473.6215621829033,None,1473.6215621829033,None,,,,,,,,,1,2022_May_27_0938,SAR-soap,2021.1.2,
165,Trial # 11,Group1-stimuli/group1-block2/fake-group2-b2/encoded_Group2_IMG_9736.jpg,0,encoded_Group2_IMG_9736.jpg,,,,,,,,,0.0,10.0,10.0,10.0,,,,,,,,,,,,,,,,,,,,,,,,,,,,,,,,,1482.707068644464,None,1482.707068644464,None,1482.707068644464,None,7.0,1.70041732955724,1482.707068644464,None,1482.707068644464,None,7.0,2.356730617582798,1483.9579325132072,None,1482.707068644464,None,7.0,2.962785919196904,1484.6244255648926,None,1482.707068644464,None,space,0.2920549623668194,2.992526419460773,None,1482.707068644464,None,1482.707068644464,None,,,,,,,,,1,2022_May_27_0938,SAR-soap,2021.1.2,
166,Trial # 12,Group1-stimuli/group1-block2/real-group1-b2/Group1_IMG_9867.jpg,1,Group1_IMG_9867.jpg,,,,,,,,,0.0,11.0,11.0,11.0,,,,,,,,,,,,,,,,,,,,,,,,,,,,,,,,,1486.042157557793,None,1486.042157557793,None,1486.042157557793,None,2.0,1.757176609709859,1486.042157557793,None,1486.042157557793,None,1.0,2.313226430676877,1487.341778535396,None,1486.042157557793,None,4.0,3.4192822501063347,1487.9092920431867,None,1486.042157557793,None,space,0.2273501018062234,3.4421292636543512,None,1486.042157557793,None,1486.042157557793,None,,,,,,,,,1,2022_May_27_0938,SAR-soap,2021.1.2,
167,Trial # 13,Group1-stimuli/group1-block2/fake-group2-b2/encoded_Group2_IMG_9886.jpg,0,encoded_Group2_IMG_9886.jpg,,,,,,,,,0.0,12.0,12.0,12.0,,,,,,,,,,,,,,,,,,,,,,,,,,,,,,,,,1489.7430217107758,None,1489.7430217107758,None,1489.7430217107758,None,2.0,2.2926772693172097,1489.7430217107758,None,1489.7430217107758,None,1.0,2.848358037881553,1491.5766752669588,None,1489.7430217107758,None,4.0,3.4865832440555096,1492.1438647322357,None,1489.7430217107758,None,space,0.1403185436502099,3.5085310246795416,None,1489.7430217107758,None,1489.7430217107758,None,,,,,,,,,1,2022_May_27_0938,SAR-soap,2021.1.2,
