,Trial_num,image_path,ground_truth,image_name,demos.thisRepN,demos.thisTrialN,demos.thisN,demos.thisIndex,block_1.thisRepN,block_1.thisTrialN,block_1.thisN,block_1.thisIndex,block_2.thisRepN,block_2.thisTrialN,block_2.thisN,block_2.thisIndex,text_3.started,text_3.stopped,Task.started,Task.stopped,text_10.started,text_10.stopped,key_resp.keys,key_resp.rt,key_resp.started,key_resp.stopped,image_2.started,image_2.stopped,text_5.started,text_5.stopped,image_3.started,image_3.stopped,text_6.started,text_6.stopped,translucency.started,translucency.stopped,see_throughness.started,see_throughness.stopped,glow.started,glow.stopped,key_resp_10.keys,key_resp_10.rt,key_resp_10.started,key_resp_10.stopped,instruction.started,instruction.stopped,text_12.started,text_12.stopped,Trial_number.started,Trial_number.stopped,image.started,image.stopped,Instruction.started,Instruction.stopped,translucency_score.response,translucency_score.rt,translucency_score.started,translucency_score.stopped,Translucency.started,Translucency.stopped,seethroughness_score.response,seethroughness_score.rt,seethroughness_score.started,seethroughness_score.stopped,SeeThroughness.started,SeeThroughness.stopped,glow_score.response,glow_score.rt,glow_score.started,glow_score.stopped,Glow.started,Glow.stopped,to_next.keys,to_next.rt,to_next.started,to_next.stopped,grading_label_left.started,grading_label_left.stopped,grading_label_right.started,grading_label_right.stopped,instruct1.started,instruct1.stopped,instruct2.started,instruct2.stopped,text_4.started,text_4.stopped,text_2.started,text_2.stopped,session,date,expName,psychopyVersion,Unnamed: 94
0,,,,,,,,,,,,,,,,,12.193352047819644,None,16.917321017943323,None,24.118603135924783,None,space,25.2102473359555,29.08674827986397,None,,,,,,,,,,,,,,,,,,,,,,,,,,,,,,,,,,,,,,,,,,,,,,,,,,,,,,,,,,,,,,,1,2022_Apr_08_1211,SAR-soap,2021.1.2,
1,,,,,,,,,,,,,,,,,,,,,,,,,,,54.79470919794403,None,54.79470919794403,None,67.31633524689823,None,67.31633524689823,None,76.45236751087941,None,76.45236751087941,None,76.45236751087941,None,space,25.30855935602449,76.45236751087941,None,,,,,,,,,,,,,,,,,,,,,,,,,,,,,,,,,,,,,,,,,,,,,1,2022_Apr_08_1211,SAR-soap,2021.1.2,
2,Demo 1,demo/Demo_IMG_0974.jpg,demo,Demo_IMG_0974.jpg,0.0,0.0,0.0,0.0,,,,,,,,,,,,,,,,,,,,,,,,,,,,,,,,,,,,,76.45236751087941,None,101.79374992800876,None,105.16048682597466,None,105.16048682597466,None,105.16048682597466,None,3.0,23.52884409204125,105.16048682597466,None,105.16048682597466,None,4.0,31.955174803966656,128.21751345088705,None,105.16048682597466,None,6.0,34.29343828302808,136.65346362791024,None,105.16048682597466,None,space,2.9027071110904217,34.3130191185046,None,105.16048682597466,None,105.16048682597466,None,,,,,,,,,1,2022_Apr_08_1211,SAR-soap,2021.1.2,
3,Demo 2,demo/Demo_IMG_1024.jpg,demo,Demo_IMG_1024.jpg,0.0,1.0,1.0,1.0,,,,,,,,,,,,,,,,,,,,,,,,,,,,,,,,,,,,,,,,,142.4726379190106,None,142.4726379190106,None,142.4726379190106,None,1.0,5.025063174078241,142.4726379190106,None,142.4726379190106,None,1.0,6.247232964960858,147.04044194100425,None,142.4726379190106,None,1.0,7.319871701998636,148.27440902381204,None,142.4726379190106,None,space,1.4290895001031458,7.341861243825406,None,142.4726379190106,None,142.4726379190106,None,,,,,,,,,1,2022_Apr_08_1211,SAR-soap,2021.1.2,
4,Demo 3,demo/Demo_seed_80003.png,demo,Demo_seed_80003.png,0.0,2.0,2.0,2.0,,,,,,,,,,,,,,,,,,,,,,,,,,,,,,,,,,,,,,,,,151.32471069088206,None,151.32471069088206,None,151.32471069088206,None,4.0,6.722524149110541,151.32471069088206,None,151.32471069088206,None,3.0,10.04511323501356,157.59349385695532,None,151.32471069088206,None,6.0,17.01889805891551,160.9274635189213,None,151.32471069088206,None,space,0.5051573170349002,17.0542404523585,None,151.32471069088206,None,151.32471069088206,None,,,,,,,,,1,2022_Apr_08_1211,SAR-soap,2021.1.2,
5,Trial # 1,Group1-stimuli/group1-block1/real-group1-b1/Group1_IMG_0022.jpg,1,Group1_IMG_0022.jpg,,,,,0.0,0.0,0.0,0.0,,,,,,,,,,,,,,,,,,,,,,,,,,,,,,,,,,,,,180.73330393992364,None,180.73330393992364,None,180.73330393992364,None,2.0,6.698306903010234,180.73330393992364,None,180.73330393992364,None,2.0,9.320936992997304,186.9867705639917,None,180.73330393992364,None,3.0,14.427965081995351,189.6197201318573,None,180.73330393992364,None,space,1.0161050781607628,14.45565150422044,None,180.73330393992364,None,180.73330393992364,None,168.8974357820116,None,168.8974357820116,None,168.8974357820116,None,,,1,2022_Apr_08_1211,SAR-soap,2021.1.2,
6,Trial # 2,Group1-stimuli/group1-block1/fake-group2-b1/encoded_Group2_IMG_0386.jpg,0,encoded_Group2_IMG_0386.jpg,,,,,0.0,1.0,1.0,1.0,,,,,,,,,,,,,,,,,,,,,,,,,,,,,,,,,,,,,196.255354027031,None,196.255354027031,None,196.255354027031,None,2.0,4.207719904137775,196.255354027031,None,196.255354027031,None,1.0,5.797754751052707,200.0064648690168,None,196.255354027031,None,4.0,7.53759615519084,201.60776139586235,None,196.255354027031,None,space,1.093190175015479,7.558180389925837,None,196.255354027031,None,196.255354027031,None,,,,,,,,,1,2022_Apr_08_1211,SAR-soap,2021.1.2,
7,Trial # 3,Group1-stimuli/group1-block1/real-group1-b1/Group1_IMG_9704.jpg,1,Group1_IMG_9704.jpg,,,,,0.0,2.0,2.0,2.0,,,,,,,,,,,,,,,,,,,,,,,,,,,,,,,,,,,,,204.94108360703103,None,204.94108360703103,None,204.94108360703103,None,1.0,2.691377582028508,204.94108360703103,None,204.94108360703103,None,1.0,4.097649627132341,207.1766672998201,None,204.94108360703103,None,1.0,5.036757468013093,208.5932873620186,None,204.94108360703103,None,space,1.0205442421138289,5.056580293690786,None,204.94108360703103,None,204.94108360703103,None,,,,,,,,,1,2022_Apr_08_1211,SAR-soap,2021.1.2,
8,Trial # 4,Group1-stimuli/group1-block1/real-group1-b1/Group1_IMG_0406.jpg,1,Group1_IMG_0406.jpg,,,,,0.0,3.0,3.0,3.0,,,,,,,,,,,,,,,,,,,,,,,,,,,,,,,,,,,,,211.0592677609529,None,211.0592677609529,None,211.0592677609529,None,2.0,6.2251933282241225,211.0592677609529,None,211.0592677609529,None,1.0,7.648735780967399,216.8287435988896,None,211.0592677609529,None,3.0,9.253238749923185,218.26241229195148,None,211.0592677609529,None,space,0.3717122110538184,9.274600471602753,None,211.0592677609529,None,211.0592677609529,None,,,,,,,,,1,2022_Apr_08_1211,SAR-soap,2021.1.2,
9,Trial # 5,Group1-stimuli/group1-block1/fake-group2-b1/encoded_Group2_IMG_0364.jpg,0,encoded_Group2_IMG_0364.jpg,,,,,0.0,4.0,4.0,4.0,,,,,,,,,,,,,,,,,,,,,,,,,,,,,,,,,,,,,220.7629184848629,None,220.7629184848629,None,220.7629184848629,None,1.0,2.542962421895936,220.7629184848629,None,220.7629184848629,None,1.0,3.249353707069531,222.84726807498373,None,220.7629184848629,None,1.0,4.1544282380491495,223.56360438489355,None,220.7629184848629,None,space,0.977619067998603,4.177727625472471,None,220.7629184848629,None,220.7629184848629,None,,,,,,,,,1,2022_Apr_08_1211,SAR-soap,2021.1.2,
10,Trial # 6,Group1-stimuli/group1-block1/fake-group2-b1/encoded_Group2_IMG_0407.jpg,0,encoded_Group2_IMG_0407.jpg,,,,,0.0,5.0,5.0,5.0,,,,,,,,,,,,,,,,,,,,,,,,,,,,,,,,,,,,,225.96403188700788,None,225.96403188700788,None,225.96403188700788,None,1.0,6.94584517320618,225.96403188700788,None,225.96403188700788,None,1.0,8.584040408954024,232.4501509978436,None,225.96403188700788,None,3.0,14.291083591990173,234.100404819008,None,225.96403188700788,None,space,1.702102379873395,13.181318861665204,None,225.96403188700788,None,225.96403188700788,None,,,,,,,,,1,2022_Apr_08_1211,SAR-soap,2021.1.2,
11,Trial # 7,Group1-stimuli/group1-block1/real-group1-b1/Group1_IMG_0428.jpg,1,Group1_IMG_0428.jpg,,,,,0.0,6.0,6.0,6.0,,,,,,,,,,,,,,,,,,,,,,,,,,,,,,,,,,,,,240.9021134248469,None,240.9021134248469,None,240.9021134248469,None,2.0,14.227755770087242,240.9021134248469,None,240.9021134248469,None,2.0,15.48376249987632,254.6733744048979,None,240.9021134248469,None,3.0,17.224387540016323,255.9395788868424,None,240.9021134248469,None,space,0.2712285669986158,17.245895894709975,None,240.9021134248469,None,240.9021134248469,None,,,,,,,,,1,2022_Apr_08_1211,SAR-soap,2021.1.2,
12,Trial # 8,Group1-stimuli/group1-block1/fake-group2-b1/encoded_Group2_IMG_0474.jpg,0,encoded_Group2_IMG_0474.jpg,,,,,0.0,7.0,7.0,7.0,,,,,,,,,,,,,,,,,,,,,,,,,,,,,,,,,,,,,258.4747792419512,None,258.4747792419512,None,258.4747792419512,None,1.0,1.6764222071506083,258.4747792419512,None,258.4747792419512,None,1.0,2.365533075062558,259.69196622702293,None,258.4747792419512,None,1.0,3.135893041966483,260.39207686600275,None,258.4747792419512,None,space,0.4439741820096969,3.1605762008111924,None,258.4747792419512,None,258.4747792419512,None,,,,,,,,,1,2022_Apr_08_1211,SAR-soap,2021.1.2,
13,Trial # 9,Group1-stimuli/group1-block1/fake-group2-b1/encoded_Group2_IMG_1506.jpg,0,encoded_Group2_IMG_1506.jpg,,,,,0.0,8.0,8.0,8.0,,,,,,,,,,,,,,,,,,,,,,,,,,,,,,,,,,,,,262.1264959699474,None,262.1264959699474,None,262.1264959699474,None,5.0,4.157932322006673,262.1264959699474,None,262.1264959699474,None,4.0,5.647900328040123,265.8268157800194,None,262.1264959699474,None,3.0,9.02099630702287,267.3284541328904,None,262.1264959699474,None,space,0.7869941040407866,9.043839562917128,None,262.1264959699474,None,262.1264959699474,None,,,,,,,,,1,2022_Apr_08_1211,SAR-soap,2021.1.2,
14,Trial # 10,Group1-stimuli/group1-block1/real-group1-b1/Group1_IMG_9789.jpg,1,Group1_IMG_9789.jpg,,,,,0.0,9.0,9.0,9.0,,,,,,,,,,,,,,,,,,,,,,,,,,,,,,,,,,,,,271.99529597791843,None,271.99529597791843,None,271.99529597791843,None,1.0,2.8068407881073654,271.99529597791843,None,271.99529597791843,None,1.0,3.994538821047172,274.34615879901685,None,271.99529597791843,None,1.0,9.834359608823434,275.54640224482864,None,271.99529597791843,None,space,0.8836706751026213,9.856998174684122,None,271.99529597791843,None,271.99529597791843,None,,,,,,,,,1,2022_Apr_08_1211,SAR-soap,2021.1.2,
15,Trial # 11,Group1-stimuli/group1-block1/real-group1-b1/Group1_IMG_9778.jpg,1,Group1_IMG_9778.jpg,,,,,0.0,10.0,10.0,10.0,,,,,,,,,,,,,,,,,,,,,,,,,,,,,,,,,,,,,282.7827326369006,None,282.7827326369006,None,282.7827326369006,None,3.0,4.691469635115936,282.7827326369006,None,282.7827326369006,None,2.0,13.048309908015652,287.0177494690288,None,282.7827326369006,None,3.0,14.188572932966052,295.38630014983937,None,282.7827326369006,None,space,0.2658503679558635,14.210106977494434,None,282.7827326369006,None,282.7827326369006,None,,,,,,,,,1,2022_Apr_08_1211,SAR-soap,2021.1.2,
16,Trial # 12,Group1-stimuli/group1-block1/real-group1-b1/Group1_IMG_9813.jpg,1,Group1_IMG_9813.jpg,,,,,0.0,11.0,11.0,11.0,,,,,,,,,,,,,,,,,,,,,,,,,,,,,,,,,,,,,297.2862136459444,None,297.2862136459444,None,297.2862136459444,None,1.0,2.387805493082851,297.2862136459444,None,297.2862136459444,None,1.0,3.377631545998156,299.22023156494834,None,297.2862136459444,None,1.0,6.217075011925772,300.2205707319081,None,297.2862136459444,None,space,0.3151668729260564,6.236908048624173,None,297.2862136459444,None,297.2862136459444,None,,,,,,,,,1,2022_Apr_08_1211,SAR-soap,2021.1.2,
17,Trial # 13,Group1-stimuli/group1-block1/real-group1-b1/Group1_IMG_0516.jpg,1,Group1_IMG_0516.jpg,,,,,0.0,12.0,12.0,12.0,,,,,,,,,,,,,,,,,,,,,,,,,,,,,,,,,,,,,303.8885050190147,None,303.8885050190147,None,303.8885050190147,None,4.0,3.4758498950395733,303.8885050190147,None,303.8885050190147,None,2.0,4.66429144795984,306.9063529439736,None,303.8885050190147,None,6.0,6.036514641018584,308.10667055193335,None,303.8885050190147,None,space,1.1124968549702317,6.058319300878793,None,303.8885050190147,None,303.8885050190147,None,,,,,,,,,1,2022_Apr_08_1211,SAR-soap,2021.1.2,
18,Trial # 14,Group1-stimuli/group1-block1/fake-group2-b1/encoded_Group2_IMG_0038.jpg,0,encoded_Group2_IMG_0038.jpg,,,,,0.0,13.0,13.0,13.0,,,,,,,,,,,,,,,,,,,,,,,,,,,,,,,,,,,,,311.1073983600363,None,311.1073983600363,None,311.1073983600363,None,2.0,4.493551443098113,311.1073983600363,None,311.1073983600363,None,2.0,6.783345179166645,315.1416720598936,None,311.1073983600363,None,4.0,8.088406693888828,316.576566276839,None,311.1073983600363,None,space,0.4115881929174065,8.111860616831109,None,311.1073983600363,None,311.1073983600363,None,,,,,,,,,1,2022_Apr_08_1211,SAR-soap,2021.1.2,
19,Trial # 15,Group1-stimuli/group1-block1/real-group1-b1/Group1_IMG_5984.jpg,1,Group1_IMG_5984.jpg,,,,,0.0,14.0,14.0,14.0,,,,,,,,,,,,,,,,,,,,,,,,,,,,,,,,,,,,,319.6761462178547,None,319.6761462178547,None,319.6761462178547,None,1.0,2.1946533450391144,319.6761462178547,None,319.6761462178547,None,1.0,3.183491095900536,321.4115865288768,None,319.6761462178547,None,1.0,4.455236681969836,322.41120048984885,None,319.6761462178547,None,space,0.3401523130014539,4.479849815834314,None,319.6761462178547,None,319.6761462178547,None,,,,,,,,,1,2022_Apr_08_1211,SAR-soap,2021.1.2,
20,Trial # 16,Group1-stimuli/group1-block1/real-group1-b1/Group1_IMG_0383.jpg,1,Group1_IMG_0383.jpg,,,,,0.0,15.0,15.0,15.0,,,,,,,,,,,,,,,,,,,,,,,,,,,,,,,,,,,,,324.54494216595776,None,324.54494216595776,None,324.54494216595776,None,4.0,8.326074689859524,324.54494216595776,None,324.54494216595776,None,2.0,6.930627560941503,328.82977020787075,None,324.54494216595776,None,5.0,9.104960055090489,331.0301330408547,None,324.54494216595776,None,space,0.4755802580621093,9.125666896812618,None,324.54494216595776,None,324.54494216595776,None,,,,,,,,,1,2022_Apr_08_1211,SAR-soap,2021.1.2,
21,Trial # 17,Group1-stimuli/group1-block1/fake-group2-b1/encoded_Group2_IMG_0456.jpg,0,encoded_Group2_IMG_0456.jpg,,,,,0.0,16.0,16.0,16.0,,,,,,,,,,,,,,,,,,,,,,,,,,,,,,,,,,,,,334.1982635268941,None,334.1982635268941,None,334.1982635268941,None,3.0,3.027331113116816,334.1982635268941,None,334.1982635268941,None,1.0,8.551769455894828,336.7662898940034,None,334.1982635268941,None,3.0,12.457516399910672,338.5662102350034,None,334.1982635268941,None,space,1.416510642040521,12.482123930705711,None,334.1982635268941,None,334.1982635268941,None,,,,,,,,,1,2022_Apr_08_1211,SAR-soap,2021.1.2,
22,Trial # 18,Group1-stimuli/group1-block1/fake-group2-b1/encoded_Group2_IMG_8390.jpg,0,encoded_Group2_IMG_8390.jpg,,,,,0.0,17.0,17.0,17.0,,,,,,,,,,,,,,,,,,,,,,,,,,,,,,,,,,,,,348.236191226868,None,348.236191226868,None,348.236191226868,None,2.0,6.814998203888536,348.236191226868,None,348.236191226868,None,1.0,7.936611003940925,354.604186730925,None,348.236191226868,None,4.0,9.07636902295053,355.73712850688025,None,348.236191226868,None,space,0.3544954091776162,9.104149733670056,None,348.236191226868,None,348.236191226868,None,,,,,,,,,1,2022_Apr_08_1211,SAR-soap,2021.1.2,
23,Trial # 19,Group1-stimuli/group1-block1/real-group1-b1/Group1_IMG_0011.jpg,1,Group1_IMG_0011.jpg,,,,,0.0,18.0,18.0,18.0,,,,,,,,,,,,,,,,,,,,,,,,,,,,,,,,,,,,,357.7389342780225,None,357.7389342780225,None,357.7389342780225,None,2.0,2.710872020106762,357.7389342780225,None,357.7389342780225,None,2.0,4.534600612940267,359.98982931301,None,357.7389342780225,None,4.0,7.506462472956628,361.8242857470177,None,357.7389342780225,None,space,0.3233148399740457,7.531737098935991,None,357.7389342780225,None,357.7389342780225,None,,,,,,,,,1,2022_Apr_08_1211,SAR-soap,2021.1.2,
24,Trial # 20,Group1-stimuli/group1-block1/fake-group2-b1/encoded_Group2_IMG_0328.jpg,0,encoded_Group2_IMG_0328.jpg,,,,,0.0,19.0,19.0,19.0,,,,,,,,,,,,,,,,,,,,,,,,,,,,,,,,,,,,,365.6245021659415,None,365.6245021659415,None,365.6245021659415,None,1.0,2.901183117879554,365.6245021659415,None,365.6245021659415,None,1.0,3.756191893946379,368.0757711539045,None,365.6245021659415,None,1.0,5.661398676922545,368.9422944339458,None,365.6245021659415,None,space,0.2479150879662484,5.692607548320666,None,365.6245021659415,None,365.6245021659415,None,,,,,,,,,1,2022_Apr_08_1211,SAR-soap,2021.1.2,
25,Trial # 21,Group1-stimuli/group1-block1/fake-group2-b1/encoded_Group2_IMG_0163.jpg,0,encoded_Group2_IMG_0163.jpg,,,,,0.0,20.0,20.0,20.0,,,,,,,,,,,,,,,,,,,,,,,,,,,,,,,,,,,,,371.6093963650055,None,371.6093963650055,None,371.6093963650055,None,5.0,3.2615150208584964,371.6093963650055,None,371.6093963650055,None,3.0,5.033691945951432,374.4103052008432,None,371.6093963650055,None,6.0,7.206715067150071,376.1940619270317,None,371.6093963650055,None,space,0.392809378914535,7.230606176890433,None,371.6093963650055,None,371.6093963650055,None,,,,,,,,,1,2022_Apr_08_1211,SAR-soap,2021.1.2,
26,Trial # 22,Group1-stimuli/group1-block1/real-group1-b1/Group1_IMG_9862.jpg,1,Group1_IMG_9862.jpg,,,,,0.0,21.0,21.0,21.0,,,,,,,,,,,,,,,,,,,,,,,,,,,,,,,,,,,,,379.2616744330153,None,379.2616744330153,None,379.2616744330153,None,1.0,2.0046261120587587,379.2616744330153,None,379.2616744330153,None,1.0,2.661485668970272,380.8117394889705,None,379.2616744330153,None,1.0,3.3338041589595377,381.4792964779772,None,379.2616744330153,None,space,0.4322640330065042,3.352243741042912,None,379.2616744330153,None,379.2616744330153,None,,,,,,,,,1,2022_Apr_08_1211,SAR-soap,2021.1.2,
27,Trial # 23,Group1-stimuli/group1-block1/fake-group2-b1/encoded_Group2_IMG_0296.jpg,0,encoded_Group2_IMG_0296.jpg,,,,,0.0,22.0,22.0,22.0,,,,,,,,,,,,,,,,,,,,,,,,,,,,,,,,,,,,,383.096475855913,None,383.096475855913,None,383.096475855913,None,5.0,2.7251786310225725,383.096475855913,None,383.096475855913,None,2.0,4.882834410993382,385.3639943569433,None,383.096475855913,None,4.0,6.288063765969127,387.5315530628432,None,383.096475855913,None,space,1.0861803009174764,6.31169578875415,None,383.096475855913,None,383.096475855913,None,,,,,,,,,1,2022_Apr_08_1211,SAR-soap,2021.1.2,
28,Trial # 24,Group1-stimuli/group1-block1/fake-group2-b1/encoded_Group2_IMG_0503.jpg,0,encoded_Group2_IMG_0503.jpg,,,,,0.0,23.0,23.0,23.0,,,,,,,,,,,,,,,,,,,,,,,,,,,,,,,,,,,,,390.5322164299432,None,390.5322164299432,None,390.5322164299432,None,5.0,4.1443829650525,390.5322164299432,None,390.5322164299432,None,3.0,5.332457189913839,394.2171062659472,None,390.5322164299432,None,6.0,6.7716029121074826,395.4167112649884,None,390.5322164299432,None,space,0.1511200028471648,6.796163312857971,None,390.5322164299432,None,390.5322164299432,None,,,,,,,,,1,2022_Apr_08_1211,SAR-soap,2021.1.2,
29,Trial # 25,Group1-stimuli/group1-block1/fake-group2-b1/encoded_Group2_IMG_9804.jpg,0,encoded_Group2_IMG_9804.jpg,,,,,0.0,24.0,24.0,24.0,,,,,,,,,,,,,,,,,,,,,,,,,,,,,,,,,,,,,397.5009908468928,None,397.5009908468928,None,397.5009908468928,None,1.0,2.029508646810428,397.5009908468928,None,397.5009908468928,None,1.0,2.552254355046898,399.0855735118967,None,397.5009908468928,None,1.0,3.0917237468529493,399.6187232369557,None,397.5009908468928,None,space,0.2746062928345054,3.1188298838678747,None,397.5009908468928,None,397.5009908468928,None,,,,,,,,,1,2022_Apr_08_1211,SAR-soap,2021.1.2,
30,Trial # 26,Group1-stimuli/group1-block1/real-group1-b1/Group1_IMG_0391.jpg,1,Group1_IMG_0391.jpg,,,,,0.0,25.0,25.0,25.0,,,,,,,,,,,,,,,,,,,,,,,,,,,,,,,,,,,,,400.95148556982167,None,400.95148556982167,None,400.95148556982167,None,5.0,7.691843471955508,400.95148556982167,None,400.95148556982167,None,1.0,9.447738219983876,405.3696369549725,None,400.95148556982167,None,2.0,10.787027332000434,409.95529076782987,None,400.95148556982167,None,space,0.2653770439792424,10.808527609799055,None,400.95148556982167,None,400.95148556982167,None,,,,,,,,,1,2022_Apr_08_1211,SAR-soap,2021.1.2,
31,Trial # 27,Group1-stimuli/group1-block1/fake-group2-b1/encoded_Group2_IMG_3584.jpg,0,encoded_Group2_IMG_3584.jpg,,,,,0.0,26.0,26.0,26.0,,,,,,,,,,,,,,,,,,,,,,,,,,,,,,,,,,,,,412.0895153498277,None,412.0895153498277,None,412.0895153498277,None,5.0,3.927041562041268,412.0895153498277,None,412.0895153498277,None,2.0,5.88477647700347,415.5566894428339,None,412.0895153498277,None,4.0,6.723960064118728,417.52364518190734,None,412.0895153498277,None,space,0.2126140717882663,6.746818438405171,None,412.0895153498277,None,412.0895153498277,None,,,,,,,,,1,2022_Apr_08_1211,SAR-soap,2021.1.2,
32,Trial # 28,Group1-stimuli/group1-block1/fake-group2-b1/encoded_Group2_IMG_0434.jpg,0,encoded_Group2_IMG_0434.jpg,,,,,0.0,27.0,27.0,27.0,,,,,,,,,,,,,,,,,,,,,,,,,,,,,,,,,,,,,419.0902478699573,None,419.0902478699573,None,419.0902478699573,None,7.0,3.47611659578979,419.0902478699573,None,419.0902478699573,None,3.0,6.381547805853188,422.1085019269958,None,419.0902478699573,None,5.0,7.955691003007814,425.0255115858745,None,419.0902478699573,None,space,0.200154670048505,7.9796199556440115,None,419.0902478699573,None,419.0902478699573,None,,,,,,,,,1,2022_Apr_08_1211,SAR-soap,2021.1.2,
33,Trial # 29,Group1-stimuli/group1-block1/fake-group2-b1/encoded_Group2_IMG_9575.jpg,0,encoded_Group2_IMG_9575.jpg,,,,,0.0,28.0,28.0,28.0,,,,,,,,,,,,,,,,,,,,,,,,,,,,,,,,,,,,,427.27648727595806,None,427.27648727595806,None,427.27648727595806,None,4.0,2.2457261150702834,427.27648727595806,None,427.27648727595806,None,1.0,4.5515542440116405,429.07813270390034,None,427.27648727595806,None,2.0,5.791683997027576,431.39553469000384,None,427.27648727595806,None,space,0.2447365578263998,5.819093407830223,None,427.27648727595806,None,427.27648727595806,None,,,,,,,,,1,2022_Apr_08_1211,SAR-soap,2021.1.2,
34,Trial # 30,Group1-stimuli/group1-block1/fake-group2-b1/encoded_Group2_IMG_1025.jpg,0,encoded_Group2_IMG_1025.jpg,,,,,0.0,29.0,29.0,29.0,,,,,,,,,,,,,,,,,,,,,,,,,,,,,,,,,,,,,433.39587453589775,None,433.39587453589775,None,433.39587453589775,None,1.0,1.6922539540100845,433.39587453589775,None,433.39587453589775,None,1.0,2.2489195661619306,434.6292721959762,None,433.39587453589775,None,1.0,2.821068716002628,435.19539410690777,None,433.39587453589775,None,space,0.3434195031877607,2.8448852309957147,None,433.39587453589775,None,433.39587453589775,None,,,,,,,,,1,2022_Apr_08_1211,SAR-soap,2021.1.2,
35,Trial # 31,Group1-stimuli/group1-block1/real-group1-b1/Group1_IMG_0502.jpg,1,Group1_IMG_0502.jpg,,,,,0.0,30.0,30.0,30.0,,,,,,,,,,,,,,,,,,,,,,,,,,,,,,,,,,,,,436.6304209909868,None,436.6304209909868,None,436.6304209909868,None,6.0,4.357480610953644,436.6304209909868,None,436.6304209909868,None,3.0,8.048118178965524,440.5311620780267,None,436.6304209909868,None,7.0,9.587066605919972,444.2323727898765,None,436.6304209909868,None,space,0.509024634025991,9.6069980468601,None,436.6304209909868,None,436.6304209909868,None,,,,,,,,,1,2022_Apr_08_1211,SAR-soap,2021.1.2,
36,Trial # 32,Group1-stimuli/group1-block1/real-group1-b1/Group1_IMG_0182.jpg,1,Group1_IMG_0182.jpg,,,,,0.0,31.0,31.0,31.0,,,,,,,,,,,,,,,,,,,,,,,,,,,,,,,,,,,,,446.799418825889,None,446.799418825889,None,446.799418825889,None,6.0,2.787764924112708,446.799418825889,None,446.799418825889,None,3.0,5.612500258022919,449.1345760489348,None,446.799418825889,None,2.0,7.5835427809506655,450.9671546318568,None,446.799418825889,None,space,0.1553921138402074,7.603473572758958,None,446.799418825889,None,446.799418825889,None,,,,,,,,,1,2022_Apr_08_1211,SAR-soap,2021.1.2,
37,Trial # 33,Group1-stimuli/group1-block1/fake-group2-b1/encoded_Group2_IMG_2728.jpg,0,encoded_Group2_IMG_2728.jpg,,,,,0.0,32.0,32.0,32.0,,,,,,,,,,,,,,,,,,,,,,,,,,,,,,,,,,,,,454.584508858854,None,454.584508858854,None,454.584508858854,None,1.0,1.612488480983302,454.584508858854,None,454.584508858854,None,1.0,2.1691340189427137,455.75226426287554,None,454.584508858854,None,1.0,2.67451737402007,456.31907091499306,None,454.584508858854,None,space,0.1901070768944919,2.703589502954856,None,454.584508858854,None,454.584508858854,None,,,,,,,,,1,2022_Apr_08_1211,SAR-soap,2021.1.2,
38,Trial # 34,Group1-stimuli/group1-block1/fake-group2-b1/encoded_Group2_IMG_4867.jpg,0,encoded_Group2_IMG_4867.jpg,,,,,0.0,33.0,33.0,33.0,,,,,,,,,,,,,,,,,,,,,,,,,,,,,,,,,,,,,457.50311231799424,None,457.50311231799424,None,457.50311231799424,None,5.0,3.395539559889585,457.50311231799424,None,457.50311231799424,None,2.0,4.787322071846575,460.4538497149479,None,457.50311231799424,None,7.0,6.057972326176241,461.8540696038399,None,457.50311231799424,None,space,0.3450789100024849,6.085564580745995,None,457.50311231799424,None,457.50311231799424,None,,,,,,,,,1,2022_Apr_08_1211,SAR-soap,2021.1.2,
39,Trial # 35,Group1-stimuli/group1-block1/real-group1-b1/Group1_IMG_9894.jpg,1,Group1_IMG_9894.jpg,,,,,0.0,34.0,34.0,34.0,,,,,,,,,,,,,,,,,,,,,,,,,,,,,,,,,,,,,464.0044617648237,None,464.0044617648237,None,464.0044617648237,None,1.0,1.8606611869763583,464.0044617648237,None,464.0044617648237,None,1.0,2.4825911598745733,465.4056458650157,None,464.0044617648237,None,1.0,3.123291816096753,466.037914711982,None,464.0044617648237,None,space,0.4008822059258818,3.1484745400957763,None,464.0044617648237,None,464.0044617648237,None,,,,,,,,,1,2022_Apr_08_1211,SAR-soap,2021.1.2,
40,Trial # 36,Group1-stimuli/group1-block1/fake-group2-b1/encoded_Group2_IMG_0444.jpg,0,encoded_Group2_IMG_0444.jpg,,,,,0.0,35.0,35.0,35.0,,,,,,,,,,,,,,,,,,,,,,,,,,,,,,,,,,,,,467.589725544909,None,467.589725544909,None,467.589725544909,None,4.0,1.9288253700360656,467.589725544909,None,467.589725544909,None,1.0,3.318185073090717,469.0732191239949,None,467.589725544909,None,2.0,4.5574982590042055,470.4734511899296,None,467.589725544909,None,space,0.1900751029606908,4.586441325722262,None,467.589725544909,None,467.589725544909,None,,,,,,,,,1,2022_Apr_08_1211,SAR-soap,2021.1.2,
41,Trial # 37,Group1-stimuli/group1-block1/real-group1-b1/Group1_IMG_2656.jpg,1,Group1_IMG_2656.jpg,,,,,0.0,36.0,36.0,36.0,,,,,,,,,,,,,,,,,,,,,,,,,,,,,,,,,,,,,472.4070802598726,None,472.4070802598726,None,472.4070802598726,None,1.0,1.767863181885332,472.4070802598726,None,472.4070802598726,None,1.0,2.923181921010837,473.7249030598905,None,472.4070802598726,None,1.0,3.595399199984968,474.8911641249433,None,472.4070802598726,None,space,0.2517553698271513,3.626996817998588,None,472.4070802598726,None,472.4070802598726,None,,,,,,,,,1,2022_Apr_08_1211,SAR-soap,2021.1.2,
42,Trial # 38,Group1-stimuli/group1-block1/real-group1-b1/Group1_IMG_0207.jpg,1,Group1_IMG_0207.jpg,,,,,0.0,37.0,37.0,37.0,,,,,,,,,,,,,,,,,,,,,,,,,,,,,,,,,,,,,476.32463823701255,None,476.32463823701255,None,476.32463823701255,None,1.0,1.9644539600703863,476.32463823701255,None,476.32463823701255,None,1.0,2.6875494809355587,477.8422914848197,None,476.32463823701255,None,2.0,4.626449258066714,478.57544662687,None,476.32463823701255,None,space,0.3246534268837422,4.654870522907004,None,476.32463823701255,None,476.32463823701255,None,,,,,,,,,1,2022_Apr_08_1211,SAR-soap,2021.1.2,
43,Trial # 39,Group1-stimuli/group1-block1/real-group1-b1/Group1_IMG_9638.jpg,1,Group1_IMG_9638.jpg,,,,,0.0,38.0,38.0,38.0,,,,,,,,,,,,,,,,,,,,,,,,,,,,,,,,,,,,,481.3422750870232,None,481.3422750870232,None,481.3422750870232,None,5.0,2.1803352390415967,481.3422750870232,None,481.3422750870232,None,3.0,3.5691924639977515,483.07819199492224,None,481.3422750870232,None,6.0,6.242477136896923,484.4779854249209,None,481.3422750870232,None,space,0.2889418450649827,6.269114766269922,None,481.3422750870232,None,481.3422750870232,None,,,,,,,,,1,2022_Apr_08_1211,SAR-soap,2021.1.2,
44,Trial # 40,Group1-stimuli/group1-block1/real-group1-b1/Group1_IMG_0148.jpg,1,Group1_IMG_0148.jpg,,,,,0.0,39.0,39.0,39.0,,,,,,,,,,,,,,,,,,,,,,,,,,,,,,,,,,,,,487.9451842480339,None,487.9451842480339,None,487.9451842480339,None,6.0,2.440081906039268,487.9451842480339,None,487.9451842480339,None,3.0,5.130616405047476,489.930412641028,None,487.9451842480339,None,2.0,7.034551516873762,492.63091504294425,None,487.9451842480339,None,space,0.2228865919169038,7.056573911570013,None,487.9451842480339,None,487.9451842480339,None,,,,,,,,,1,2022_Apr_08_1211,SAR-soap,2021.1.2,
45,Trial # 41,Group1-stimuli/group1-block1/real-group1-b1/Group1_IMG_2891.jpg,1,Group1_IMG_2891.jpg,,,,,0.0,40.0,40.0,40.0,,,,,,,,,,,,,,,,,,,,,,,,,,,,,,,,,,,,,495.24708806700073,None,495.24708806700073,None,495.24708806700073,None,1.0,1.7542542112059891,495.24708806700073,None,495.24708806700073,None,1.0,2.4102046850603074,496.565093616955,None,495.24708806700073,None,3.0,3.615427783923224,497.2319787279703,None,495.24708806700073,None,space,0.3136442769318819,3.6504179898183793,None,495.24708806700073,None,495.24708806700073,None,,,,,,,,,1,2022_Apr_08_1211,SAR-soap,2021.1.2,
46,Trial # 42,Group1-stimuli/group1-block1/real-group1-b1/Group1_IMG_0157.jpg,1,Group1_IMG_0157.jpg,,,,,0.0,41.0,41.0,41.0,,,,,,,,,,,,,,,,,,,,,,,,,,,,,,,,,,,,,499.2659991700202,None,499.2659991700202,None,499.2659991700202,None,3.0,6.17423632601276,499.2659991700202,None,499.2659991700202,None,2.0,8.213134895078838,501.8679596839938,None,499.2659991700202,None,5.0,10.419846508884802,506.2340788829606,None,499.2659991700202,None,space,0.2392043899744749,10.437964085722342,None,499.2659991700202,None,499.2659991700202,None,,,,,,,,,1,2022_Apr_08_1211,SAR-soap,2021.1.2,
47,Trial # 43,Group1-stimuli/group1-block1/real-group1-b1/Group1_IMG_9833.jpg,1,Group1_IMG_9833.jpg,,,,,0.0,42.0,42.0,42.0,,,,,,,,,,,,,,,,,,,,,,,,,,,,,,,,,,,,,510.0022237058729,None,510.0022237058729,None,510.0022237058729,None,1.0,1.7566712158732116,510.0022237058729,None,510.0022237058729,None,1.0,2.3460935291368514,511.3025832870044,None,510.0022237058729,None,1.0,3.118385831825435,511.9031303778757,None,510.0022237058729,None,space,0.4363682209514081,3.1382231204770505,None,510.0022237058729,None,510.0022237058729,None,,,,,,,,,1,2022_Apr_08_1211,SAR-soap,2021.1.2,
48,Trial # 44,Group1-stimuli/group1-block1/fake-group2-b1/encoded_Group2_IMG_2230.jpg,0,encoded_Group2_IMG_2230.jpg,,,,,0.0,43.0,43.0,43.0,,,,,,,,,,,,,,,,,,,,,,,,,,,,,,,,,,,,,513.6208306800108,None,513.6208306800108,None,513.6208306800108,None,4.0,3.4478155279066414,513.6208306800108,None,513.6208306800108,None,2.0,4.403606066014618,516.621383104939,None,513.6208306800108,None,3.0,6.4766901400871575,517.588011961896,None,513.6208306800108,None,space,0.1703677270561456,6.504337857477367,None,513.6208306800108,None,513.6208306800108,None,,,,,,,,,1,2022_Apr_08_1211,SAR-soap,2021.1.2,
49,Trial # 45,Group1-stimuli/group1-block1/real-group1-b1/Group1_IMG_9966.jpg,1,Group1_IMG_9966.jpg,,,,,0.0,44.0,44.0,44.0,,,,,,,,,,,,,,,,,,,,,,,,,,,,,,,,,,,,,520.372416947037,None,520.372416947037,None,520.372416947037,None,3.0,4.41087429295294,520.372416947037,None,520.372416947037,None,1.0,5.401566378073767,524.3243144529406,None,520.372416947037,None,7.0,6.373213583836332,525.3235722668469,None,520.372416947037,None,space,0.5439555819611996,6.39786896109581,None,520.372416947037,None,520.372416947037,None,,,,,,,,,1,2022_Apr_08_1211,SAR-soap,2021.1.2,
50,Trial # 46,Group1-stimuli/group1-block1/real-group1-b1/Group1_IMG_0239.jpg,1,Group1_IMG_0239.jpg,,,,,0.0,45.0,45.0,45.0,,,,,,,,,,,,,,,,,,,,,,,,,,,,,,,,,,,,,527.3582394539844,None,527.3582394539844,None,527.3582394539844,None,1.0,3.3057972548995167,527.3582394539844,None,527.3582394539844,None,1.0,2.5117812959942967,528.792496124981,None,527.3582394539844,None,1.0,4.44920900487341,529.4253496539313,None,527.3582394539844,None,space,0.2432605868671089,4.470481694675982,None,527.3582394539844,None,527.3582394539844,None,,,,,,,,,1,2022_Apr_08_1211,SAR-soap,2021.1.2,
51,Trial # 47,Group1-stimuli/group1-block1/fake-group2-b1/encoded_Group2_IMG_0536.jpg,0,encoded_Group2_IMG_0536.jpg,,,,,0.0,46.0,46.0,46.0,,,,,,,,,,,,,,,,,,,,,,,,,,,,,,,,,,,,,532.1263811308891,None,532.1263811308891,None,532.1263811308891,None,1.0,2.5765811719466,532.1263811308891,None,532.1263811308891,None,1.0,3.266662748064846,534.2434366329107,None,532.1263811308891,None,1.0,4.002828581025824,534.9431459340267,None,532.1263811308891,None,space,0.2136702190618962,4.029053974896669,None,532.1263811308891,None,532.1263811308891,None,,,,,,,,,1,2022_Apr_08_1211,SAR-soap,2021.1.2,
52,Trial # 48,Group1-stimuli/group1-block1/fake-group2-b1/encoded_Group2_IMG_0521.jpg,0,encoded_Group2_IMG_0521.jpg,,,,,0.0,47.0,47.0,47.0,,,,,,,,,,,,,,,,,,,,,,,,,,,,,,,,,,,,,536.4107282420155,None,536.4107282420155,None,536.4107282420155,None,3.0,5.228534555993974,536.4107282420155,None,536.4107282420155,None,1.0,6.450750793097541,541.177833937807,None,536.4107282420155,None,3.0,7.623490549158305,542.4132869008463,None,536.4107282420155,None,space,0.1429308750666678,7.647600833559409,None,536.4107282420155,None,536.4107282420155,None,,,,,,,,,1,2022_Apr_08_1211,SAR-soap,2021.1.2,
53,Trial # 49,Group1-stimuli/group1-block1/fake-group2-b1/encoded_Group2_IMG_9924.jpg,0,encoded_Group2_IMG_9924.jpg,,,,,0.0,48.0,48.0,48.0,,,,,,,,,,,,,,,,,,,,,,,,,,,,,,,,,,,,,544.2461954248138,None,544.2461954248138,None,544.2461954248138,None,1.0,3.094640708062798,544.2461954248138,None,544.2461954248138,None,1.0,3.716847147094086,546.8815483269282,None,544.2461954248138,None,1.0,4.488636831985787,547.5145182509441,None,544.2461954248138,None,space,0.2891670439857989,4.5123766656033695,None,544.2461954248138,None,544.2461954248138,None,,,,,,,,,1,2022_Apr_08_1211,SAR-soap,2021.1.2,
54,Trial # 50,Group1-stimuli/group1-block1/real-group1-b1/Group1_IMG_9730.jpg,1,Group1_IMG_9730.jpg,,,,,0.0,49.0,49.0,49.0,,,,,,,,,,,,,,,,,,,,,,,,,,,,,,,,,,,,,549.0808737978805,None,549.0808737978805,None,549.0808737978805,None,5.0,2.8566589038819075,549.0808737978805,None,549.0808737978805,None,3.0,3.929249217035249,551.4828316918574,None,549.0808737978805,None,1.0,5.867688158992678,552.5665417099372,None,549.0808737978805,None,space,0.3749513709917664,5.888113085646182,None,549.0808737978805,None,549.0808737978805,None,,,,,,,,,1,2022_Apr_08_1211,SAR-soap,2021.1.2,
55,Trial # 51,Group1-stimuli/group1-block1/real-group1-b1/Group1_IMG_0053.jpg,1,Group1_IMG_0053.jpg,,,,,0.0,50.0,50.0,50.0,,,,,,,,,,,,,,,,,,,,,,,,,,,,,,,,,,,,,555.4000033119228,None,555.4000033119228,None,555.4000033119228,None,1.0,2.1490042249206454,555.4000033119228,None,555.4000033119228,None,1.0,2.905135399894789,557.1011629858986,None,555.4000033119228,None,1.0,4.009793855017051,557.8671309868805,None,555.4000033119228,None,space,0.3229933548718691,4.039495945908129,None,555.4000033119228,None,555.4000033119228,None,,,,,,,,,1,2022_Apr_08_1211,SAR-soap,2021.1.2,
56,Trial # 52,Group1-stimuli/group1-block1/real-group1-b1/Group1_IMG_9698.jpg,1,Group1_IMG_9698.jpg,,,,,0.0,51.0,51.0,51.0,,,,,,,,,,,,,,,,,,,,,,,,,,,,,,,,,,,,,559.8006771439686,None,559.8006771439686,None,559.8006771439686,None,1.0,1.981152368942276,559.8006771439686,None,559.8006771439686,None,1.0,2.671681178966537,561.3344115489163,None,559.8006771439686,None,1.0,3.1769224901217967,562.0352096478455,None,559.8006771439686,None,space,0.4420552910305559,3.205245536984876,None,559.8006771439686,None,559.8006771439686,None,,,,,,,,,1,2022_Apr_08_1211,SAR-soap,2021.1.2,
57,Trial # 53,Group1-stimuli/group1-block1/fake-group2-b1/encoded_Group2_IMG_0553.jpg,0,encoded_Group2_IMG_0553.jpg,,,,,0.0,52.0,52.0,52.0,,,,,,,,,,,,,,,,,,,,,,,,,,,,,,,,,,,,,563.5028512468562,None,563.5028512468562,None,563.5028512468562,None,1.0,2.808757144957781,563.5028512468562,None,563.5028512468562,None,1.0,3.566293278010562,565.8531443970278,None,563.5028512468562,None,1.0,4.271861059824005,566.6199044119567,None,563.5028512468562,None,space,0.2095606380607932,4.295993859646842,None,563.5028512468562,None,563.5028512468562,None,,,,,,,,,1,2022_Apr_08_1211,SAR-soap,2021.1.2,
58,Trial # 54,Group1-stimuli/group1-block1/fake-group2-b1/encoded_Group2_IMG_9758.jpg,0,encoded_Group2_IMG_9758.jpg,,,,,0.0,53.0,53.0,53.0,,,,,,,,,,,,,,,,,,,,,,,,,,,,,,,,,,,,,568.0366584018338,None,568.0366584018338,None,568.0366584018338,None,4.0,2.312127897050232,568.0366584018338,None,568.0366584018338,None,2.0,3.5013525949325413,569.9047318450175,None,568.0366584018338,None,3.0,4.708301031962037,571.1038181178737,None,568.0366584018338,None,space,0.2567500749137252,4.735257177613676,None,568.0366584018338,None,568.0366584018338,None,,,,,,,,,1,2022_Apr_08_1211,SAR-soap,2021.1.2,
59,Trial # 55,Group1-stimuli/group1-block1/fake-group2-b1/encoded_Group2_IMG_0339.jpg,0,encoded_Group2_IMG_0339.jpg,,,,,0.0,54.0,54.0,54.0,,,,,,,,,,,,,,,,,,,,,,,,,,,,,,,,,,,,,573.0715419580229,None,573.0715419580229,None,573.0715419580229,None,1.0,2.8780493589583784,573.0715419580229,None,573.0715419580229,None,1.0,3.467436162987724,575.4891929118894,None,573.0715419580229,None,3.0,4.306496289093047,576.0896950659808,None,573.0715419580229,None,space,0.198345267213881,4.331948306877166,None,573.0715419580229,None,573.0715419580229,None,,,,,,,,,1,2022_Apr_08_1211,SAR-soap,2021.1.2,
60,Trial # 56,Group1-stimuli/group1-block1/real-group1-b1/Group1_IMG_0314.jpg,1,Group1_IMG_0314.jpg,,,,,0.0,55.0,55.0,55.0,,,,,,,,,,,,,,,,,,,,,,,,,,,,,,,,,,,,,577.6234415760264,None,577.6234415760264,None,577.6234415760264,None,1.0,1.8751130159944296,577.6234415760264,None,577.6234415760264,None,1.0,2.4312386920209974,579.040623140987,None,577.6234415760264,None,1.0,3.068962157005444,579.6073833969422,None,577.6234415760264,None,space,0.3218568880110979,3.090295148780569,None,577.6234415760264,None,577.6234415760264,None,,,,,,,,,1,2022_Apr_08_1211,SAR-soap,2021.1.2,
61,Trial # 57,Group1-stimuli/group1-block1/fake-group2-b1/encoded_Group2_IMG_0532.jpg,0,encoded_Group2_IMG_0532.jpg,,,,,0.0,56.0,56.0,56.0,,,,,,,,,,,,,,,,,,,,,,,,,,,,,,,,,,,,,581.0740499228705,None,581.0740499228705,None,581.0740499228705,None,2.0,3.4448003110010177,581.0740499228705,None,581.0740499228705,None,1.0,4.233218646841124,584.059162938036,None,581.0740499228705,None,5.0,5.272985799936578,584.8587526199408,None,581.0740499228705,None,space,0.3342228510882705,5.296777525683865,None,581.0740499228705,None,581.0740499228705,None,,,,,,,,,1,2022_Apr_08_1211,SAR-soap,2021.1.2,
62,Trial # 58,Group1-stimuli/group1-block1/fake-group2-b1/encoded_Group2_IMG_0462.jpg,0,encoded_Group2_IMG_0462.jpg,,,,,0.0,57.0,57.0,57.0,,,,,,,,,,,,,,,,,,,,,,,,,,,,,,,,,,,,,586.7601369370241,None,586.7601369370241,None,586.7601369370241,None,4.0,2.1117166159674525,586.7601369370241,None,586.7601369370241,None,2.0,3.167414537165314,588.4098017539363,None,586.7601369370241,None,3.0,4.305434423033148,589.4770530320238,None,586.7601369370241,None,space,0.16012276802212,4.330237572779879,None,586.7601369370241,None,586.7601369370241,None,,,,,,,,,1,2022_Apr_08_1211,SAR-soap,2021.1.2,
63,Trial # 59,Group1-stimuli/group1-block1/real-group1-b1/Group1_IMG_0172.jpg,1,Group1_IMG_0172.jpg,,,,,0.0,58.0,58.0,58.0,,,,,,,,,,,,,,,,,,,,,,,,,,,,,,,,,,,,,591.27741857199,None,591.27741857199,None,591.27741857199,None,1.0,1.67291382397525,591.27741857199,None,591.27741857199,None,1.0,2.39605464716442,592.4961141450331,None,591.27741857199,None,1.0,3.134332812856883,593.2277991299052,None,591.27741857199,None,space,0.2076425871346146,3.155376700917259,None,591.27741857199,None,591.27741857199,None,,,,,,,,,1,2022_Apr_08_1211,SAR-soap,2021.1.2,
64,Trial # 60,Group1-stimuli/group1-block1/real-group1-b1/Group1_IMG_4841.jpg,1,Group1_IMG_4841.jpg,,,,,0.0,59.0,59.0,59.0,,,,,,,,,,,,,,,,,,,,,,,,,,,,,,,,,,,,,594.6949264118448,None,594.6949264118448,None,594.6949264118448,None,6.0,4.175540026044473,594.6949264118448,None,594.6949264118448,None,2.0,6.481020617997274,598.3981155718211,None,594.6949264118448,None,7.0,7.888180133188143,600.7305366548244,None,594.6949264118448,None,space,0.2305176039226353,7.9104498866945505,None,594.6949264118448,None,594.6949264118448,None,,,,,,,,,1,2022_Apr_08_1211,SAR-soap,2021.1.2,
65,Trial # 61,Group1-stimuli/group1-block1/fake-group2-b1/encoded_Group2_IMG_0352.jpg,0,encoded_Group2_IMG_0352.jpg,,,,,0.0,60.0,60.0,60.0,,,,,,,,,,,,,,,,,,,,,,,,,,,,,,,,,,,,,602.8650275659747,None,602.8650275659747,None,602.8650275659747,None,1.0,1.4423726710956544,602.8650275659747,None,602.8650275659747,None,1.0,2.0650459879543632,603.8477432359941,None,602.8650275659747,None,1.0,2.7037015019450337,604.4818410018925,None,602.8650275659747,None,space,0.1989643601700663,2.727816859493032,None,602.8650275659747,None,602.8650275659747,None,,,,,,,,,1,2022_Apr_08_1211,SAR-soap,2021.1.2,
66,Trial # 62,Group1-stimuli/group1-block1/fake-group2-b1/encoded_Group2_IMG_9726.jpg,0,encoded_Group2_IMG_9726.jpg,,,,,0.0,61.0,61.0,61.0,,,,,,,,,,,,,,,,,,,,,,,,,,,,,,,,,,,,,605.8150532520376,None,605.8150532520376,None,605.8150532520376,None,6.0,2.644789523910731,605.8150532520376,None,605.8150532520376,None,3.0,4.3001926329452544,608.0002887749579,None,605.8150532520376,None,2.0,5.2061105200555176,609.6662221299484,None,605.8150532520376,None,space,0.1877227649092674,5.229814789723605,None,605.8150532520376,None,605.8150532520376,None,,,,,,,,,1,2022_Apr_08_1211,SAR-soap,2021.1.2,
67,Trial # 63,Group1-stimuli/group1-block1/fake-group2-b1/encoded_Group2_IMG_9785.jpg,0,encoded_Group2_IMG_9785.jpg,,,,,0.0,62.0,62.0,62.0,,,,,,,,,,,,,,,,,,,,,,,,,,,,,,,,,,,,,611.2664241329767,None,611.2664241329767,None,611.2664241329767,None,2.0,2.611271640053019,611.2664241329767,None,611.2664241329767,None,1.0,3.916934486012906,613.4178899580147,None,611.2664241329767,None,5.0,5.022579859942198,614.7348913818132,None,611.2664241329767,None,space,0.1674088570289313,5.047033645678312,None,611.2664241329767,None,611.2664241329767,None,,,,,,,,,1,2022_Apr_08_1211,SAR-soap,2021.1.2,
68,Trial # 64,Group1-stimuli/group1-block1/fake-group2-b1/encoded_Group2_IMG_0440.jpg,0,encoded_Group2_IMG_0440.jpg,,,,,0.0,63.0,63.0,63.0,,,,,,,,,,,,,,,,,,,,,,,,,,,,,,,,,,,,,616.5359668498859,None,616.5359668498859,None,616.5359668498859,None,5.0,2.460891224909574,616.5359668498859,None,616.5359668498859,None,2.0,5.034048166824505,618.5366257359274,None,616.5359668498859,None,3.0,6.272226200904697,621.119391174987,None,616.5359668498859,None,space,0.1837947859894484,6.2980243898928165,None,616.5359668498859,None,616.5359668498859,None,,,,,,,,,1,2022_Apr_08_1211,SAR-soap,2021.1.2,
69,Trial # 65,Group1-stimuli/group1-block1/fake-group2-b1/encoded_Group2_IMG_1695.jpg,0,encoded_Group2_IMG_1695.jpg,,,,,0.0,64.0,64.0,64.0,,,,,,,,,,,,,,,,,,,,,,,,,,,,,,,,,,,,,623.0538889910094,None,623.0538889910094,None,623.0538889910094,None,1.0,1.7429788601584733,623.0538889910094,None,623.0538889910094,None,1.0,2.2325952448882163,624.3380902810022,None,623.0538889910094,None,1.0,2.903004595078528,624.837493914878,None,623.0538889910094,None,space,0.2333239251747727,2.928493501851335,None,623.0538889910094,None,623.0538889910094,None,,,,,,,,,1,2022_Apr_08_1211,SAR-soap,2021.1.2,
70,Trial # 66,Group1-stimuli/group1-block1/real-group1-b1/Group1_IMG_0552.jpg,1,Group1_IMG_0552.jpg,,,,,0.0,65.0,65.0,65.0,,,,,,,,,,,,,,,,,,,,,,,,,,,,,,,,,,,,,626.2705908019561,None,626.2705908019561,None,626.2705908019561,None,1.0,2.4923908058553934,626.2705908019561,None,626.2705908019561,None,1.0,3.1470184351783246,628.3056479520164,None,626.2705908019561,None,1.0,4.718634810065851,628.9720288040116,None,626.2705908019561,None,space,0.2154056758154183,4.740951782790944,None,626.2705908019561,None,626.2705908019561,None,,,,,,,,,1,2022_Apr_08_1211,SAR-soap,2021.1.2,
71,Trial # 67,Group1-stimuli/group1-block1/real-group1-b1/Group1_IMG_1029.jpg,1,Group1_IMG_1029.jpg,,,,,0.0,66.0,66.0,66.0,,,,,,,,,,,,,,,,,,,,,,,,,,,,,,,,,,,,,631.2732175199781,None,631.2732175199781,None,631.2732175199781,None,4.0,4.142026244197041,631.2732175199781,None,631.2732175199781,None,1.0,5.564643881982192,634.957506056875,None,631.2732175199781,None,4.0,6.571234380826354,636.3911492468324,None,631.2732175199781,None,space,0.1863986260723322,6.593405019724742,None,631.2732175199781,None,631.2732175199781,None,,,,,,,,,1,2022_Apr_08_1211,SAR-soap,2021.1.2,
72,Trial # 68,Group1-stimuli/group1-block1/fake-group2-b1/encoded_Group2_IMG_6517.jpg,0,encoded_Group2_IMG_6517.jpg,,,,,0.0,67.0,67.0,67.0,,,,,,,,,,,,,,,,,,,,,,,,,,,,,,,,,,,,,638.0926809688099,None,638.0926809688099,None,638.0926809688099,None,1.0,1.6924993451684711,638.0926809688099,None,638.0926809688099,None,1.0,2.282354098977521,639.3253556038253,None,638.0926809688099,None,1.0,3.253261174075305,639.925442317035,None,638.0926809688099,None,space,0.1660435840021819,3.2776891600806266,None,638.0926809688099,None,638.0926809688099,None,,,,,,,,,1,2022_Apr_08_1211,SAR-soap,2021.1.2,
73,Trial # 69,Group1-stimuli/group1-block1/fake-group2-b1/encoded_Group2_IMG_0002.jpg,0,encoded_Group2_IMG_0002.jpg,,,,,0.0,68.0,68.0,68.0,,,,,,,,,,,,,,,,,,,,,,,,,,,,,,,,,,,,,641.5606113539543,None,641.5606113539543,None,641.5606113539543,None,4.0,3.176189242163673,641.5606113539543,None,641.5606113539543,None,1.0,4.232267952058464,644.27779908292,None,641.5606113539543,None,3.0,5.27124861581251,645.3445295619313,None,641.5606113539543,None,space,0.1529372250661254,5.295380483614281,None,641.5606113539543,None,641.5606113539543,None,,,,,,,,,1,2022_Apr_08_1211,SAR-soap,2021.1.2,
74,Trial # 70,Group1-stimuli/group1-block1/real-group1-b1/Group1_IMG_0495.jpg,1,Group1_IMG_0495.jpg,,,,,0.0,69.0,69.0,69.0,,,,,,,,,,,,,,,,,,,,,,,,,,,,,,,,,,,,,647.0447474038228,None,647.0447474038228,None,647.0447474038228,None,1.0,1.640599994920194,647.0447474038228,None,647.0447474038228,None,1.0,2.3632593718357384,648.2288793008775,None,647.0447474038228,None,1.0,3.067183888982981,648.9615299429279,None,647.0447474038228,None,space,0.2683267111424356,3.09027142287232,None,647.0447474038228,None,647.0447474038228,None,,,,,,,,,1,2022_Apr_08_1211,SAR-soap,2021.1.2,
75,Trial # 71,Group1-stimuli/group1-block1/real-group1-b1/Group1_IMG_1391.jpg,1,Group1_IMG_1391.jpg,,,,,0.0,70.0,70.0,70.0,,,,,,,,,,,,,,,,,,,,,,,,,,,,,,,,,,,,,650.4623392149806,None,650.4623392149806,None,650.4623392149806,None,4.0,4.97442742693238,650.4623392149806,None,650.4623392149806,None,2.0,5.929918664973229,654.9811852928251,None,650.4623392149806,None,5.0,7.0691342579666525,655.9472490218468,None,650.4623392149806,None,space,0.17686293204315,7.090799398720264,None,650.4623392149806,None,650.4623392149806,None,,,,,,,,,1,2022_Apr_08_1211,SAR-soap,2021.1.2,
76,Trial # 72,Group1-stimuli/group1-block1/real-group1-b1/Group1_IMG_0343.jpg,1,Group1_IMG_0343.jpg,,,,,0.0,71.0,71.0,71.0,,,,,,,,,,,,,,,,,,,,,,,,,,,,,,,,,,,,,657.7820962879341,None,657.7820962879341,None,657.7820962879341,None,1.0,1.9060840930324048,657.7820962879341,None,657.7820962879341,None,1.0,2.4612611329648644,659.2320234649815,None,657.7820962879341,None,1.0,3.0667495508678257,659.7982894089073,None,657.7820962879341,None,space,0.8512887209653854,3.0882732688914984,None,657.7820962879341,None,657.7820962879341,None,,,,,,,,,1,2022_Apr_08_1211,SAR-soap,2021.1.2,
77,Trial # 73,Group1-stimuli/group1-block1/fake-group2-b1/encoded_Group2_IMG_9810.jpg,0,encoded_Group2_IMG_9810.jpg,,,,,0.0,72.0,72.0,72.0,,,,,,,,,,,,,,,,,,,,,,,,,,,,,,,,,,,,,661.7667530558538,None,661.7667530558538,None,661.7667530558538,None,1.0,1.826419199118391,661.7667530558538,None,661.7667530558538,None,1.0,2.316189124947414,663.1344922059216,None,661.7667530558538,None,1.0,2.7545180830638856,663.633902651025,None,661.7667530558538,None,space,0.2788033089600503,2.778206394519657,None,661.7667530558538,None,661.7667530558538,None,,,,,,,,,1,2022_Apr_08_1211,SAR-soap,2021.1.2,
78,Trial # 74,Group1-stimuli/group1-block1/fake-group2-b1/encoded_Group2_IMG_5900.jpg,0,encoded_Group2_IMG_5900.jpg,,,,,0.0,73.0,73.0,73.0,,,,,,,,,,,,,,,,,,,,,,,,,,,,,,,,,,,,,664.8667740288656,None,664.8667740288656,None,664.8667740288656,None,1.0,1.693160236114636,664.8667740288656,None,664.8667740288656,None,1.0,2.21688429499045,666.1012593449559,None,664.8667740288656,None,2.0,2.9213867450598627,666.6348108458333,None,664.8667740288656,None,space,0.1710321689024567,2.9466108435299248,None,664.8667740288656,None,664.8667740288656,None,,,,,,,,,1,2022_Apr_08_1211,SAR-soap,2021.1.2,
79,Trial # 75,Group1-stimuli/group1-block1/real-group1-b1/Group1_IMG_9679.jpg,1,Group1_IMG_9679.jpg,,,,,0.0,74.0,74.0,74.0,,,,,,,,,,,,,,,,,,,,,,,,,,,,,,,,,,,,,668.0347878488246,None,668.0347878488246,None,668.0347878488246,None,1.0,1.6731537671294063,668.0347878488246,None,668.0347878488246,None,1.0,2.495193732902408,669.2516435419675,None,668.0347878488246,None,1.0,3.4999596409033984,670.0849774258677,None,668.0347878488246,None,space,0.2044005719944834,3.5234083405230194,None,668.0347878488246,None,668.0347878488246,None,,,,,,,,,1,2022_Apr_08_1211,SAR-soap,2021.1.2,
80,Trial # 76,Group1-stimuli/group1-block1/fake-group2-b1/encoded_Group2_IMG_4249.jpg,0,encoded_Group2_IMG_4249.jpg,,,,,0.0,75.0,75.0,75.0,,,,,,,,,,,,,,,,,,,,,,,,,,,,,,,,,,,,,671.8198277568445,None,671.8198277568445,None,671.8198277568445,None,4.0,2.460230481810868,671.8198277568445,None,671.8198277568445,None,2.0,3.449571056989953,673.8204477590043,None,671.8198277568445,None,2.0,6.588710587937385,674.8195330938324,None,671.8198277568445,None,space,0.2718118799384683,6.612677592784166,None,671.8198277568445,None,671.8198277568445,None,,,,,,,,,1,2022_Apr_08_1211,SAR-soap,2021.1.2,
81,Trial # 77,Group1-stimuli/group1-block1/fake-group2-b1/encoded_Group2_IMG_0174.jpg,0,encoded_Group2_IMG_0174.jpg,,,,,0.0,76.0,76.0,76.0,,,,,,,,,,,,,,,,,,,,,,,,,,,,,,,,,,,,,678.7553628799506,None,678.7553628799506,None,678.7553628799506,None,2.0,2.49300689692609,678.7553628799506,None,678.7553628799506,None,1.0,3.416587882908061,680.789423158858,None,678.7553628799506,None,1.0,4.322771198116243,681.7222758438438,None,678.7553628799506,None,space,0.203530206112191,4.346554084913805,None,678.7553628799506,None,678.7553628799506,None,,,,,,,,,1,2022_Apr_08_1211,SAR-soap,2021.1.2,
82,Trial # 78,Group1-stimuli/group1-block1/fake-group2-b1/encoded_Group2_IMG_0475.jpg,0,encoded_Group2_IMG_0475.jpg,,,,,0.0,77.0,77.0,77.0,,,,,,,,,,,,,,,,,,,,,,,,,,,,,,,,,,,,,683.3556183679029,None,683.3556183679029,None,683.3556183679029,None,1.0,1.7584528750739992,683.3556183679029,None,683.3556183679029,None,1.0,2.54852282977663,684.656662727939,None,683.3556183679029,None,1.0,3.085375764872879,685.4559569568373,None,683.3556183679029,None,space,0.484537327196449,3.109774966957048,None,683.3556183679029,None,683.3556183679029,None,,,,,,,,,1,2022_Apr_08_1211,SAR-soap,2021.1.2,
83,Trial # 79,Group1-stimuli/group1-block1/fake-group2-b1/encoded_Group2_IMG_9751.jpg,0,encoded_Group2_IMG_9751.jpg,,,,,0.0,78.0,78.0,78.0,,,,,,,,,,,,,,,,,,,,,,,,,,,,,,,,,,,,,686.9908884628676,None,686.9908884628676,None,686.9908884628676,None,4.0,2.093328041024506,686.9908884628676,None,686.9908884628676,None,2.0,3.782009826041758,688.624245212879,None,686.9908884628676,None,3.0,5.021834266139194,690.3248972548172,None,686.9908884628676,None,space,0.146421228069812,5.0462141369935125,None,686.9908884628676,None,686.9908884628676,None,,,,,,,,,1,2022_Apr_08_1211,SAR-soap,2021.1.2,
84,Trial # 80,Group1-stimuli/group1-block1/fake-group2-b1/encoded_Group2_IMG_0492.jpg,0,encoded_Group2_IMG_0492.jpg,,,,,0.0,79.0,79.0,79.0,,,,,,,,,,,,,,,,,,,,,,,,,,,,,,,,,,,,,692.2256103539839,None,692.2256103539839,None,692.2256103539839,None,1.0,1.6413655849173665,692.2256103539839,None,692.2256103539839,None,1.0,2.930408084997908,693.4097411078401,None,692.2256103539839,None,1.0,3.535815486917272,694.7088884839322,None,692.2256103539839,None,space,0.173088391078636,3.5597717706114054,None,692.2256103539839,None,692.2256103539839,None,,,,,,,,,1,2022_Apr_08_1211,SAR-soap,2021.1.2,
85,Trial # 81,Group1-stimuli/group1-block1/real-group1-b1/Group1_IMG_0535.jpg,1,Group1_IMG_0535.jpg,,,,,0.0,80.0,80.0,80.0,,,,,,,,,,,,,,,,,,,,,,,,,,,,,,,,,,,,,696.0088305328973,None,696.0088305328973,None,696.0088305328973,None,2.0,2.724922638852149,696.0088305328973,None,696.0088305328973,None,1.0,3.5144644579850137,698.2771706238855,None,696.0088305328973,None,2.0,4.952591961016879,699.0768379250076,None,696.0088305328973,None,space,0.170907380990684,4.974718317622319,None,696.0088305328973,None,696.0088305328973,None,,,,,,,,,1,2022_Apr_08_1211,SAR-soap,2021.1.2,
86,Trial # 82,Group1-stimuli/group1-block1/real-group1-b1/Group1_IMG_0077.jpg,1,Group1_IMG_0077.jpg,,,,,0.0,81.0,81.0,81.0,,,,,,,,,,,,,,,,,,,,,,,,,,,,,,,,,,,,,701.2108896740247,None,701.2108896740247,None,701.2108896740247,None,4.0,3.372793616959825,701.2108896740247,None,701.2108896740247,None,2.0,5.630287348059937,704.1286918099504,None,701.2108896740247,None,7.0,7.268698708154261,706.3964732468594,None,701.2108896740247,None,space,0.2359655210748314,7.289167154580355,None,701.2108896740247,None,701.2108896740247,None,,,,,,,,,1,2022_Apr_08_1211,SAR-soap,2021.1.2,
87,Trial # 83,Group1-stimuli/group1-block1/fake-group2-b1/encoded_Group2_IMG_9702.jpg,0,encoded_Group2_IMG_9702.jpg,,,,,0.0,82.0,82.0,82.0,,,,,,,,,,,,,,,,,,,,,,,,,,,,,,,,,,,,,708.7808052608743,None,708.7808052608743,None,708.7808052608743,None,1.0,1.9977302618790416,708.7808052608743,None,708.7808052608743,None,1.0,2.6529294489882886,710.3307608650066,None,708.7808052608743,None,1.0,3.3930568599607795,710.9972915810067,None,708.7808052608743,None,space,0.1906374560203403,3.4208550008479506,None,708.7808052608743,None,708.7808052608743,None,,,,,,,,,1,2022_Apr_08_1211,SAR-soap,2021.1.2,
88,Trial # 84,Group1-stimuli/group1-block1/real-group1-b1/Group1_IMG_0357.jpg,1,Group1_IMG_0357.jpg,,,,,0.0,83.0,83.0,83.0,,,,,,,,,,,,,,,,,,,,,,,,,,,,,,,,,,,,,712.432365024928,None,712.432365024928,None,712.432365024928,None,1.0,1.924243191955611,712.432365024928,None,712.432365024928,None,1.0,2.647094913991168,713.8988801909145,None,712.432365024928,None,2.0,3.3523515979759395,714.6324132690206,None,712.432365024928,None,space,0.0930920939426869,3.374892312800512,None,712.432365024928,None,712.432365024928,None,,,,,,,,,1,2022_Apr_08_1211,SAR-soap,2021.1.2,
89,Trial # 85,Group1-stimuli/group1-block1/real-group1-b1/Group1_IMG_9772.jpg,1,Group1_IMG_9772.jpg,,,,,0.0,84.0,84.0,84.0,,,,,,,,,,,,,,,,,,,,,,,,,,,,,,,,,,,,,715.9327385448851,None,715.9327385448851,None,715.9327385448851,None,5.0,2.4905691400635988,715.9327385448851,None,715.9327385448851,None,2.0,6.448183601954952,717.9677091969643,None,715.9327385448851,None,4.0,8.520296023925766,721.9351539548952,None,715.9327385448851,None,space,0.1366266468539834,8.541554146911949,None,715.9327385448851,None,715.9327385448851,None,,,,,,,,,1,2022_Apr_08_1211,SAR-soap,2021.1.2,
90,Trial # 86,Group1-stimuli/group1-block1/real-group1-b1/Group1_IMG_0482.jpg,1,Group1_IMG_0482.jpg,,,,,0.0,85.0,85.0,85.0,,,,,,,,,,,,,,,,,,,,,,,,,,,,,,,,,,,,,724.6686013469007,None,724.6686013469007,None,724.6686013469007,None,1.0,2.0745592198800296,724.6686013469007,None,724.6686013469007,None,1.0,2.863977015018463,726.2850007489324,None,724.6686013469007,None,1.0,3.601851131999865,727.0859228030313,None,724.6686013469007,None,space,0.1743393170181661,3.624994311016053,None,724.6686013469007,None,724.6686013469007,None,,,,,,,,,1,2022_Apr_08_1211,SAR-soap,2021.1.2,
91,Trial # 87,Group1-stimuli/group1-block1/real-group1-b1/Group1_IMG_0299.jpg,1,Group1_IMG_0299.jpg,,,,,0.0,86.0,86.0,86.0,,,,,,,,,,,,,,,,,,,,,,,,,,,,,,,,,,,,,728.520266053034,None,728.520266053034,None,728.520266053034,None,5.0,2.22597583103925,728.520266053034,None,728.520266053034,None,2.0,3.4152330171782523,730.2876443378627,None,728.520266053034,None,6.0,4.3234265020582825,731.4882759619504,None,728.520266053034,None,space,0.2136858119629323,4.347122163046151,None,728.520266053034,None,728.520266053034,None,,,,,,,,,1,2022_Apr_08_1211,SAR-soap,2021.1.2,
92,Trial # 88,Group1-stimuli/group1-block1/fake-group2-b1/encoded_Group2_IMG_0301.jpg,0,encoded_Group2_IMG_0301.jpg,,,,,0.0,87.0,87.0,87.0,,,,,,,,,,,,,,,,,,,,,,,,,,,,,,,,,,,,,733.1043026589323,None,733.1043026589323,None,733.1043026589323,None,4.0,3.1965434071607888,733.1043026589323,None,733.1043026589323,None,1.0,4.1030906608793885,735.8553125509061,None,733.1043026589323,None,4.0,5.37520408607088,736.7726454630028,None,733.1043026589323,None,space,0.1301787130068987,5.4037655047141016,None,733.1043026589323,None,733.1043026589323,None,,,,,,,,,1,2022_Apr_08_1211,SAR-soap,2021.1.2,
93,Trial # 89,Group1-stimuli/group1-block1/fake-group2-b1/encoded_Group2_IMG_5136.jpg,0,encoded_Group2_IMG_5136.jpg,,,,,0.0,88.0,88.0,88.0,,,,,,,,,,,,,,,,,,,,,,,,,,,,,,,,,,,,,738.6559040618595,None,738.6559040618595,None,738.6559040618595,None,5.0,3.4304045119788498,738.6559040618595,None,738.6559040618595,None,2.0,4.753192757954821,741.6416874609422,None,738.6559040618595,None,6.0,7.025343006011099,742.9750882778317,None,738.6559040618595,None,space,0.2167333879042416,7.05316962255165,None,738.6559040618595,None,738.6559040618595,None,,,,,,,,,1,2022_Apr_08_1211,SAR-soap,2021.1.2,
94,Trial # 90,Group1-stimuli/group1-block1/real-group1-b1/Group1_IMG_0460.jpg,1,Group1_IMG_0460.jpg,,,,,0.0,89.0,89.0,89.0,,,,,,,,,,,,,,,,,,,,,,,,,,,,,,,,,,,,,745.9752330789343,None,745.9752330789343,None,745.9752330789343,None,5.0,3.041930027073249,745.9752330789343,None,745.9752330789343,None,1.0,4.19762639189139,748.560019513825,None,745.9752330789343,None,1.0,5.20235640485771,749.7262064958923,None,745.9752330789343,None,space,0.779802231118083,5.224780849646777,None,745.9752330789343,None,745.9752330789343,None,,,,,,,,,1,2022_Apr_08_1211,SAR-soap,2021.1.2,
95,Trial # 91,Group1-stimuli/group1-block1/fake-group2-b1/encoded_Group2_IMG_0068.jpg,0,encoded_Group2_IMG_0068.jpg,,,,,0.0,90.0,90.0,90.0,,,,,,,,,,,,,,,,,,,,,,,,,,,,,,,,,,,,,752.027507266961,None,752.027507266961,None,752.027507266961,None,6.0,2.608850908000022,752.027507266961,None,752.027507266961,None,2.0,4.198163768043742,754.1782044658903,None,752.027507266961,None,5.0,5.605247684987262,755.7776828948408,None,752.027507266961,None,space,0.1436369230505079,5.628772989613935,None,752.027507266961,None,752.027507266961,None,,,,,,,,,1,2022_Apr_08_1211,SAR-soap,2021.1.2,
96,Trial # 92,Group1-stimuli/group1-block1/real-group1-b1/Group1_IMG_0337.jpg,1,Group1_IMG_0337.jpg,,,,,0.0,91.0,91.0,91.0,,,,,,,,,,,,,,,,,,,,,,,,,,,,,,,,,,,,,757.8454244378954,None,757.8454244378954,None,757.8454244378954,None,1.0,2.924399968003854,757.8454244378954,None,757.8454244378954,None,1.0,4.280544254928827,760.3129368878435,None,757.8454244378954,None,3.0,5.452893657144159,761.6806113219354,None,757.8454244378954,None,space,0.1873561460524797,5.474295952590182,None,757.8454244378954,None,757.8454244378954,None,,,,,,,,,1,2022_Apr_08_1211,SAR-soap,2021.1.2,
97,Trial # 93,Group1-stimuli/group1-block1/fake-group2-b1/encoded_Group2_IMG_0346.jpg,0,encoded_Group2_IMG_0346.jpg,,,,,0.0,92.0,92.0,92.0,,,,,,,,,,,,,,,,,,,,,,,,,,,,,,,,,,,,,763.5472487108782,None,763.5472487108782,None,763.5472487108782,None,1.0,1.7767250640317798,763.5472487108782,None,763.5472487108782,None,1.0,2.333533629076556,764.86498574703,None,763.5472487108782,None,1.0,2.869816361926496,765.4314808358904,None,763.5472487108782,None,space,0.2211420659441501,2.8957212567329407,None,763.5472487108782,None,763.5472487108782,None,,,,,,,,,1,2022_Apr_08_1211,SAR-soap,2021.1.2,
98,Trial # 94,Group1-stimuli/group1-block1/real-group1-b1/Group1_IMG_4253.jpg,1,Group1_IMG_4253.jpg,,,,,0.0,93.0,93.0,93.0,,,,,,,,,,,,,,,,,,,,,,,,,,,,,,,,,,,,,766.699130659923,None,766.699130659923,None,766.699130659923,None,5.0,1.8562934789806604,766.699130659923,None,766.699130659923,None,2.0,3.3462582079228014,768.0995146939531,None,766.699130659923,None,2.0,4.918713113060221,769.5999276998919,None,766.699130659923,None,space,0.0840262791607528,4.939151126658544,None,766.699130659923,None,766.699130659923,None,,,,,,,,,1,2022_Apr_08_1211,SAR-soap,2021.1.2,
99,Trial # 95,Group1-stimuli/group1-block1/fake-group2-b1/encoded_Group2_IMG_9280.jpg,0,encoded_Group2_IMG_9280.jpg,,,,,0.0,94.0,94.0,94.0,,,,,,,,,,,,,,,,,,,,,,,,,,,,,,,,,,,,,771.7671477578115,None,771.7671477578115,None,771.7671477578115,None,4.0,3.0600245429668576,771.7671477578115,None,771.7671477578115,None,1.0,4.083747010910884,774.3675284059718,None,771.7671477578115,None,7.0,6.256014961982146,775.4005821119063,None,771.7671477578115,None,space,0.8616802988108248,5.580685930559412,None,771.7671477578115,None,771.7671477578115,None,,,,,,,,,1,2022_Apr_08_1211,SAR-soap,2021.1.2,
100,Trial # 96,Group1-stimuli/group1-block1/real-group1-b1/Group1_IMG_0417.jpg,1,Group1_IMG_0417.jpg,,,,,0.0,95.0,95.0,95.0,,,,,,,,,,,,,,,,,,,,,,,,,,,,,,,,,,,,,778.2189628710039,None,778.2189628710039,None,778.2189628710039,None,3.0,3.261242703069001,778.2189628710039,None,778.2189628710039,None,1.0,4.651063146069646,781.0365206638817,None,778.2189628710039,None,2.0,5.790716557065025,782.4364979658276,None,778.2189628710039,None,space,0.1604257479775697,5.816447352524847,None,778.2189628710039,None,778.2189628710039,None,,,,,,,,,1,2022_Apr_08_1211,SAR-soap,2021.1.2,
101,Trial # 97,Group1-stimuli/group1-block1/fake-group2-b1/encoded_Group2_IMG_9695.jpg,0,encoded_Group2_IMG_9695.jpg,,,,,0.0,96.0,96.0,96.0,,,,,,,,,,,,,,,,,,,,,,,,,,,,,,,,,,,,,784.2372907239478,None,784.2372907239478,None,784.2372907239478,None,1.0,1.7872654211241752,784.2372907239478,None,784.2372907239478,None,1.0,2.275767631130293,785.5704778018408,None,784.2372907239478,None,1.0,2.91577852005139,786.0700282838661,None,784.2372907239478,None,space,0.3447456189896911,2.950424474198371,None,784.2372907239478,None,784.2372907239478,None,,,,,,,,,1,2022_Apr_08_1211,SAR-soap,2021.1.2,
102,Trial # 98,Group1-stimuli/group1-block1/real-group1-b1/Group1_IMG_1160.jpg,1,Group1_IMG_1160.jpg,,,,,0.0,97.0,97.0,97.0,,,,,,,,,,,,,,,,,,,,,,,,,,,,,,,,,,,,,787.5717263920233,None,787.5717263920233,None,787.5717263920233,None,4.0,2.725191575009376,787.5717263920233,None,787.5717263920233,None,2.0,5.015180798014626,789.8387766059022,None,787.5717263920233,None,4.0,6.486902779899538,792.1397434009705,None,787.5717263920233,None,space,0.0516366281080991,6.509837489575148,None,787.5717263920233,None,787.5717263920233,None,,,,,,,,,1,2022_Apr_08_1211,SAR-soap,2021.1.2,
103,Trial # 99,Group1-stimuli/group1-block1/real-group1-b1/Group1_IMG_0448.jpg,1,Group1_IMG_0448.jpg,,,,,0.0,98.0,98.0,98.0,,,,,,,,,,,,,,,,,,,,,,,,,,,,,,,,,,,,,794.1728975509759,None,794.1728975509759,None,794.1728975509759,None,3.0,3.3413478520233184,794.1728975509759,None,794.1728975509759,None,2.0,4.431290264008567,797.0593551578932,None,794.1728975509759,None,3.0,5.969593291869387,798.1591542030219,None,794.1728975509759,None,space,0.1265898901037871,5.992276215692982,None,794.1728975509759,None,794.1728975509759,None,,,,,,,,,1,2022_Apr_08_1211,SAR-soap,2021.1.2,
104,Trial # 100,Group1-stimuli/group1-block1/fake-group2-b1/encoded_Group2_IMG_0393.jpg,0,encoded_Group2_IMG_0393.jpg,,,,,0.0,99.0,99.0,99.0,,,,,,,,,,,,,,,,,,,,,,,,,,,,,,,,,,,,,800.3250399709214,None,800.3250399709214,None,800.3250399709214,None,4.0,2.843956512166187,800.3250399709214,None,800.3250399709214,None,1.0,4.766014480963349,802.7103171509225,None,800.3250399709214,None,3.0,6.873134764144197,804.6433124570176,None,800.3250399709214,None,space,0.1375892208889126,6.898092397954315,None,800.3250399709214,None,800.3250399709214,None,,,,,,,,,1,2022_Apr_08_1211,SAR-soap,2021.1.2,
105,Trial # 101,Group1-stimuli/group1-block1/real-group1-b1/Group1_IMG_0090.jpg,1,Group1_IMG_0090.jpg,,,,,0.0,100.0,100.0,100.0,,,,,,,,,,,,,,,,,,,,,,,,,,,,,,,,,,,,,807.4107580038253,None,807.4107580038253,None,807.4107580038253,None,1.0,1.638687794096768,807.4107580038253,None,807.4107580038253,None,1.0,2.760388049064204,808.5945813958533,None,807.4107580038253,None,1.0,3.532313092146069,809.7288106218912,None,807.4107580038253,None,space,0.1552746430970728,3.553657153621316,None,807.4107580038253,None,807.4107580038253,None,,,,,,,,,1,2022_Apr_08_1211,SAR-soap,2021.1.2,
106,Trial # 102,Group1-stimuli/group1-block1/real-group1-b1/Group1_IMG_0310.jpg,1,Group1_IMG_0310.jpg,,,,,0.0,101.0,101.0,101.0,,,,,,,,,,,,,,,,,,,,,,,,,,,,,,,,,,,,,811.1621318438556,None,811.1621318438556,None,811.1621318438556,None,1.0,1.8075794060714545,811.1621318438556,None,811.1621318438556,None,1.0,2.6632229851093143,812.512649616925,None,811.1621318438556,None,1.0,3.2350212580058724,813.3794559999369,None,811.1621318438556,None,space,0.2160095460712909,3.255552312824875,None,811.1621318438556,None,811.1621318438556,None,,,,,,,,,1,2022_Apr_08_1211,SAR-soap,2021.1.2,
107,Trial # 103,Group1-stimuli/group1-block1/fake-group2-b1/encoded_Group2_IMG_0528.jpg,0,encoded_Group2_IMG_0528.jpg,,,,,0.0,102.0,102.0,102.0,,,,,,,,,,,,,,,,,,,,,,,,,,,,,,,,,,,,,814.6799776370171,None,814.6799776370171,None,814.6799776370171,None,3.0,5.461755466181785,814.6799776370171,None,814.6799776370171,None,1.0,6.450778518104926,819.6816263799556,None,814.6799776370171,None,4.0,7.823607638012618,820.6810883719008,None,814.6799776370171,None,space,0.1607429138384759,7.848419316578656,None,814.6799776370171,None,814.6799776370171,None,,,,,,,,,1,2022_Apr_08_1211,SAR-soap,2021.1.2,
108,Trial # 104,Group1-stimuli/group1-block1/fake-group2-b1/encoded_Group2_IMG_1975.jpg,0,encoded_Group2_IMG_1975.jpg,,,,,0.0,103.0,103.0,103.0,,,,,,,,,,,,,,,,,,,,,,,,,,,,,,,,,,,,,822.7152812478598,None,822.7152812478598,None,822.7152812478598,None,1.0,1.7753953239880502,822.7152812478598,None,822.7152812478598,None,1.0,2.3985100730787963,824.0331537639722,None,822.7152812478598,None,1.0,3.105269905878231,824.6665293788537,None,822.7152812478598,None,space,0.2599116130732,3.128843443701044,None,822.7152812478598,None,822.7152812478598,None,,,,,,,,,1,2022_Apr_08_1211,SAR-soap,2021.1.2,
109,Trial # 105,Group1-stimuli/group1-block1/fake-group2-b1/encoded_Group2_IMG_0052.jpg,0,encoded_Group2_IMG_0052.jpg,,,,,0.0,104.0,104.0,104.0,,,,,,,,,,,,,,,,,,,,,,,,,,,,,,,,,,,,,826.13279396086,None,826.13279396086,None,826.13279396086,None,1.0,1.7440729320514947,826.13279396086,None,826.13279396086,None,1.0,2.5165586348157376,827.418366676895,None,826.13279396086,None,1.0,3.220954471034929,828.2011505919509,None,826.13279396086,None,space,0.1094952160492539,3.2446165087167174,None,826.13279396086,None,826.13279396086,None,,,,,,,,,1,2022_Apr_08_1211,SAR-soap,2021.1.2,
110,Trial # 106,Group1-stimuli/group1-block1/fake-group2-b1/encoded_Group2_IMG_0225.jpg,0,encoded_Group2_IMG_0225.jpg,,,,,0.0,105.0,105.0,105.0,,,,,,,,,,,,,,,,,,,,,,,,,,,,,,,,,,,,,829.5342231639661,None,829.5342231639661,None,829.5342231639661,None,3.0,2.460389227839187,829.5342231639661,None,829.5342231639661,None,1.0,3.650590265868232,831.5362189100124,None,829.5342231639661,None,3.0,4.554963011993095,832.7360812090337,None,829.5342231639661,None,space,0.1899390271864831,4.579956450732425,None,829.5342231639661,None,829.5342231639661,None,,,,,,,,,1,2022_Apr_08_1211,SAR-soap,2021.1.2,
111,Trial # 107,Group1-stimuli/group1-block1/real-group1-b1/Group1_IMG_2231.jpg,1,Group1_IMG_2231.jpg,,,,,0.0,106.0,106.0,106.0,,,,,,,,,,,,,,,,,,,,,,,,,,,,,,,,,,,,,834.3529881099239,None,834.3529881099239,None,834.3529881099239,None,5.0,2.279976184014231,834.3529881099239,None,834.3529881099239,None,2.0,4.670148870907724,836.1860858199652,None,834.3529881099239,None,5.0,7.976176111027598,838.5870569238905,None,834.3529881099239,None,space,1.5307275669183582,6.60277794348076,None,834.3529881099239,None,834.3529881099239,None,,,,,,,,,1,2022_Apr_08_1211,SAR-soap,2021.1.2,
112,Trial # 108,Group1-stimuli/group1-block1/real-group1-b1/Group1_IMG_0217.jpg,1,Group1_IMG_0217.jpg,,,,,0.0,107.0,107.0,107.0,,,,,,,,,,,,,,,,,,,,,,,,,,,,,,,,,,,,,842.5218297629617,None,842.5218297629617,None,842.5218297629617,None,4.0,2.434845553012565,842.5218297629617,None,842.5218297629617,None,1.0,3.6247692259494215,844.5062488268595,None,842.5218297629617,None,3.0,4.496781711932272,845.7053899939638,None,842.5218297629617,None,space,0.1085840468294918,4.530615616124123,None,842.5218297629617,None,842.5218297629617,None,,,,,,,,,1,2022_Apr_08_1211,SAR-soap,2021.1.2,
113,Trial # 109,Group1-stimuli/group1-block1/real-group1-b1/Group1_IMG_0264.jpg,1,Group1_IMG_0264.jpg,,,,,0.0,108.0,108.0,108.0,,,,,,,,,,,,,,,,,,,,,,,,,,,,,,,,,,,,,847.2071550330147,None,847.2071550330147,None,847.2071550330147,None,6.0,2.46773494197987,847.2071550330147,None,847.2071550330147,None,3.0,4.809321134118363,849.2237929718103,None,847.2071550330147,None,4.0,6.415472573135048,851.5751552470028,None,847.2071550330147,None,space,0.2029634171631187,6.446905564982444,None,847.2071550330147,None,847.2071550330147,None,,,,,,,,,1,2022_Apr_08_1211,SAR-soap,2021.1.2,
114,Trial # 110,Group1-stimuli/group1-block1/fake-group2-b1/encoded_Group2_IMG_0254.jpg,0,encoded_Group2_IMG_0254.jpg,,,,,0.0,109.0,109.0,109.0,,,,,,,,,,,,,,,,,,,,,,,,,,,,,,,,,,,,,853.9090728859883,None,853.9090728859883,None,853.9090728859883,None,1.0,1.7606569800991565,853.9090728859883,None,853.9090728859883,None,1.0,2.349245707970113,855.2090195969213,None,853.9090728859883,None,1.0,3.055511905113235,855.8088851908688,None,853.9090728859883,None,space,0.1251442050561308,3.0797832666430622,None,853.9090728859883,None,853.9090728859883,None,,,,,,,,,1,2022_Apr_08_1211,SAR-soap,2021.1.2,
115,Trial # 111,Group1-stimuli/group1-block1/fake-group2-b1/encoded_Group2_IMG_5433.jpg,0,encoded_Group2_IMG_5433.jpg,,,,,0.0,110.0,110.0,110.0,,,,,,,,,,,,,,,,,,,,,,,,,,,,,,,,,,,,,857.1434188738931,None,857.1434188738931,None,857.1434188738931,None,1.0,1.688299919012934,857.1434188738931,None,857.1434188738931,None,1.0,2.610322752967477,858.3774011379573,None,857.1434188738931,None,1.0,3.248721072915941,859.3098880648613,None,857.1434188738931,None,space,0.2508353830780834,3.267929293680936,None,857.1434188738931,None,857.1434188738931,None,,,,,,,,,1,2022_Apr_08_1211,SAR-soap,2021.1.2,
116,Trial # 112,Group1-stimuli/group1-block1/real-group1-b1/Group1_IMG_0252.jpg,1,Group1_IMG_0252.jpg,,,,,0.0,111.0,111.0,111.0,,,,,,,,,,,,,,,,,,,,,,,,,,,,,,,,,,,,,860.7099743520375,None,860.7099743520375,None,860.7099743520375,None,1.0,2.8151346389204264,860.7099743520375,None,860.7099743520375,None,1.0,4.3540612200740725,863.0792764418293,None,860.7099743520375,None,3.0,5.425097241997719,864.6291201969143,None,860.7099743520375,None,space,0.6427280921489,5.453441250137985,None,860.7099743520375,None,860.7099743520375,None,,,,,,,,,1,2022_Apr_08_1211,SAR-soap,2021.1.2,
117,Trial # 113,Group1-stimuli/group1-block1/real-group1-b1/Group1_IMG_9720.jpg,1,Group1_IMG_9720.jpg,,,,,0.0,112.0,112.0,112.0,,,,,,,,,,,,,,,,,,,,,,,,,,,,,,,,,,,,,866.8629632159136,None,866.8629632159136,None,866.8629632159136,None,5.0,2.559963159961626,866.8629632159136,None,866.8629632159136,None,2.0,4.316063702804968,868.9633895629086,None,866.8629632159136,None,4.0,5.355345828924328,870.7302609470207,None,866.8629632159136,None,space,0.1168458969332277,5.381441417615861,None,866.8629632159136,None,866.8629632159136,None,,,,,,,,,1,2022_Apr_08_1211,SAR-soap,2021.1.2,
118,Trial # 114,Group1-stimuli/group1-block1/fake-group2-b1/encoded_Group2_IMG_0550.jpg,0,encoded_Group2_IMG_0550.jpg,,,,,0.0,113.0,113.0,113.0,,,,,,,,,,,,,,,,,,,,,,,,,,,,,,,,,,,,,872.381267205812,None,872.381267205812,None,872.381267205812,None,1.0,1.978694109944627,872.381267205812,None,872.381267205812,None,1.0,2.6012138992082328,873.9147333058063,None,872.381267205812,None,1.0,3.2390554971061647,874.5487593950238,None,872.381267205812,None,space,0.0920527270063757,3.2674065358005464,None,872.381267205812,None,872.381267205812,None,,,,,,,,,1,2022_Apr_08_1211,SAR-soap,2021.1.2,
119,Trial # 115,Group1-stimuli/group1-block1/real-group1-b1/Group1_IMG_9915.jpg,1,Group1_IMG_9915.jpg,,,,,0.0,114.0,114.0,114.0,,,,,,,,,,,,,,,,,,,,,,,,,,,,,,,,,,,,,875.781352652004,None,875.781352652004,None,875.781352652004,None,1.0,2.076666835928336,875.781352652004,None,875.781352652004,None,1.0,2.7667434269096702,877.4000371929724,None,875.781352652004,None,2.0,3.5048943569418043,878.099317620974,None,875.781352652004,None,space,0.1210300009697675,3.527261111885309,None,875.781352652004,None,875.781352652004,None,,,,,,,,,1,2022_Apr_08_1211,SAR-soap,2021.1.2,
120,Trial # 116,Group1-stimuli/group1-block1/real-group1-b1/Group1_IMG_9850.jpg,1,Group1_IMG_9850.jpg,,,,,0.0,115.0,115.0,115.0,,,,,,,,,,,,,,,,,,,,,,,,,,,,,,,,,,,,,879.4661233029328,None,879.4661233029328,None,879.4661233029328,None,1.0,1.8449470119085165,879.4661233029328,None,879.4661233029328,None,1.0,2.36737215006724,880.8670027109329,None,879.4661233029328,None,1.0,3.0069287489168346,881.3997543209698,None,879.4661233029328,None,space,0.1600405520293861,3.033407461363822,None,879.4661233029328,None,879.4661233029328,None,,,,,,,,,1,2022_Apr_08_1211,SAR-soap,2021.1.2,
121,Trial # 117,Group1-stimuli/group1-block1/real-group1-b1/Group1_IMG_3579.jpg,1,Group1_IMG_3579.jpg,,,,,0.0,116.0,116.0,116.0,,,,,,,,,,,,,,,,,,,,,,,,,,,,,,,,,,,,,882.7016699740198,None,882.7016699740198,None,882.7016699740198,None,4.0,2.2349012040067464,882.7016699740198,None,882.7016699740198,None,2.0,3.2894709289539605,884.4852727130055,None,882.7016699740198,None,4.0,4.729824450099841,885.5510966018774,None,882.7016699740198,None,space,0.072101776022464,4.762893676059321,None,882.7016699740198,None,882.7016699740198,None,,,,,,,,,1,2022_Apr_08_1211,SAR-soap,2021.1.2,
122,Trial # 118,Group1-stimuli/group1-block1/fake-group2-b1/encoded_Group2_IMG_0377.jpg,0,encoded_Group2_IMG_0377.jpg,,,,,0.0,117.0,117.0,117.0,,,,,,,,,,,,,,,,,,,,,,,,,,,,,,,,,,,,,887.568972766865,None,887.568972766865,None,887.568972766865,None,1.0,1.6140332608483732,887.568972766865,None,887.568972766865,None,1.0,2.336744783911854,888.7366416708101,None,887.568972766865,None,1.0,2.9741563610732555,889.4690534588881,None,887.568972766865,None,space,0.1874720540363341,3.002153637586161,None,887.568972766865,None,887.568972766865,None,,,,,,,,,1,2022_Apr_08_1211,SAR-soap,2021.1.2,
123,Trial # 119,Group1-stimuli/group1-block1/real-group1-b1/Group1_IMG_0469.jpg,1,Group1_IMG_0469.jpg,,,,,0.0,118.0,118.0,118.0,,,,,,,,,,,,,,,,,,,,,,,,,,,,,,,,,,,,,890.8029494700022,None,890.8029494700022,None,890.8029494700022,None,1.0,1.6076700701378286,890.8029494700022,None,890.8029494700022,None,1.0,2.4980170580092818,891.9541275119409,None,890.8029494700022,None,1.0,3.136561877094209,892.8540457428899,None,890.8029494700022,None,space,0.2340022670105099,3.159074018942192,None,890.8029494700022,None,890.8029494700022,None,,,,,,,,,1,2022_Apr_08_1211,SAR-soap,2021.1.2,
124,Trial # 120,Group1-stimuli/group1-block1/fake-group2-b1/encoded_Group2_IMG_0100.jpg,0,encoded_Group2_IMG_0100.jpg,,,,,0.0,119.0,119.0,119.0,,,,,,,,,,,,,,,,,,,,,,,,,,,,,,,,,,,,,894.2550624150317,None,894.2550624150317,None,894.2550624150317,None,1.0,1.6494252430275085,894.2550624150317,None,894.2550624150317,None,1.0,2.47175120189786,895.455572498031,None,894.2550624150317,None,2.0,3.3780648650135845,896.2883784070145,None,894.2550624150317,None,space,0.0286939968355,3.409337457967922,None,894.2550624150317,None,894.2550624150317,None,,,,,,,,,1,2022_Apr_08_1211,SAR-soap,2021.1.2,
125,Trial # 121,Group1-stimuli/group1-block1/real-group1-b1/Group1_IMG_5359.jpg,1,Group1_IMG_5359.jpg,,,,,0.0,120.0,120.0,120.0,,,,,,,,,,,,,,,,,,,,,,,,,,,,,,,,,,,,,897.7392647108063,None,897.7392647108063,None,897.7392647108063,None,3.0,2.6250035180710256,897.7392647108063,None,897.7392647108063,None,1.0,3.513301088940352,899.906680312939,None,897.7392647108063,None,3.0,4.753711748169735,900.8060617099982,None,897.7392647108063,None,space,0.1377973689232021,4.776148244040087,None,897.7392647108063,None,897.7392647108063,None,,,,,,,,,1,2022_Apr_08_1211,SAR-soap,2021.1.2,
126,Trial # 122,Group1-stimuli/group1-block1/fake-group2-b1/encoded_Group2_IMG_0304.jpg,0,encoded_Group2_IMG_0304.jpg,,,,,0.0,121.0,121.0,121.0,,,,,,,,,,,,,,,,,,,,,,,,,,,,,,,,,,,,,902.6907627908512,None,902.6907627908512,None,902.6907627908512,None,3.0,2.162637854926288,902.6907627908512,None,902.6907627908512,None,1.0,2.95252296095714,904.4071812098846,None,902.6907627908512,None,2.0,3.6245133988559246,905.2080863758456,None,902.6907627908512,None,space,0.1363262711092829,3.6515432556625456,None,902.6907627908512,None,902.6907627908512,None,,,,,,,,,1,2022_Apr_08_1211,SAR-soap,2021.1.2,
127,Trial # 123,Group1-stimuli/group1-block1/real-group1-b1/Group1_IMG_0306.jpg,1,Group1_IMG_0306.jpg,,,,,0.0,122.0,122.0,122.0,,,,,,,,,,,,,,,,,,,,,,,,,,,,,,,,,,,,,906.5414589568971,None,906.5414589568971,None,906.5414589568971,None,5.0,2.452739596134052,906.5414589568971,None,906.5414589568971,None,2.0,3.77602956793271,908.5427031349392,None,906.5414589568971,None,2.0,5.413944876985624,909.8754119039512,None,906.5414589568971,None,space,0.2207584630232304,5.448413074016571,None,906.5414589568971,None,906.5414589568971,None,,,,,,,,,1,2022_Apr_08_1211,SAR-soap,2021.1.2,
128,Trial # 124,Group1-stimuli/group1-block1/real-group1-b1/Group1_IMG_0224.jpg,1,Group1_IMG_0224.jpg,,,,,0.0,123.0,123.0,123.0,,,,,,,,,,,,,,,,,,,,,,,,,,,,,,,,,,,,,912.2434702708852,None,912.2434702708852,None,912.2434702708852,None,4.0,1.736068048980087,912.2434702708852,None,912.2434702708852,None,1.0,2.9254897399805486,913.5275687889662,None,912.2434702708852,None,3.0,3.897073932923377,914.7276129529346,None,912.2434702708852,None,space,0.124325037933886,3.931522317929194,None,912.2434702708852,None,912.2434702708852,None,,,,,,,,,1,2022_Apr_08_1211,SAR-soap,2021.1.2,
129,Trial # 125,Group1-stimuli/group1-block1/real-group1-b1/Group1_IMG_9889.jpg,1,Group1_IMG_9889.jpg,,,,,0.0,124.0,124.0,124.0,,,,,,,,,,,,,,,,,,,,,,,,,,,,,,,,,,,,,916.327671385836,None,916.327671385836,None,916.327671385836,None,1.0,1.6414104378782213,916.327671385836,None,916.327671385836,None,1.0,2.830241979798302,917.5125267428812,None,916.327671385836,None,1.0,3.602704979944974,918.7124598438386,None,916.327671385836,None,space,0.1478118100203573,3.624312295811251,None,916.327671385836,None,916.327671385836,None,,,,,,,,,1,2022_Apr_08_1211,SAR-soap,2021.1.2,
130,Trial # 126,Group1-stimuli/group1-block1/real-group1-b1/Group1_IMG_0293.jpg,1,Group1_IMG_0293.jpg,,,,,0.0,125.0,125.0,125.0,,,,,,,,,,,,,,,,,,,,,,,,,,,,,,,,,,,,,920.1448446610012,None,920.1448446610012,None,920.1448446610012,None,1.0,1.7956097989808768,920.1448446610012,None,920.1448446610012,None,1.0,2.485082363942638,921.4954771588092,None,920.1448446610012,None,1.0,3.192203741054982,922.1971699518616,None,920.1448446610012,None,space,0.0815005558542907,3.2169728700537235,None,920.1448446610012,None,920.1448446610012,None,,,,,,,,,1,2022_Apr_08_1211,SAR-soap,2021.1.2,
131,Trial # 127,Group1-stimuli/group1-block1/fake-group2-b1/encoded_Group2_IMG_0321.jpg,0,encoded_Group2_IMG_0321.jpg,,,,,0.0,126.0,126.0,126.0,,,,,,,,,,,,,,,,,,,,,,,,,,,,,,,,,,,,,923.4974296709988,None,923.4974296709988,None,923.4974296709988,None,3.0,5.151341327000409,923.4974296709988,None,923.4974296709988,None,1.0,5.991961037972942,926.715594512876,None,923.4974296709988,None,3.0,8.597138498909771,929.0491479679476,None,923.4974296709988,None,space,1.5637164020445198,7.962743717012927,None,923.4974296709988,None,923.4974296709988,None,,,,,,,,,1,2022_Apr_08_1211,SAR-soap,2021.1.2,
132,Trial # 128,Group1-stimuli/group1-block1/fake-group2-b1/encoded_Group2_IMG_0400.jpg,0,encoded_Group2_IMG_0400.jpg,,,,,0.0,127.0,127.0,127.0,,,,,,,,,,,,,,,,,,,,,,,,,,,,,,,,,,,,,933.0502759609373,None,933.0502759609373,None,933.0502759609373,None,4.0,3.1262861660216004,933.0502759609373,None,933.0502759609373,None,1.0,4.21573615889065,935.717130180914,None,933.0502759609373,None,3.0,5.521549653029069,936.8176969529596,None,933.0502759609373,None,space,0.1239924209658056,5.546687335707247,None,933.0502759609373,None,933.0502759609373,None,,,,,,,,,1,2022_Apr_08_1211,SAR-soap,2021.1.2,
133,Trial # 129,Group1-stimuli/group1-block1/fake-group2-b1/encoded_Group2_IMG_0443.jpg,0,encoded_Group2_IMG_0443.jpg,,,,,0.0,128.0,128.0,128.0,,,,,,,,,,,,,,,,,,,,,,,,,,,,,,,,,,,,,938.7519123258536,None,938.7519123258536,None,938.7519123258536,None,5.0,2.368994527030736,938.7519123258536,None,938.7519123258536,None,3.0,4.226412866031751,940.6684396569616,None,938.7519123258536,None,3.0,8.03256333200261,942.5366373248398,None,938.7519123258536,None,space,0.1376672689802944,8.066345776896924,None,938.7519123258536,None,938.7519123258536,None,,,,,,,,,1,2022_Apr_08_1211,SAR-soap,2021.1.2,
134,Trial # 130,Group1-stimuli/group1-block1/fake-group2-b1/encoded_Group2_IMG_0542.jpg,0,encoded_Group2_IMG_0542.jpg,,,,,0.0,129.0,129.0,129.0,,,,,,,,,,,,,,,,,,,,,,,,,,,,,,,,,,,,,946.9872803378385,None,946.9872803378385,None,946.9872803378385,None,1.0,1.597715483047068,946.9872803378385,None,946.9872803378385,None,1.0,2.321199726080522,948.1384329940192,None,946.9872803378385,None,1.0,3.125587146962061,948.8713158599568,None,946.9872803378385,None,space,0.2192893540486693,3.152908595977351,None,946.9872803378385,None,946.9872803378385,None,,,,,,,,,1,2022_Apr_08_1211,SAR-soap,2021.1.2,
135,Trial # 131,Group1-stimuli/group1-block1/real-group1-b1/Group1_IMG_0885.jpg,1,Group1_IMG_0885.jpg,,,,,0.0,130.0,130.0,130.0,,,,,,,,,,,,,,,,,,,,,,,,,,,,,,,,,,,,,950.404271263862,None,950.404271263862,None,950.404271263862,None,5.0,3.4701777298469096,950.404271263862,None,950.404271263862,None,2.0,5.676280484069139,953.4234044279438,None,950.404271263862,None,7.0,7.716258660890162,955.6397020239384,None,950.404271263862,None,space,0.1998210938181728,7.749848355073482,None,950.404271263862,None,950.404271263862,None,,,,,,,,,1,2022_Apr_08_1211,SAR-soap,2021.1.2,
136,Trial # 132,Group1-stimuli/group1-block1/real-group1-b1/Group1_IMG_0375.jpg,1,Group1_IMG_0375.jpg,,,,,0.0,131.0,131.0,131.0,,,,,,,,,,,,,,,,,,,,,,,,,,,,,,,,,,,,,958.3747247918508,None,958.3747247918508,None,958.3747247918508,None,1.0,2.042820431990549,958.3747247918508,None,958.3747247918508,None,1.0,2.8001614150125533,959.9589160238392,None,958.3747247918508,None,1.0,3.403719945112244,960.7252107530368,None,958.3747247918508,None,space,0.1650713849812746,3.429351628758013,None,958.3747247918508,None,958.3747247918508,None,,,,,,,,,1,2022_Apr_08_1211,SAR-soap,2021.1.2,
137,Trial # 133,Group1-stimuli/group1-block1/fake-group2-b1/encoded_Group2_IMG_7351.jpg,0,encoded_Group2_IMG_7351.jpg,,,,,0.0,132.0,132.0,132.0,,,,,,,,,,,,,,,,,,,,,,,,,,,,,,,,,,,,,961.9752097569872,None,961.9752097569872,None,961.9752097569872,None,4.0,2.2301981118507683,961.9752097569872,None,961.9752097569872,None,1.0,2.9205261839088053,963.7599224539008,None,961.9752097569872,None,5.0,4.1254481330979615,964.459712992888,None,961.9752097569872,None,space,0.182187208905816,4.153127943631262,None,961.9752097569872,None,961.9752097569872,None,,,,,,,,,1,2022_Apr_08_1211,SAR-soap,2021.1.2,
138,Trial # 134,Group1-stimuli/group1-block1/fake-group2-b1/encoded_Group2_IMG_0416.jpg,0,encoded_Group2_IMG_0416.jpg,,,,,0.0,133.0,133.0,133.0,,,,,,,,,,,,,,,,,,,,,,,,,,,,,,,,,,,,,966.3602515619714,None,966.3602515619714,None,966.3602515619714,None,4.0,2.1328474851325154,966.3602515619714,None,966.3602515619714,None,1.0,3.072226754855365,968.0438148458488,None,966.3602515619714,None,3.0,4.311176440911368,968.9939012529794,None,966.3602515619714,None,space,0.1824628629256039,4.340925055090338,None,966.3602515619714,None,966.3602515619714,None,,,,,,,,,1,2022_Apr_08_1211,SAR-soap,2021.1.2,
139,Trial # 135,Group1-stimuli/group1-block1/fake-group2-b1/encoded_Group2_IMG_0139.jpg,0,encoded_Group2_IMG_0139.jpg,,,,,0.0,134.0,134.0,134.0,,,,,,,,,,,,,,,,,,,,,,,,,,,,,,,,,,,,,970.9108278709464,None,970.9108278709464,None,970.9108278709464,None,1.0,1.830033272970468,970.9108278709464,None,970.9108278709464,None,1.0,2.587441443931312,972.2963125729002,None,970.9108278709464,None,1.0,3.3579846560023725,973.0626071279404,None,970.9108278709464,None,space,0.1646983351092785,3.3863982057664543,None,970.9108278709464,None,970.9108278709464,None,,,,,,,,,1,2022_Apr_08_1211,SAR-soap,2021.1.2,
140,Trial # 136,Group1-stimuli/group1-block1/real-group1-b1/Group1_IMG_9677.jpg,1,Group1_IMG_9677.jpg,,,,,0.0,135.0,135.0,135.0,,,,,,,,,,,,,,,,,,,,,,,,,,,,,,,,,,,,,974.4954585148952,None,974.4954585148952,None,974.4954585148952,None,1.0,1.9747880429495128,974.4954585148952,None,974.4954585148952,None,1.0,2.464166257064789,976.0128598830196,None,974.4954585148952,None,2.0,3.2699607491958886,976.5122690279968,None,974.4954585148952,None,space,0.1367710100021213,3.2924116656649858,None,974.4954585148952,None,974.4954585148952,None,,,,,,,,,1,2022_Apr_08_1211,SAR-soap,2021.1.2,
141,Trial # 137,Group1-stimuli/group1-block1/fake-group2-b1/encoded_Group2_IMG_5982.jpg,0,encoded_Group2_IMG_5982.jpg,,,,,0.0,136.0,136.0,136.0,,,,,,,,,,,,,,,,,,,,,,,,,,,,,,,,,,,,,977.9641358498484,None,977.9641358498484,None,977.9641358498484,None,1.0,1.7470984370447695,977.9641358498484,None,977.9641358498484,None,1.0,2.337946373037994,979.2646931579802,None,977.9641358498484,None,1.0,2.874977055005729,979.8644963740372,None,977.9641358498484,None,space,0.2123449239879846,2.903839088743553,None,977.9641358498484,None,977.9641358498484,None,,,,,,,,,1,2022_Apr_08_1211,SAR-soap,2021.1.2,
142,Trial # 138,Group1-stimuli/group1-block1/fake-group2-b1/encoded_Group2_IMG_1144.jpg,0,encoded_Group2_IMG_1144.jpg,,,,,0.0,137.0,137.0,137.0,,,,,,,,,,,,,,,,,,,,,,,,,,,,,,,,,,,,,981.130250640912,None,981.130250640912,None,981.130250640912,None,5.0,5.260290222009644,981.130250640912,None,981.130250640912,None,3.0,5.967319677118212,982.682343265973,None,981.130250640912,None,4.0,7.104670410975814,986.6504650858697,None,981.130250640912,None,space,0.0909468890167772,7.128685372881591,None,981.130250640912,None,981.130250640912,None,,,,,,,,,1,2022_Apr_08_1211,SAR-soap,2021.1.2,
143,Trial # 139,Group1-stimuli/group1-block1/fake-group2-b1/encoded_Group2_IMG_0315.jpg,0,encoded_Group2_IMG_0315.jpg,,,,,0.0,138.0,138.0,138.0,,,,,,,,,,,,,,,,,,,,,,,,,,,,,,,,,,,,,988.3832690268756,None,988.3832690268756,None,988.3832690268756,None,1.0,1.9290350880473848,988.3832690268756,None,988.3832690268756,None,1.0,3.152142451843247,989.8670254568568,None,988.3832690268756,None,3.0,4.023158055031672,991.1011283670086,None,988.3832690268756,None,space,0.121688807150349,4.05082285637036,None,988.3832690268756,None,988.3832690268756,None,,,,,,,,,1,2022_Apr_08_1211,SAR-soap,2021.1.2,
144,Trial # 140,Group1-stimuli/group1-block1/real-group1-b1/Group1_IMG_130.jpg,1,Group1_IMG_130.jpg,,,,,0.0,139.0,139.0,139.0,,,,,,,,,,,,,,,,,,,,,,,,,,,,,,,,,,,,,992.601179735968,None,992.601179735968,None,992.601179735968,None,5.0,1.9571030968800187,992.601179735968,None,992.601179735968,None,4.0,4.013744799885899,994.1018181259278,None,992.601179735968,None,3.0,5.888029220979661,996.1685377280228,None,992.601179735968,None,space,0.2938267199788242,5.907974344911054,None,992.601179735968,None,992.601179735968,None,,,,,,,,,1,2022_Apr_08_1211,SAR-soap,2021.1.2,
145,Trial # 141,Group1-stimuli/group1-block1/real-group1-b1/Group1_IMG_0024.jpg,1,Group1_IMG_0024.jpg,,,,,0.0,140.0,140.0,140.0,,,,,,,,,,,,,,,,,,,,,,,,,,,,,,,,,,,,,998.83704629587,None,998.83704629587,None,998.83704629587,None,5.0,2.5574721810407937,998.83704629587,None,998.83704629587,None,1.0,4.582325823139399,1000.936923035886,None,998.83704629587,None,5.0,6.020365952048451,1002.9714649380184,None,998.83704629587,None,space,0.1816211580298841,6.042225265875459,None,998.83704629587,None,998.83704629587,None,,,,,,,,,1,2022_Apr_08_1211,SAR-soap,2021.1.2,
146,Trial # 142,Group1-stimuli/group1-block1/fake-group2-b1/encoded_Group2_IMG_5012.jpg,0,encoded_Group2_IMG_5012.jpg,,,,,0.0,141.0,141.0,141.0,,,,,,,,,,,,,,,,,,,,,,,,,,,,,,,,,,,,,1005.105584061006,None,1005.105584061006,None,1005.105584061006,None,3.0,3.6544541229959577,1005.105584061006,None,1005.105584061006,None,1.0,4.526282726088539,1007.089840506902,None,1005.105584061006,None,3.0,5.497554881032556,1009.1899743289688,None,1005.105584061006,None,space,0.2366781148593872,5.531490931054577,None,1005.105584061006,None,1005.105584061006,None,,,,,,,,,1,2022_Apr_08_1211,SAR-soap,2021.1.2,
147,Trial # 143,Group1-stimuli/group1-block1/fake-group2-b1/encoded_Group2_IMG_0209.jpg,0,encoded_Group2_IMG_0209.jpg,,,,,0.0,142.0,142.0,142.0,,,,,,,,,,,,,,,,,,,,,,,,,,,,,,,,,,,,,1010.9070676330012,None,1010.9070676330012,None,1010.9070676330012,None,1.0,1.696215792093426,1010.9070676330012,None,1010.9070676330012,None,1.0,2.520206985995173,1012.1585430428386,None,1010.9070676330012,None,1.0,3.091635670978576,1012.9919167649932,None,1010.9070676330012,None,space,0.2032281879801303,3.11990335257724,None,1010.9070676330012,None,1010.9070676330012,None,,,,,,,,,1,2022_Apr_08_1211,SAR-soap,2021.1.2,
148,Trial # 144,Group1-stimuli/group1-block1/real-group1-b1/Group1_IMG_0373.jpg,1,Group1_IMG_0373.jpg,,,,,0.0,143.0,143.0,143.0,,,,,,,,,,,,,,,,,,,,,,,,,,,,,,,,,,,,,1014.291450883029,None,1014.291450883029,None,1014.291450883029,None,1.0,1.7402479590382427,1014.291450883029,None,1014.291450883029,None,1.0,2.3633711328729987,1015.5752880359069,None,1014.291450883029,None,1.0,3.1015047549735755,1016.2083802639972,None,1014.291450883029,None,space,0.3633452919311821,3.123908578651026,None,1014.291450883029,None,1014.291450883029,None,,,,,,,,,1,2022_Apr_08_1211,SAR-soap,2021.1.2,
149,Trial # 145,Group1-stimuli/group1-block1/real-group1-b1/Group1_IMG_5899.jpg,1,Group1_IMG_5899.jpg,,,,,0.0,144.0,144.0,144.0,,,,,,,,,,,,,,,,,,,,,,,,,,,,,,,,,,,,,1017.8088602328208,None,1017.8088602328208,None,1017.8088602328208,None,1.0,2.2944941269233823,1017.8088602328208,None,1017.8088602328208,None,1.0,2.850899124052376,1019.64345425996,None,1017.8088602328208,None,3.0,3.589455602923408,1020.2102621828672,None,1017.8088602328208,None,space,0.1387507850304246,3.613666853867471,None,1017.8088602328208,None,1017.8088602328208,None,,,,,,,,,1,2022_Apr_08_1211,SAR-soap,2021.1.2,
150,Trial # 146,Group1-stimuli/group1-block1/real-group1-b1/Group1_IMG_0162.jpg,1,Group1_IMG_0162.jpg,,,,,0.0,145.0,145.0,145.0,,,,,,,,,,,,,,,,,,,,,,,,,,,,,,,,,,,,,1021.6108329638372,None,1021.6108329638372,None,1021.6108329638372,None,5.0,2.239540155045688,1021.6108329638372,None,1021.6108329638372,None,3.0,3.760906306095421,1023.394759343937,None,1021.6108329638372,None,5.0,5.201775752939284,1024.9286845969036,None,1021.6108329638372,None,space,0.4249587149824947,5.219241250539199,None,1021.6108329638372,None,1021.6108329638372,None,,,,,,,,,1,2022_Apr_08_1211,SAR-soap,2021.1.2,
151,Trial # 147,Group1-stimuli/group1-block1/real-group1-b1/Group1_IMG_0543.jpg,1,Group1_IMG_0543.jpg,,,,,0.0,146.0,146.0,146.0,,,,,,,,,,,,,,,,,,,,,,,,,,,,,,,,,,,,,1027.2963024429046,None,1027.2963024429046,None,1027.2963024429046,None,1.0,2.2894456738140434,1027.2963024429046,None,1027.2963024429046,None,1.0,2.745897921966389,1029.1292895178776,None,1027.2963024429046,None,1.0,3.3173782411031425,1029.5957011128776,None,1027.2963024429046,None,space,0.207305456046015,3.3394353799521923,None,1027.2963024429046,None,1027.2963024429046,None,,,,,,,,,1,2022_Apr_08_1211,SAR-soap,2021.1.2,
152,Trial # 148,Group1-stimuli/group1-block1/fake-group2-b1/encoded_Group2_IMG_0355.jpg,0,encoded_Group2_IMG_0355.jpg,,,,,0.0,147.0,147.0,147.0,,,,,,,,,,,,,,,,,,,,,,,,,,,,,,,,,,,,,1030.8966084839776,None,1030.8966084839776,None,1030.8966084839776,None,1.0,1.7439254419878123,1030.8966084839776,None,1030.8966084839776,None,1.0,2.3999886859674007,1032.1814657510258,None,1030.8966084839776,None,3.0,4.836664305999875,1032.8468320670072,None,1030.8966084839776,None,space,0.24111716193147,4.8616718736011535,None,1030.8966084839776,None,1030.8966084839776,None,,,,,,,,,1,2022_Apr_08_1211,SAR-soap,2021.1.2,
153,Trial # 149,Group1-stimuli/group1-block1/real-group1-b1/Group1_IMG_9765.jpg,1,Group1_IMG_9765.jpg,,,,,0.0,148.0,148.0,148.0,,,,,,,,,,,,,,,,,,,,,,,,,,,,,,,,,,,,,1036.0482555679046,None,1036.0482555679046,None,1036.0482555679046,None,5.0,2.191330461995676,1036.0482555679046,None,1036.0482555679046,None,2.0,3.7302107319701454,1037.782745531993,None,1036.0482555679046,None,3.0,4.5692488411441445,1039.3329511168413,None,1036.0482555679046,None,space,0.2043200379703194,4.590994472848252,None,1036.0482555679046,None,1036.0482555679046,None,,,,,,,,,1,2022_Apr_08_1211,SAR-soap,2021.1.2,
154,Trial # 150,Group1-stimuli/group1-block1/fake-group2-b1/encoded_Group2_IMG_1378.jpg,0,encoded_Group2_IMG_1378.jpg,,,,,0.0,149.0,149.0,149.0,,,,,,,,,,,,,,,,,,,,,,,,,,,,,,,,,,,,,1040.8998036019038,None,1040.8998036019038,None,1040.8998036019038,None,4.0,2.044177151983604,1040.8998036019038,None,1040.8998036019038,None,2.0,5.416430567856878,1042.4845783789642,None,1040.8998036019038,None,6.0,6.988404938951135,1044.7337168329395,None,1040.8998036019038,None,space,0.1983169980812817,7.013297077734023,None,1040.8998036019038,None,1040.8998036019038,None,,,,,,,,,1,2022_Apr_08_1211,SAR-soap,2021.1.2,
155,Trial # 1,Group1-stimuli/group1-block2/fake-group2-b2/encoded_Group2_IMG_0155.jpg,0,encoded_Group2_IMG_0155.jpg,,,,,,,,,0.0,0.0,0.0,0.0,,,,,,,,,,,,,,,,,,,,,,,,,,,,,,,,,1205.7168836349156,None,1205.7168836349156,None,1205.7168836349156,None,4.0,3.317062692018226,1205.7168836349156,None,1205.7168836349156,None,2.0,4.422223629895598,1208.5854265529197,None,1205.7168836349156,None,3.0,5.327154421946034,1209.7022683878895,None,1205.7168836349156,None,space,0.9363409620709716,5.358304742490873,None,1205.7168836349156,None,1205.7168836349156,None,1200.1320581040345,None,1200.1320581040345,None,1200.1320581040345,None,1047.6190817458555,None,1,2022_Apr_08_1211,SAR-soap,2021.1.2,
156,Trial # 2,Group1-stimuli/group1-block2/real-group1-b2/Group1_IMG_0519.jpg,1,Group1_IMG_0519.jpg,,,,,,,,,0.0,1.0,1.0,1.0,,,,,,,,,,,,,,,,,,,,,,,,,,,,,,,,,1212.0700530188624,None,1212.0700530188624,None,1212.0700530188624,None,3.0,3.530731111066416,1212.0700530188624,None,1212.0700530188624,None,1.0,4.687186317984015,1215.154086625902,None,1212.0700530188624,None,3.0,7.526757187908515,1216.320536718005,None,1212.0700530188624,None,space,1.4727144818753004,6.321624124189839,None,1212.0700530188624,None,1212.0700530188624,None,,,,,,,,,1,2022_Apr_08_1211,SAR-soap,2021.1.2,
157,Trial # 3,Group1-stimuli/group1-block2/fake-group2-b2/encoded_Group2_IMG_0135.jpg,0,encoded_Group2_IMG_0135.jpg,,,,,,,,,0.0,2.0,2.0,2.0,,,,,,,,,,,,,,,,,,,,,,,,,,,,,,,,,1219.937738728011,None,1219.937738728011,None,1219.937738728011,None,1.0,2.044629313983023,1219.937738728011,None,1219.937738728011,None,1.0,2.669828125042841,1221.5216089638416,None,1219.937738728011,None,1.0,3.6401165949646384,1222.1556024160236,None,1219.937738728011,None,space,0.5115708918310702,3.667148781241849,None,1219.937738728011,None,1219.937738728011,None,,,,,,,,,1,2022_Apr_08_1211,SAR-soap,2021.1.2,
158,Trial # 4,Group1-stimuli/group1-block2/real-group1-b2/Group1_IMG_5310.jpg,1,Group1_IMG_5310.jpg,,,,,,,,,0.0,3.0,3.0,3.0,,,,,,,,,,,,,,,,,,,,,,,,,,,,,,,,,1224.1892777839676,None,1224.1892777839676,None,1224.1892777839676,None,5.0,2.546029641991481,1224.1892777839676,None,1224.1892777839676,None,2.0,3.6690275229047984,1226.2907869128976,None,1224.1892777839676,None,6.0,4.808318239171058,1227.4245096349623,None,1224.1892777839676,None,space,0.1159809010569006,4.835466858698055,None,1224.1892777839676,None,1224.1892777839676,None,,,,,,,,,1,2022_Apr_08_1211,SAR-soap,2021.1.2,
159,Trial # 5,Group1-stimuli/group1-block2/real-group1-b2/Group1_IMG_0522.jpg,1,Group1_IMG_0522.jpg,,,,,,,,,0.0,4.0,4.0,4.0,,,,,,,,,,,,,,,,,,,,,,,,,,,,,,,,,1229.1918813348748,None,1229.1918813348748,None,1229.1918813348748,None,4.0,1.867228364106268,1229.1918813348748,None,1229.1918813348748,None,2.0,4.223257347010076,1230.608503988013,None,1229.1918813348748,None,3.0,6.130478512961417,1232.9763107618785,None,1229.1918813348748,None,space,0.2781562570016831,6.161774976179004,None,1229.1918813348748,None,1229.1918813348748,None,,,,,,,,,1,2022_Apr_08_1211,SAR-soap,2021.1.2,
160,Trial # 6,Group1-stimuli/group1-block2/fake-group2-b2/encoded_Group2_IMG_0484.jpg,0,encoded_Group2_IMG_0484.jpg,,,,,,,,,0.0,5.0,5.0,5.0,,,,,,,,,,,,,,,,,,,,,,,,,,,,,,,,,1235.6756494748406,None,1235.6756494748406,None,1235.6756494748406,None,1.0,1.7706133180763572,1235.6756494748406,None,1235.6756494748406,None,1.0,2.460269256029278,1236.9942064699717,None,1235.6756494748406,None,1.0,3.0643690288998187,1237.6944831579458,None,1235.6756494748406,None,space,0.2917313310317695,3.099160283105448,None,1235.6756494748406,None,1235.6756494748406,None,,,,,,,,,1,2022_Apr_08_1211,SAR-soap,2021.1.2,
161,Trial # 7,Group1-stimuli/group1-block2/fake-group2-b2/encoded_Group2_IMG_5948.jpg,0,encoded_Group2_IMG_5948.jpg,,,,,,,,,0.0,6.0,6.0,6.0,,,,,,,,,,,,,,,,,,,,,,,,,,,,,,,,,1239.078005158808,None,1239.078005158808,None,1239.078005158808,None,1.0,2.062063491204753,1239.078005158808,None,1239.078005158808,None,1.0,2.550524535123259,1240.6945122368634,None,1239.078005158808,None,1.0,3.091571254888549,1241.1944426349364,None,1239.078005158808,None,space,0.2723542090971023,3.1182977207936347,None,1239.078005158808,None,1239.078005158808,None,,,,,,,,,1,2022_Apr_08_1211,SAR-soap,2021.1.2,
162,Trial # 8,Group1-stimuli/group1-block2/fake-group2-b2/encoded_Group2_IMG_3591.jpg,0,encoded_Group2_IMG_3591.jpg,,,,,,,,,0.0,7.0,7.0,7.0,,,,,,,,,,,,,,,,,,,,,,,,,,,,,,,,,1242.5625338000243,None,1242.5625338000243,None,1242.5625338000243,None,1.0,2.085836000042036,1242.5625338000243,None,1242.5625338000243,None,1.0,2.7420061128214,1244.1956944239791,None,1242.5625338000243,None,2.0,3.3475036148447543,1244.8624675809406,None,1242.5625338000243,None,space,0.5157172109466046,3.380752806086093,None,1242.5625338000243,None,1242.5625338000243,None,,,,,,,,,1,2022_Apr_08_1211,SAR-soap,2021.1.2,
163,Trial # 9,Group1-stimuli/group1-block2/real-group1-b2/Group1_IMG_9835.jpg,1,Group1_IMG_9835.jpg,,,,,,,,,0.0,8.0,8.0,8.0,,,,,,,,,,,,,,,,,,,,,,,,,,,,,,,,,1246.4966718228534,None,1246.4966718228534,None,1246.4966718228534,None,1.0,1.5721649480983615,1246.4966718228534,None,1246.4966718228534,None,1.0,2.028749282937497,1247.613759203814,None,1246.4966718228534,None,1.0,2.500146276084706,1248.0799988820218,None,1246.4966718228534,None,space,0.2312414741609245,2.519466337515041,None,1246.4966718228534,None,1246.4966718228534,None,,,,,,,,,1,2022_Apr_08_1211,SAR-soap,2021.1.2,
164,Trial # 10,Group1-stimuli/group1-block2/real-group1-b2/Group1_IMG_0556.jpg,1,Group1_IMG_0556.jpg,,,,,,,,,0.0,9.0,9.0,9.0,,,,,,,,,,,,,,,,,,,,,,,,,,,,,,,,,1249.2811425628606,None,1249.2811425628606,None,1249.2811425628606,None,1.0,1.6606398110743612,1249.2811425628606,None,1249.2811425628606,None,1.0,2.349908108124509,1250.4815648018848,None,1249.2811425628606,None,3.0,2.955237996997312,1251.1813904459125,None,1249.2811425628606,None,space,0.1167743790429085,2.980584640754387,None,1249.2811425628606,None,1249.2811425628606,None,,,,,,,,,1,2022_Apr_08_1211,SAR-soap,2021.1.2,
165,Trial # 11,Group1-stimuli/group1-block2/fake-group2-b2/encoded_Group2_IMG_9736.jpg,0,encoded_Group2_IMG_9736.jpg,,,,,,,,,0.0,10.0,10.0,10.0,,,,,,,,,,,,,,,,,,,,,,,,,,,,,,,,,1252.4158370818477,None,1252.4158370818477,None,1252.4158370818477,None,4.0,1.8820232399739325,1252.4158370818477,None,1252.4158370818477,None,2.0,2.9385390072129667,1253.8490135879256,None,1252.4158370818477,None,1.0,3.775596169987693,1254.9153932658955,None,1252.4158370818477,None,space,0.133143515093252,3.806605268968269,None,1252.4158370818477,None,1252.4158370818477,None,,,,,,,,,1,2022_Apr_08_1211,SAR-soap,2021.1.2,
166,Trial # 12,Group1-stimuli/group1-block2/real-group1-b2/Group1_IMG_9867.jpg,1,Group1_IMG_9867.jpg,,,,,,,,,0.0,11.0,11.0,11.0,,,,,,,,,,,,,,,,,,,,,,,,,,,,,,,,,1256.4160309589934,None,1256.4160309589934,None,1256.4160309589934,None,1.0,1.7703837109729648,1256.4160309589934,None,1256.4160309589934,None,1.0,2.427925109863281,1257.7343246489763,None,1256.4160309589934,None,1.0,2.898686708882451,1258.4007519388106,None,1256.4160309589934,None,space,0.2073727359529584,2.932943494990468,None,1256.4160309589934,None,1256.4160309589934,None,,,,,,,,,1,2022_Apr_08_1211,SAR-soap,2021.1.2,
167,Trial # 13,Group1-stimuli/group1-block2/fake-group2-b2/encoded_Group2_IMG_9886.jpg,0,encoded_Group2_IMG_9886.jpg,,,,,,,,,0.0,12.0,12.0,12.0,,,,,,,,,,,,,,,,,,,,,,,,,,,,,,,,,1259.6005311310291,None,1259.6005311310291,None,1259.6005311310291,None,1.0,1.6115752540063113,1259.6005311310291,None,1259.6005311310291,None,1.0,2.167106000008061,1260.7512169708498,None,1259.6005311310291,None,2.0,3.1065829049330205,1261.316937530879,None,1259.6005311310291,None,space,-0.2410632390528917,3.132569630863145,None,1259.6005311310291,None,1259.6005311310291,None,,,,,,,,,1,2022_Apr_08_1211,SAR-soap,2021.1.2,
168,Trial # 14,Group1-stimuli/group1-block2/fake-group2-b2/encoded_Group2_IMG_2245.jpg,0,encoded_Group2_IMG_2245.jpg,,,,,,,,,0.0,13.0,13.0,13.0,,,,,,,,,,,,,,,,,,,,,,,,,,,,,,,,,1262.7520911479369,None,1262.7520911479369,None,1262.7520911479369,None,4.0,2.0426670738961548,1262.7520911479369,None,1262.7520911479369,None,1.0,2.999125757021829,1264.3351321599912,None,1262.7520911479369,None,4.0,3.8700048869941375,1265.3021938998718,None,1262.7520911479369,None,space,0.2254156109411269,3.893954447470605,None,1262.7520911479369,None,1262.7520911479369,None,,,,,,,,,1,2022_Apr_08_1211,SAR-soap,2021.1.2,
