,Trial_num,image_path,ground_truth,image_name,demos.thisRepN,demos.thisTrialN,demos.thisN,demos.thisIndex,block_1.thisRepN,block_1.thisTrialN,block_1.thisN,block_1.thisIndex,block_2.thisRepN,block_2.thisTrialN,block_2.thisN,block_2.thisIndex,text_3.started,text_3.stopped,Task.started,Task.stopped,text_10.started,text_10.stopped,key_resp.keys,key_resp.rt,key_resp.started,key_resp.stopped,image_2.started,image_2.stopped,text_5.started,text_5.stopped,image_3.started,image_3.stopped,text_6.started,text_6.stopped,translucency.started,translucency.stopped,see_throughness.started,see_throughness.stopped,glow.started,glow.stopped,key_resp_10.keys,key_resp_10.rt,key_resp_10.started,key_resp_10.stopped,instruction.started,instruction.stopped,text_12.started,text_12.stopped,Trial_number.started,Trial_number.stopped,image.started,image.stopped,Instruction.started,Instruction.stopped,translucency_score.response,translucency_score.rt,translucency_score.started,translucency_score.stopped,Translucency.started,Translucency.stopped,seethroughness_score.response,seethroughness_score.rt,seethroughness_score.started,seethroughness_score.stopped,SeeThroughness.started,SeeThroughness.stopped,glow_score.response,glow_score.rt,glow_score.started,glow_score.stopped,Glow.started,Glow.stopped,to_next.keys,to_next.rt,to_next.started,to_next.stopped,grading_label_left.started,grading_label_left.stopped,grading_label_right.started,grading_label_right.stopped,instruct1.started,instruct1.stopped,instruct2.started,instruct2.stopped,text_4.started,text_4.stopped,text_2.started,text_2.stopped,session,date,expName,psychopyVersion,Unnamed: 94
0,,,,,,,,,,,,,,,,,12.376736544072628,None,139.9835077279713,None,153.1419051908888,None,space,2.115857568802312,158.1103417999111,None,,,,,,,,,,,,,,,,,,,,,,,,,,,,,,,,,,,,,,,,,,,,,,,,,,,,,,,,,,,,,,,1,2022_Apr_07_1616,SAR-soap,2021.1.2,
1,,,,,,,,,,,,,,,,,,,,,,,,,,,160.71027912106365,None,160.71027912106365,None,223.4470018008724,None,223.4470018008724,None,230.398674152093,None,230.398674152093,None,230.398674152093,None,space,7.14758319593966,230.398674152093,None,,,,,,,,,,,,,,,,,,,,,,,,,,,,,,,,,,,,,,,,,,,,,1,2022_Apr_07_1616,SAR-soap,2021.1.2,
2,Demo 1,demo/Demo_IMG_0974.jpg,demo,Demo_IMG_0974.jpg,0.0,0.0,0.0,0.0,,,,,,,,,,,,,,,,,,,,,,,,,,,,,,,,,,,,,230.398674152093,None,237.5678675500676,None,243.5328788158949,None,243.5328788158949,None,243.5328788158949,None,1.0,229.8611504740548,243.5328788158949,None,243.5328788158949,None,4.0,231.15138616599145,388.8942602330353,None,243.5328788158949,None,4.0,233.2565780361183,474.2194647870492,None,243.5328788158949,None,space,-96.63643681397662,233.2791990488768,None,243.5328788158949,None,243.5328788158949,None,,,,,,,,,1,2022_Apr_07_1616,SAR-soap,2021.1.2,
3,Demo 2,demo/Demo_IMG_1024.jpg,demo,Demo_IMG_1024.jpg,0.0,1.0,1.0,1.0,,,,,,,,,,,,,,,,,,,,,,,,,,,,,,,,,,,,,,,,,476.8704564329237,None,476.8704564329237,None,476.8704564329237,None,1.0,2.5851041830610484,476.8704564329237,None,476.8704564329237,None,1.0,3.941771716112271,479.00476565002464,None,476.8704564329237,None,1.0,60.26357138995081,480.37189278099686,None,476.8704564329237,None,space,4.07537929690443,60.29551055864431,None,476.8704564329237,None,476.8704564329237,None,,,,,,,,,1,2022_Apr_07_1616,SAR-soap,2021.1.2,
4,Demo 3,demo/Demo_seed_80003.png,demo,Demo_seed_80003.png,0.0,2.0,2.0,2.0,,,,,,,,,,,,,,,,,,,,,,,,,,,,,,,,,,,,,,,,,541.3405471600126,None,541.3405471600126,None,541.3405471600126,None,5.0,7.694993185112253,541.3405471600126,None,541.3405471600126,None,6.0,11.15169076086022,548.577164046932,None,541.3405471600126,None,2.0,13.958699259208515,552.0434800679795,None,541.3405471600126,None,space,0.4151139969471842,13.981054331408814,None,541.3405471600126,None,541.3405471600126,None,,,,,,,,,1,2022_Apr_07_1616,SAR-soap,2021.1.2,
5,Trial # 1,Group1-stimuli/group1-block1/real-group1-b1/Group1_IMG_0022.jpg,1,Group1_IMG_0022.jpg,,,,,0.0,0.0,0.0,0.0,,,,,,,,,,,,,,,,,,,,,,,,,,,,,,,,,,,,,568.1652128470596,None,568.1652128470596,None,568.1652128470596,None,1.0,5.446145755937323,568.1652128470596,None,568.1652128470596,None,1.0,7.168887204956263,573.1681552350055,None,568.1652128470596,None,1.0,9.440351724857464,574.9014416069258,None,568.1652128470596,None,space,0.3791374680586159,9.471313796937466,None,568.1652128470596,None,568.1652128470596,None,555.7445400820579,None,555.7445400820579,None,555.7445400820579,None,,,1,2022_Apr_07_1616,SAR-soap,2021.1.2,
6,Trial # 2,Group1-stimuli/group1-block1/fake-group2-b1/encoded_Group2_IMG_0386.jpg,0,encoded_Group2_IMG_0386.jpg,,,,,0.0,1.0,1.0,1.0,,,,,,,,,,,,,,,,,,,,,,,,,,,,,,,,,,,,,578.0686286760028,None,578.0686286760028,None,578.0686286760028,None,3.0,4.809566447045654,578.0686286760028,None,578.0686286760028,None,3.0,7.649547090986744,582.420128819067,None,578.0686286760028,None,2.0,8.95666982815601,585.2707199000288,None,578.0686286760028,None,space,0.1604379310738295,8.97865930129774,None,578.0686286760028,None,578.0686286760028,None,,,,,,,,,1,2022_Apr_07_1616,SAR-soap,2021.1.2,
7,Trial # 3,Group1-stimuli/group1-block1/real-group1-b1/Group1_IMG_9704.jpg,1,Group1_IMG_9704.jpg,,,,,0.0,2.0,2.0,2.0,,,,,,,,,,,,,,,,,,,,,,,,,,,,,,,,,,,,,587.2370648139622,None,587.2370648139622,None,587.2370648139622,None,1.0,2.394904081011191,587.2370648139622,None,587.2370648139622,None,1.0,2.88436535699293,589.1725380870048,None,587.2370648139622,None,1.0,3.3564746961928904,589.6729118339717,None,587.2370648139622,None,space,0.1198400880675762,3.3826435934752226,None,587.2370648139622,None,587.2370648139622,None,,,,,,,,,1,2022_Apr_07_1616,SAR-soap,2021.1.2,
8,Trial # 4,Group1-stimuli/group1-block1/real-group1-b1/Group1_IMG_0406.jpg,1,Group1_IMG_0406.jpg,,,,,0.0,3.0,3.0,3.0,,,,,,,,,,,,,,,,,,,,,,,,,,,,,,,,,,,,,590.7728874930181,None,590.7728874930181,None,590.7728874930181,None,2.0,2.574056315934285,590.7728874930181,None,590.7728874930181,None,2.0,2.963889541104436,592.8891257559881,None,590.7728874930181,None,2.0,3.368146921042353,593.2907107039355,None,590.7728874930181,None,space,0.1208124000113457,3.3925591052975506,None,590.7728874930181,None,590.7728874930181,None,,,,,,,,,1,2022_Apr_07_1616,SAR-soap,2021.1.2,
9,Trial # 5,Group1-stimuli/group1-block1/fake-group2-b1/encoded_Group2_IMG_0364.jpg,0,encoded_Group2_IMG_0364.jpg,,,,,0.0,4.0,4.0,4.0,,,,,,,,,,,,,,,,,,,,,,,,,,,,,,,,,,,,,594.3229713658802,None,594.3229713658802,None,594.3229713658802,None,1.0,1.676499149063602,594.3229713658802,None,594.3229713658802,None,1.0,1.9985403730534017,595.5411718708929,None,594.3229713658802,None,1.0,2.337373253889382,595.8739289110526,None,594.3229713658802,None,space,0.1394739979878068,2.362365728244185,None,594.3229713658802,None,594.3229713658802,None,,,,,,,,,1,2022_Apr_07_1616,SAR-soap,2021.1.2,
10,Trial # 6,Group1-stimuli/group1-block1/fake-group2-b1/encoded_Group2_IMG_0407.jpg,0,encoded_Group2_IMG_0407.jpg,,,,,0.0,5.0,5.0,5.0,,,,,,,,,,,,,,,,,,,,,,,,,,,,,,,,,,,,,596.8743229799438,None,596.8743229799438,None,596.8743229799438,None,1.0,1.9274255170021208,596.8743229799438,None,596.8743229799438,None,1.0,2.2171049979515374,598.3416599640623,None,596.8743229799438,None,1.0,2.8224804010242224,598.6424097020645,None,596.8743229799438,None,space,0.1058931490406394,2.8459394960664213,None,596.8743229799438,None,596.8743229799438,None,,,,,,,,,1,2022_Apr_07_1616,SAR-soap,2021.1.2,
11,Trial # 7,Group1-stimuli/group1-block1/real-group1-b1/Group1_IMG_0428.jpg,1,Group1_IMG_0428.jpg,,,,,0.0,6.0,6.0,6.0,,,,,,,,,,,,,,,,,,,,,,,,,,,,,,,,,,,,,599.8759259800427,None,599.8759259800427,None,599.8759259800427,None,4.0,2.588883290067315,599.8759259800427,None,599.8759259800427,None,5.0,3.5119981279131025,602.0094835350756,None,599.8759259800427,None,3.0,5.552516366820782,602.9420051849447,None,599.8759259800427,None,space,0.0991268849465996,5.572156798327342,None,599.8759259800427,None,599.8759259800427,None,,,,,,,,,1,2022_Apr_07_1616,SAR-soap,2021.1.2,
12,Trial # 8,Group1-stimuli/group1-block1/fake-group2-b1/encoded_Group2_IMG_0474.jpg,0,encoded_Group2_IMG_0474.jpg,,,,,0.0,7.0,7.0,7.0,,,,,,,,,,,,,,,,,,,,,,,,,,,,,,,,,,,,,605.5772232790478,None,605.5772232790478,None,605.5772232790478,None,1.0,1.5932818909641355,605.5772232790478,None,605.5772232790478,None,1.0,1.9160612439736724,606.7102599069476,None,605.5772232790478,None,1.0,2.554179440950975,607.0439201719128,None,605.5772232790478,None,space,0.086628888035193,2.578073986340314,None,605.5772232790478,None,605.5772232790478,None,,,,,,,,,1,2022_Apr_07_1616,SAR-soap,2021.1.2,
13,Trial # 9,Group1-stimuli/group1-block1/fake-group2-b1/encoded_Group2_IMG_1506.jpg,0,encoded_Group2_IMG_1506.jpg,,,,,0.0,8.0,8.0,8.0,,,,,,,,,,,,,,,,,,,,,,,,,,,,,,,,,,,,,608.2782340510748,None,608.2782340510748,None,608.2782340510748,None,5.0,2.5440614381805062,608.2782340510748,None,608.2782340510748,None,5.0,2.865683767013252,610.3623821788933,None,608.2782340510748,None,4.0,3.6702812961302698,610.69516023295,None,608.2782340510748,None,space,0.2755978610366583,3.696326269302517,None,608.2782340510748,None,608.2782340510748,None,,,,,,,,,1,2022_Apr_07_1616,SAR-soap,2021.1.2,
14,Trial # 10,Group1-stimuli/group1-block1/real-group1-b1/Group1_IMG_9789.jpg,1,Group1_IMG_9789.jpg,,,,,0.0,9.0,9.0,9.0,,,,,,,,,,,,,,,,,,,,,,,,,,,,,,,,,,,,,612.2954087860417,None,612.2954087860417,None,612.2954087860417,None,1.0,1.4435205080080775,612.2954087860417,None,612.2954087860417,None,1.0,1.7495800671167672,613.2648060449865,None,612.2954087860417,None,1.0,2.355412227101624,613.5962151880376,None,612.2954087860417,None,space,0.1186829849611967,2.379392196191475,None,612.2954087860417,None,612.2954087860417,None,,,,,,,,,1,2022_Apr_07_1616,SAR-soap,2021.1.2,
15,Trial # 11,Group1-stimuli/group1-block1/real-group1-b1/Group1_IMG_9778.jpg,1,Group1_IMG_9778.jpg,,,,,0.0,10.0,10.0,10.0,,,,,,,,,,,,,,,,,,,,,,,,,,,,,,,,,,,,,614.8301799620967,None,614.8301799620967,None,614.8301799620967,None,3.0,1.778427273966372,614.8301799620967,None,614.8301799620967,None,4.0,2.300918465014547,616.1463404519018,None,614.8301799620967,None,3.0,2.907406287966296,616.6799917339813,None,614.8301799620967,None,space,0.2835272750817239,2.931867921259254,None,614.8301799620967,None,614.8301799620967,None,,,,,,,,,1,2022_Apr_07_1616,SAR-soap,2021.1.2,
16,Trial # 12,Group1-stimuli/group1-block1/real-group1-b1/Group1_IMG_9813.jpg,1,Group1_IMG_9813.jpg,,,,,0.0,11.0,11.0,11.0,,,,,,,,,,,,,,,,,,,,,,,,,,,,,,,,,,,,,618.0804451089352,None,618.0804451089352,None,618.0804451089352,None,1.0,1.46214141510427,618.0804451089352,None,618.0804451089352,None,1.0,2.1168394121341407,619.0814200579189,None,618.0804451089352,None,1.0,2.3571258259471506,619.7481360689271,None,618.0804451089352,None,space,0.2864305118564516,2.381539531517774,None,618.0804451089352,None,618.0804451089352,None,,,,,,,,,1,2022_Apr_07_1616,SAR-soap,2021.1.2,
17,Trial # 13,Group1-stimuli/group1-block1/real-group1-b1/Group1_IMG_0516.jpg,1,Group1_IMG_0516.jpg,,,,,0.0,12.0,12.0,12.0,,,,,,,,,,,,,,,,,,,,,,,,,,,,,,,,,,,,,620.7814126969315,None,620.7814126969315,None,620.7814126969315,None,4.0,2.394085264997557,620.7814126969315,None,620.7814126969315,None,4.0,2.7833360240329057,622.7157544640359,None,620.7814126969315,None,4.0,3.1888771259691566,623.1161848159973,None,620.7814126969315,None,space,0.0877165710553526,3.214138498296961,None,620.7814126969315,None,620.7814126969315,None,,,,,,,,,1,2022_Apr_07_1616,SAR-soap,2021.1.2,
18,Trial # 14,Group1-stimuli/group1-block1/fake-group2-b1/encoded_Group2_IMG_0038.jpg,0,encoded_Group2_IMG_0038.jpg,,,,,0.0,13.0,13.0,13.0,,,,,,,,,,,,,,,,,,,,,,,,,,,,,,,,,,,,,624.1162813829724,None,624.1162813829724,None,624.1162813829724,None,1.0,1.242567677050829,624.1162813829724,None,624.1162813829724,None,2.0,2.3651221038307995,624.8997633939143,None,624.1162813829724,None,1.0,2.8710877909325063,626.0336845400743,None,624.1162813829724,None,space,0.110152345849201,2.8955022203736007,None,624.1162813829724,None,624.1162813829724,None,,,,,,,,,1,2022_Apr_07_1616,SAR-soap,2021.1.2,
19,Trial # 15,Group1-stimuli/group1-block1/real-group1-b1/Group1_IMG_5984.jpg,1,Group1_IMG_5984.jpg,,,,,0.0,14.0,14.0,14.0,,,,,,,,,,,,,,,,,,,,,,,,,,,,,,,,,,,,,627.1665867699776,None,627.1665867699776,None,627.1665867699776,None,1.0,1.5450132109690458,627.1665867699776,None,627.1665867699776,None,1.0,1.8341511350590736,628.2516959570348,None,627.1665867699776,None,1.0,2.106479041045532,628.5513598460238,None,627.1665867699776,None,space,0.1861888039857149,2.13181219343096,None,627.1665867699776,None,627.1665867699776,None,,,,,,,,,1,2022_Apr_07_1616,SAR-soap,2021.1.2,
20,Trial # 16,Group1-stimuli/group1-block1/real-group1-b1/Group1_IMG_0383.jpg,1,Group1_IMG_0383.jpg,,,,,0.0,15.0,15.0,15.0,,,,,,,,,,,,,,,,,,,,,,,,,,,,,,,,,,,,,629.5181964559015,None,629.5181964559015,None,629.5181964559015,None,3.0,2.156552084023133,629.5181964559015,None,629.5181964559015,None,4.0,4.046029461082071,631.2175125100184,None,629.5181964559015,None,5.0,5.18583052395843,633.1185012450442,None,629.5181964559015,None,space,0.094956908840686,5.206928552361205,None,629.5181964559015,None,629.5181964559015,None,,,,,,,,,1,2022_Apr_07_1616,SAR-soap,2021.1.2,
21,Trial # 17,Group1-stimuli/group1-block1/fake-group2-b1/encoded_Group2_IMG_0456.jpg,0,encoded_Group2_IMG_0456.jpg,,,,,0.0,16.0,16.0,16.0,,,,,,,,,,,,,,,,,,,,,,,,,,,,,,,,,,,,,634.8522926978767,None,634.8522926978767,None,634.8522926978767,None,3.0,2.543029770022258,634.8522926978767,None,634.8522926978767,None,4.0,2.0823291500564665,636.0028036988806,None,634.8522926978767,None,5.0,3.8215998231898993,636.4860873909201,None,634.8522926978767,None,space,0.0947339630220085,3.845951015362516,None,634.8522926978767,None,634.8522926978767,None,,,,,,,,,1,2022_Apr_07_1616,SAR-soap,2021.1.2,
22,Trial # 18,Group1-stimuli/group1-block1/fake-group2-b1/encoded_Group2_IMG_8390.jpg,0,encoded_Group2_IMG_8390.jpg,,,,,0.0,17.0,17.0,17.0,,,,,,,,,,,,,,,,,,,,,,,,,,,,,,,,,,,,,638.804146938026,None,638.804146938026,None,638.804146938026,None,4.0,1.8985811749007555,638.804146938026,None,638.804146938026,None,3.0,2.5534603921696544,640.2545599238947,None,638.804146938026,None,2.0,3.325107145123184,640.9205476969946,None,638.804146938026,None,space,0.1159724278841167,3.3549190561752766,None,638.804146938026,None,638.804146938026,None,,,,,,,,,1,2022_Apr_07_1616,SAR-soap,2021.1.2,
23,Trial # 19,Group1-stimuli/group1-block1/real-group1-b1/Group1_IMG_0011.jpg,1,Group1_IMG_0011.jpg,,,,,0.0,18.0,18.0,18.0,,,,,,,,,,,,,,,,,,,,,,,,,,,,,,,,,,,,,642.3204843499698,None,642.3204843499698,None,642.3204843499698,None,4.0,1.7924918290227652,642.3204843499698,None,642.3204843499698,None,4.0,2.5154791129753,643.6567418719642,None,642.3204843499698,None,3.0,3.5870548530947417,644.3896359559149,None,642.3204843499698,None,space,-0.2839811248704791,3.60881190514192,None,642.3204843499698,None,642.3204843499698,None,,,,,,,,,1,2022_Apr_07_1616,SAR-soap,2021.1.2,
24,Trial # 20,Group1-stimuli/group1-block1/fake-group2-b1/encoded_Group2_IMG_0328.jpg,0,encoded_Group2_IMG_0328.jpg,,,,,0.0,19.0,19.0,19.0,,,,,,,,,,,,,,,,,,,,,,,,,,,,,,,,,,,,,645.939687580103,None,645.939687580103,None,645.939687580103,None,1.0,1.3981475729960948,645.939687580103,None,645.939687580103,None,1.0,1.6869169790297749,646.8891177559271,None,645.939687580103,None,1.0,2.025572634069249,647.188858543057,None,645.939687580103,None,space,-1.951125758932904,2.055093880277127,None,645.939687580103,None,645.939687580103,None,,,,,,,,,1,2022_Apr_07_1616,SAR-soap,2021.1.2,
25,Trial # 21,Group1-stimuli/group1-block1/fake-group2-b1/encoded_Group2_IMG_0163.jpg,0,encoded_Group2_IMG_0163.jpg,,,,,0.0,20.0,20.0,20.0,,,,,,,,,,,,,,,,,,,,,,,,,,,,,,,,,,,,,648.0056829270907,None,648.0056829270907,None,648.0056829270907,None,2.0,1.5988519589882344,648.0056829270907,None,648.0056829270907,None,3.0,1.9875089039560407,649.1572391248774,None,648.0056829270907,None,4.0,3.060076244175434,649.5571304669138,None,648.0056829270907,None,space,-0.2762751828413456,3.0881795592140406,None,648.0056829270907,None,648.0056829270907,None,,,,,,,,,1,2022_Apr_07_1616,SAR-soap,2021.1.2,
26,Trial # 22,Group1-stimuli/group1-block1/real-group1-b1/Group1_IMG_9862.jpg,1,Group1_IMG_9862.jpg,,,,,0.0,21.0,21.0,21.0,,,,,,,,,,,,,,,,,,,,,,,,,,,,,,,,,,,,,651.1239961159881,None,651.1239961159881,None,651.1239961159881,None,1.0,1.4448970989324152,651.1239961159881,None,651.1239961159881,None,1.0,1.7335869900416585,652.107681308873,None,651.1239961159881,None,1.0,2.3727018111385405,652.4082235470414,None,651.1239961159881,None,space,-2.2941198099870235,2.3985424381680787,None,651.1239961159881,None,651.1239961159881,None,,,,,,,,,1,2022_Apr_07_1616,SAR-soap,2021.1.2,
27,Trial # 23,Group1-stimuli/group1-block1/fake-group2-b1/encoded_Group2_IMG_0296.jpg,0,encoded_Group2_IMG_0296.jpg,,,,,0.0,22.0,22.0,22.0,,,,,,,,,,,,,,,,,,,,,,,,,,,,,,,,,,,,,653.524734773906,None,653.524734773906,None,653.524734773906,None,5.0,3.0472946709487587,653.524734773906,None,653.524734773906,None,5.0,3.786399287171662,654.9096574799623,None,653.524734773906,None,4.0,4.492445168085396,656.8755154910032,None,653.524734773906,None,space,-4.476703121094033,4.520654796389863,None,653.524734773906,None,653.524734773906,None,,,,,,,,,1,2022_Apr_07_1616,SAR-soap,2021.1.2,
28,Trial # 24,Group1-stimuli/group1-block1/fake-group2-b1/encoded_Group2_IMG_0503.jpg,0,encoded_Group2_IMG_0503.jpg,,,,,0.0,23.0,23.0,23.0,,,,,,,,,,,,,,,,,,,,,,,,,,,,,,,,,,,,,658.0603357648943,None,658.0603357648943,None,658.0603357648943,None,5.0,1.4973753029480577,658.0603357648943,None,658.0603357648943,None,4.0,2.1531488860491663,659.1106797400862,None,658.0603357648943,None,5.0,2.725501843029633,659.7764869960956,None,658.0603357648943,None,space,-2.6764502031728625,2.7535650292411447,None,658.0603357648943,None,658.0603357648943,None,,,,,,,,,1,2022_Apr_07_1616,SAR-soap,2021.1.2,
29,Trial # 25,Group1-stimuli/group1-block1/fake-group2-b1/encoded_Group2_IMG_9804.jpg,0,encoded_Group2_IMG_9804.jpg,,,,,0.0,24.0,24.0,24.0,,,,,,,,,,,,,,,,,,,,,,,,,,,,,,,,,,,,,660.8269342759158,None,660.8269342759158,None,660.8269342759158,None,1.0,1.5297389100305736,660.8269342759158,None,660.8269342759158,None,1.0,1.9527597960550336,661.9102505240589,None,660.8269342759158,None,1.0,2.3243749390821904,662.3447131300345,None,660.8269342759158,None,space,-2.259383235126734,2.3543279983568937,None,660.8269342759158,None,660.8269342759158,None,,,,,,,,,1,2022_Apr_07_1616,SAR-soap,2021.1.2,
30,Trial # 26,Group1-stimuli/group1-block1/real-group1-b1/Group1_IMG_0391.jpg,1,Group1_IMG_0391.jpg,,,,,0.0,25.0,25.0,25.0,,,,,,,,,,,,,,,,,,,,,,,,,,,,,,,,,,,,,663.2114218499046,None,663.2114218499046,None,663.2114218499046,None,4.0,1.8590878508985045,663.2114218499046,None,663.2114218499046,None,4.0,2.213469455949962,664.6130177490413,None,663.2114218499046,None,3.0,2.787374464096501,664.9792166489642,None,663.2114218499046,None,space,-2.725429375190288,2.808296537492424,None,663.2114218499046,None,663.2114218499046,None,,,,,,,,,1,2022_Apr_07_1616,SAR-soap,2021.1.2,
31,Trial # 27,Group1-stimuli/group1-block1/fake-group2-b1/encoded_Group2_IMG_3584.jpg,0,encoded_Group2_IMG_3584.jpg,,,,,0.0,26.0,26.0,26.0,,,,,,,,,,,,,,,,,,,,,,,,,,,,,,,,,,,,,666.0448811738752,None,666.0448811738752,None,666.0448811738752,None,3.0,1.810723101021722,666.0448811738752,None,666.0448811738752,None,4.0,2.516886221943423,666.9455691729672,None,666.0448811738752,None,3.0,3.0562892130110413,668.1129826970864,None,666.0448811738752,None,space,-2.858544029062614,3.0803216544445604,None,666.0448811738752,None,666.0448811738752,None,,,,,,,,,1,2022_Apr_07_1616,SAR-soap,2021.1.2,
32,Trial # 28,Group1-stimuli/group1-block1/fake-group2-b1/encoded_Group2_IMG_0434.jpg,0,encoded_Group2_IMG_0434.jpg,,,,,0.0,27.0,27.0,27.0,,,,,,,,,,,,,,,,,,,,,,,,,,,,,,,,,,,,,669.146580087021,None,669.146580087021,None,669.146580087021,None,5.0,1.9271771269850435,669.146580087021,None,669.146580087021,None,5.0,2.649630929110572,670.6140004780609,None,669.146580087021,None,4.0,3.388511067954824,671.3463931488805,None,669.146580087021,None,space,0.6912918919697404,3.4135223522316664,None,669.146580087021,None,669.146580087021,None,,,,,,,,,1,2022_Apr_07_1616,SAR-soap,2021.1.2,
33,Trial # 29,Group1-stimuli/group1-block1/fake-group2-b1/encoded_Group2_IMG_9575.jpg,0,encoded_Group2_IMG_9575.jpg,,,,,0.0,28.0,28.0,28.0,,,,,,,,,,,,,,,,,,,,,,,,,,,,,,,,,,,,,673.2647489740048,None,673.2647489740048,None,673.2647489740048,None,2.0,5.665559816872701,673.2647489740048,None,673.2647489740048,None,2.0,6.238552537048236,674.4661489499267,None,673.2647489740048,None,2.0,6.943189230980352,674.8980731489137,None,673.2647489740048,None,space,4.490242578089237,2.671382832340896,None,673.2647489740048,None,673.2647489740048,None,,,,,,,,,1,2022_Apr_07_1616,SAR-soap,2021.1.2,
34,Trial # 30,Group1-stimuli/group1-block1/fake-group2-b1/encoded_Group2_IMG_1025.jpg,0,encoded_Group2_IMG_1025.jpg,,,,,0.0,29.0,29.0,29.0,,,,,,,,,,,,,,,,,,,,,,,,,,,,,,,,,,,,,680.4502393519506,None,680.4502393519506,None,680.4502393519506,None,1.0,1.0632942719385028,680.4502393519506,None,680.4502393519506,None,1.0,1.418859703000635,681.0680376109667,None,680.4502393519506,None,1.0,1.7248914090450853,681.4338256958872,None,680.4502393519506,None,space,0.4053021408617496,1.7521837714593858,None,680.4502393519506,None,680.4502393519506,None,,,,,,,,,1,2022_Apr_07_1616,SAR-soap,2021.1.2,
35,Trial # 31,Group1-stimuli/group1-block1/real-group1-b1/Group1_IMG_0502.jpg,1,Group1_IMG_0502.jpg,,,,,0.0,30.0,30.0,30.0,,,,,,,,,,,,,,,,,,,,,,,,,,,,,,,,,,,,,682.6665093090851,None,682.6665093090851,None,682.6665093090851,None,5.0,2.2129820669069886,682.6665093090851,None,682.6665093090851,None,4.0,2.734231045935303,684.4186904330272,None,682.6665093090851,None,4.0,4.606416024966165,684.9517995039932,None,682.6665093090851,None,space,0.4174617319367826,4.631661606486887,None,682.6665093090851,None,682.6665093090851,None,,,,,,,,,1,2022_Apr_07_1616,SAR-soap,2021.1.2,
36,Trial # 32,Group1-stimuli/group1-block1/real-group1-b1/Group1_IMG_0182.jpg,1,Group1_IMG_0182.jpg,,,,,0.0,31.0,31.0,31.0,,,,,,,,,,,,,,,,,,,,,,,,,,,,,,,,,,,,,687.7524572270922,None,687.7524572270922,None,687.7524572270922,None,5.0,1.7954355019610375,687.7524572270922,None,687.7524572270922,None,5.0,2.1847749811131507,689.0868172089104,None,687.7524572270922,None,5.0,2.7887360430322587,689.4859324439894,None,687.7524572270922,None,space,0.1656073869671672,2.8142039594240487,None,687.7524572270922,None,687.7524572270922,None,,,,,,,,,1,2022_Apr_07_1616,SAR-soap,2021.1.2,
37,Trial # 33,Group1-stimuli/group1-block1/fake-group2-b1/encoded_Group2_IMG_2728.jpg,0,encoded_Group2_IMG_2728.jpg,,,,,0.0,32.0,32.0,32.0,,,,,,,,,,,,,,,,,,,,,,,,,,,,,,,,,,,,,690.7357711188961,None,690.7357711188961,None,690.7357711188961,None,1.0,1.4634446799755096,690.7357711188961,None,690.7357711188961,None,1.0,1.820487719029188,691.7535987459123,None,690.7357711188961,None,1.0,2.3905621159356087,692.1203564519528,None,690.7357711188961,None,space,0.1091301671694964,2.4198680494446307,None,690.7357711188961,None,690.7357711188961,None,,,,,,,,,1,2022_Apr_07_1616,SAR-soap,2021.1.2,
38,Trial # 34,Group1-stimuli/group1-block1/fake-group2-b1/encoded_Group2_IMG_4867.jpg,0,encoded_Group2_IMG_4867.jpg,,,,,0.0,33.0,33.0,33.0,,,,,,,,,,,,,,,,,,,,,,,,,,,,,,,,,,,,,693.30483319005,None,693.30483319005,None,693.30483319005,None,3.0,2.8165110221598297,693.30483319005,None,693.30483319005,None,3.0,3.338677925989032,695.6725215029437,None,693.30483319005,None,2.0,3.809174631955102,696.2043675919995,None,693.30483319005,None,space,0.1157797549385577,3.839829781325534,None,693.30483319005,None,693.30483319005,None,,,,,,,,,1,2022_Apr_07_1616,SAR-soap,2021.1.2,
39,Trial # 35,Group1-stimuli/group1-block1/real-group1-b1/Group1_IMG_9894.jpg,1,Group1_IMG_9894.jpg,,,,,0.0,34.0,34.0,34.0,,,,,,,,,,,,,,,,,,,,,,,,,,,,,,,,,,,,,697.3051488948986,None,697.3051488948986,None,697.3051488948986,None,1.0,1.3771738158538938,697.3051488948986,None,697.3051488948986,None,1.0,1.967115426901728,698.2225984539837,None,697.3051488948986,None,1.0,2.4055547460448,698.8228283699136,None,697.3051488948986,None,space,0.2441001399420201,2.4302952790167183,None,697.3051488948986,None,697.3051488948986,None,,,,,,,,,1,2022_Apr_07_1616,SAR-soap,2021.1.2,
40,Trial # 36,Group1-stimuli/group1-block1/fake-group2-b1/encoded_Group2_IMG_0444.jpg,0,encoded_Group2_IMG_0444.jpg,,,,,0.0,35.0,35.0,35.0,,,,,,,,,,,,,,,,,,,,,,,,,,,,,,,,,,,,,700.006168918917,None,700.006168918917,None,700.006168918917,None,1.0,1.846329677151516,700.006168918917,None,700.006168918917,None,1.0,2.16941114095971,701.4073429300915,None,700.006168918917,None,1.0,2.508340188069269,701.7395767760463,None,700.006168918917,None,space,0.1380505310371518,2.5368478703312576,None,700.006168918917,None,700.006168918917,None,,,,,,,,,1,2022_Apr_07_1616,SAR-soap,2021.1.2,
41,Trial # 37,Group1-stimuli/group1-block1/real-group1-b1/Group1_IMG_2656.jpg,1,Group1_IMG_2656.jpg,,,,,0.0,36.0,36.0,36.0,,,,,,,,,,,,,,,,,,,,,,,,,,,,,,,,,,,,,702.7400887419935,None,702.7400887419935,None,702.7400887419935,None,1.0,1.3618141131009909,702.7400887419935,None,702.7400887419935,None,1.0,1.9844229000154885,703.6415771550965,None,702.7400887419935,None,1.0,2.322745305020362,704.2747118140105,None,702.7400887419935,None,space,0.1391112930141389,2.3489469790365547,None,702.7400887419935,None,702.7400887419935,None,,,,,,,,,1,2022_Apr_07_1616,SAR-soap,2021.1.2,
42,Trial # 38,Group1-stimuli/group1-block1/real-group1-b1/Group1_IMG_0207.jpg,1,Group1_IMG_0207.jpg,,,,,0.0,37.0,37.0,37.0,,,,,,,,,,,,,,,,,,,,,,,,,,,,,,,,,,,,,705.2746109990403,None,705.2746109990403,None,705.2746109990403,None,1.0,1.2906197300180793,705.2746109990403,None,705.2746109990403,None,1.0,2.312468889169395,706.1078002420254,None,705.2746109990403,None,1.0,2.9511512329336256,707.1405323080253,None,705.2746109990403,None,space,0.1251454600133001,2.9727103994227946,None,705.2746109990403,None,705.2746109990403,None,,,,,,,,,1,2022_Apr_07_1616,SAR-soap,2021.1.2,
43,Trial # 39,Group1-stimuli/group1-block1/real-group1-b1/Group1_IMG_9638.jpg,1,Group1_IMG_9638.jpg,,,,,0.0,38.0,38.0,38.0,,,,,,,,,,,,,,,,,,,,,,,,,,,,,,,,,,,,,708.4093457260169,None,708.4093457260169,None,708.4093457260169,None,2.0,3.023785738972947,708.4093457260169,None,708.4093457260169,None,2.0,4.013127950951457,710.97630711901,None,708.4093457260169,None,5.0,4.552643659990281,711.776804883033,None,708.4093457260169,None,space,0.1421216719318181,4.573991316370666,None,708.4093457260169,None,708.4093457260169,None,,,,,,,,,1,2022_Apr_07_1616,SAR-soap,2021.1.2,
44,Trial # 40,Group1-stimuli/group1-block1/real-group1-b1/Group1_IMG_0148.jpg,1,Group1_IMG_0148.jpg,,,,,0.0,39.0,39.0,39.0,,,,,,,,,,,,,,,,,,,,,,,,,,,,,,,,,,,,,713.1771978070028,None,713.1771978070028,None,713.1771978070028,None,4.0,1.6295721388887614,713.1771978070028,None,713.1771978070028,None,4.0,2.25185224507004,714.3448619269766,None,713.1771978070028,None,3.0,2.758009620010853,714.9769118488766,None,713.1771978070028,None,space,0.2455960689112544,2.783351799007505,None,713.1771978070028,None,713.1771978070028,None,,,,,,,,,1,2022_Apr_07_1616,SAR-soap,2021.1.2,
45,Trial # 41,Group1-stimuli/group1-block1/real-group1-b1/Group1_IMG_2891.jpg,1,Group1_IMG_2891.jpg,,,,,0.0,40.0,40.0,40.0,,,,,,,,,,,,,,,,,,,,,,,,,,,,,,,,,,,,,716.2445976128802,None,716.2445976128802,None,716.2445976128802,None,1.0,1.8283203849568963,716.2445976128802,None,716.2445976128802,None,1.0,2.184433962916956,717.6108076409437,None,716.2445976128802,None,1.0,2.49116845196113,717.9782285538968,None,716.2445976128802,None,space,0.2281235610134899,2.51750450138934,None,716.2445976128802,None,716.2445976128802,None,,,,,,,,,1,2022_Apr_07_1616,SAR-soap,2021.1.2,
46,Trial # 42,Group1-stimuli/group1-block1/real-group1-b1/Group1_IMG_0157.jpg,1,Group1_IMG_0157.jpg,,,,,0.0,41.0,41.0,41.0,,,,,,,,,,,,,,,,,,,,,,,,,,,,,,,,,,,,,719.0122576800641,None,719.0122576800641,None,719.0122576800641,None,2.0,1.9595650180708617,719.0122576800641,None,719.0122576800641,None,3.0,2.4488612189888954,720.5127257769927,None,719.0122576800641,None,4.0,3.08787581208162,721.011996580055,None,719.0122576800641,None,space,0.2619696490000933,3.112970177549869,None,719.0122576800641,None,719.0122576800641,None,,,,,,,,,1,2022_Apr_07_1616,SAR-soap,2021.1.2,
47,Trial # 43,Group1-stimuli/group1-block1/real-group1-b1/Group1_IMG_9833.jpg,1,Group1_IMG_9833.jpg,,,,,0.0,42.0,42.0,42.0,,,,,,,,,,,,,,,,,,,,,,,,,,,,,,,,,,,,,722.4129410060123,None,722.4129410060123,None,722.4129410060123,None,1.0,1.362285983050242,722.4129410060123,None,722.4129410060123,None,1.0,1.750231470912695,723.3137287290301,None,722.4129410060123,None,1.0,2.422414844855666,723.7133772019297,None,722.4129410060123,None,space,-0.0491476580500602,2.4479087095242,None,722.4129410060123,None,722.4129410060123,None,,,,,,,,,1,2022_Apr_07_1616,SAR-soap,2021.1.2,
48,Trial # 44,Group1-stimuli/group1-block1/fake-group2-b1/encoded_Group2_IMG_2230.jpg,0,encoded_Group2_IMG_2230.jpg,,,,,0.0,43.0,43.0,43.0,,,,,,,,,,,,,,,,,,,,,,,,,,,,,,,,,,,,,724.8640391319059,None,724.8640391319059,None,724.8640391319059,None,2.0,2.096599569078535,724.8640391319059,None,724.8640391319059,None,2.0,2.6203817629721016,726.5138836659025,None,724.8640391319059,None,2.0,2.9913857909850776,727.0472423429601,None,724.8640391319059,None,space,0.1176771889440715,3.0204880121164024,None,724.8640391319059,None,724.8640391319059,None,,,,,,,,,1,2022_Apr_07_1616,SAR-soap,2021.1.2,
49,Trial # 45,Group1-stimuli/group1-block1/real-group1-b1/Group1_IMG_9966.jpg,1,Group1_IMG_9966.jpg,,,,,0.0,44.0,44.0,44.0,,,,,,,,,,,,,,,,,,,,,,,,,,,,,,,,,,,,,728.0471301858779,None,728.0471301858779,None,728.0471301858779,None,2.0,2.258858021115884,728.0471301858779,None,728.0471301858779,None,3.0,2.847750111017376,729.8489411370829,None,728.0471301858779,None,6.0,4.85217278287746,730.448566443054,None,728.0471301858779,None,space,0.9227945369202644,4.275368370581418,None,728.0471301858779,None,728.0471301858779,None,,,,,,,,,1,2022_Apr_07_1616,SAR-soap,2021.1.2,
50,Trial # 46,Group1-stimuli/group1-block1/real-group1-b1/Group1_IMG_0239.jpg,1,Group1_IMG_0239.jpg,,,,,0.0,45.0,45.0,45.0,,,,,,,,,,,,,,,,,,,,,,,,,,,,,,,,,,,,,733.283636166947,None,733.283636166947,None,733.283636166947,None,1.0,1.5786660448648036,733.283636166947,None,733.283636166947,None,1.0,1.901040007127449,734.4005567259155,None,733.283636166947,None,1.0,2.5076602860353887,734.7343701780774,None,733.283636166947,None,space,0.0775234729517251,2.533123338362202,None,733.283636166947,None,733.283636166947,None,,,,,,,,,1,2022_Apr_07_1616,SAR-soap,2021.1.2,
51,Trial # 47,Group1-stimuli/group1-block1/fake-group2-b1/encoded_Group2_IMG_0536.jpg,0,encoded_Group2_IMG_0536.jpg,,,,,0.0,46.0,46.0,46.0,,,,,,,,,,,,,,,,,,,,,,,,,,,,,,,,,,,,,735.9166304839309,None,735.9166304839309,None,735.9166304839309,None,1.0,1.5980675499886274,735.9166304839309,None,735.9166304839309,None,1.0,2.253111444180832,737.0671144330408,None,735.9166304839309,None,1.0,2.726478359894827,737.7339147638995,None,735.9166304839309,None,space,0.0974149170797318,2.7557004513219,None,735.9166304839309,None,735.9166304839309,None,,,,,,,,,1,2022_Apr_07_1616,SAR-soap,2021.1.2,
52,Trial # 48,Group1-stimuli/group1-block1/fake-group2-b1/encoded_Group2_IMG_0521.jpg,0,encoded_Group2_IMG_0521.jpg,,,,,0.0,47.0,47.0,47.0,,,,,,,,,,,,,,,,,,,,,,,,,,,,,,,,,,,,,738.7849839820992,None,738.7849839820992,None,738.7849839820992,None,2.0,1.7953058339189738,738.7849839820992,None,738.7849839820992,None,2.0,2.5179153359495103,740.1362338620238,None,738.7849839820992,None,1.0,3.124307179125026,740.8687947860453,None,738.7849839820992,None,space,0.0540843589697033,3.1522942525334656,None,738.7849839820992,None,738.7849839820992,None,,,,,,,,,1,2022_Apr_07_1616,SAR-soap,2021.1.2,
53,Trial # 49,Group1-stimuli/group1-block1/fake-group2-b1/encoded_Group2_IMG_9924.jpg,0,encoded_Group2_IMG_9924.jpg,,,,,0.0,48.0,48.0,48.0,,,,,,,,,,,,,,,,,,,,,,,,,,,,,,,,,,,,,742.0185928440187,None,742.0185928440187,None,742.0185928440187,None,1.0,1.230685117887333,742.0185928440187,None,742.0185928440187,None,1.0,1.821208502864465,742.8028682640288,None,742.0185928440187,None,1.0,2.192083050962537,743.4034604500048,None,742.0185928440187,None,space,0.1768284020945429,2.2211902462877333,None,742.0185928440187,None,742.0185928440187,None,,,,,,,,,1,2022_Apr_07_1616,SAR-soap,2021.1.2,
54,Trial # 50,Group1-stimuli/group1-block1/real-group1-b1/Group1_IMG_9730.jpg,1,Group1_IMG_9730.jpg,,,,,0.0,49.0,49.0,49.0,,,,,,,,,,,,,,,,,,,,,,,,,,,,,,,,,,,,,744.4697327630129,None,744.4697327630129,None,744.4697327630129,None,6.0,2.060169031145051,744.4697327630129,None,744.4697327630129,None,6.0,2.5151157428044826,746.0709512520116,None,744.4697327630129,None,4.0,3.4210280659608543,746.5371776050888,None,744.4697327630129,None,space,0.0947117530740797,3.4450991740450263,None,744.4697327630129,None,744.4697327630129,None,,,,,,,,,1,2022_Apr_07_1616,SAR-soap,2021.1.2,
55,Trial # 51,Group1-stimuli/group1-block1/real-group1-b1/Group1_IMG_0053.jpg,1,Group1_IMG_0053.jpg,,,,,0.0,50.0,50.0,50.0,,,,,,,,,,,,,,,,,,,,,,,,,,,,,,,,,,,,,748.0368266419973,None,748.0368266419973,None,748.0368266419973,None,1.0,1.5458707720972598,748.0368266419973,None,748.0368266419973,None,1.0,2.0013831078540534,749.1221534330398,None,748.0368266419973,None,1.0,2.6397118128370494,749.5886305759195,None,748.0368266419973,None,space,0.2695127858314663,2.666434205370024,None,748.0368266419973,None,748.0368266419973,None,,,,,,,,,1,2022_Apr_07_1616,SAR-soap,2021.1.2,
56,Trial # 52,Group1-stimuli/group1-block1/real-group1-b1/Group1_IMG_9698.jpg,1,Group1_IMG_9698.jpg,,,,,0.0,51.0,51.0,51.0,,,,,,,,,,,,,,,,,,,,,,,,,,,,,,,,,,,,,751.0222803349607,None,751.0222803349607,None,751.0222803349607,None,1.0,1.026895629009232,751.0222803349607,None,751.0222803349607,None,1.0,1.616376480087638,751.5882014110684,None,751.0222803349607,None,4.0,2.0550725699868053,752.1882478129119,None,751.0222803349607,None,space,0.1263453629799187,2.07973467418924,None,751.0222803349607,None,751.0222803349607,None,,,,,,,,,1,2022_Apr_07_1616,SAR-soap,2021.1.2,
57,Trial # 53,Group1-stimuli/group1-block1/fake-group2-b1/encoded_Group2_IMG_0553.jpg,0,encoded_Group2_IMG_0553.jpg,,,,,0.0,52.0,52.0,52.0,,,,,,,,,,,,,,,,,,,,,,,,,,,,,,,,,,,,,753.239930779906,None,753.239930779906,None,753.239930779906,None,1.0,1.015766484895721,753.239930779906,None,753.239930779906,None,1.0,1.3723035191651434,753.8063855289947,None,753.239930779906,None,2.0,1.8764863810501995,754.172814728925,None,753.239930779906,None,space,0.1868620729073882,1.9060393425170328,None,753.239930779906,None,753.239930779906,None,,,,,,,,,1,2022_Apr_07_1616,SAR-soap,2021.1.2,
58,Trial # 54,Group1-stimuli/group1-block1/fake-group2-b1/encoded_Group2_IMG_9758.jpg,0,encoded_Group2_IMG_9758.jpg,,,,,0.0,53.0,53.0,53.0,,,,,,,,,,,,,,,,,,,,,,,,,,,,,,,,,,,,,755.355940381065,None,755.355940381065,None,755.355940381065,None,3.0,1.4468813489656895,755.355940381065,None,755.355940381065,None,4.0,2.3354206171352416,756.3564777479041,None,755.355940381065,None,3.0,3.006798662012443,757.2571994438767,None,755.355940381065,None,space,0.0477925739251077,3.036097861593589,None,755.355940381065,None,755.355940381065,None,,,,,,,,,1,2022_Apr_07_1616,SAR-soap,2021.1.2,
59,Trial # 55,Group1-stimuli/group1-block1/fake-group2-b1/encoded_Group2_IMG_0339.jpg,0,encoded_Group2_IMG_0339.jpg,,,,,0.0,54.0,54.0,54.0,,,,,,,,,,,,,,,,,,,,,,,,,,,,,,,,,,,,,758.4746898810845,None,758.4746898810845,None,758.4746898810845,None,2.0,2.465070545906201,758.4746898810845,None,758.4746898810845,None,2.0,2.9375216998159885,759.7080254480243,None,758.4746898810845,None,2.0,3.3433855660259724,760.974183954997,None,758.4746898810845,None,space,0.1093060120474547,3.3713649574201554,None,758.4746898810845,None,758.4746898810845,None,,,,,,,,,1,2022_Apr_07_1616,SAR-soap,2021.1.2,
60,Trial # 56,Group1-stimuli/group1-block1/real-group1-b1/Group1_IMG_0314.jpg,1,Group1_IMG_0314.jpg,,,,,0.0,55.0,55.0,55.0,,,,,,,,,,,,,,,,,,,,,,,,,,,,,,,,,,,,,762.0078656610567,None,762.0078656610567,None,762.0078656610567,None,1.0,1.394538571126759,762.0078656610567,None,762.0078656610567,None,1.0,1.9517389920074493,762.9418096749578,None,762.0078656610567,None,1.0,2.490692707011476,763.5087556389626,None,762.0078656610567,None,space,0.1600210331380367,2.51742969523184,None,762.0078656610567,None,762.0078656610567,None,,,,,,,,,1,2022_Apr_07_1616,SAR-soap,2021.1.2,
61,Trial # 57,Group1-stimuli/group1-block1/fake-group2-b1/encoded_Group2_IMG_0532.jpg,0,encoded_Group2_IMG_0532.jpg,,,,,0.0,56.0,56.0,56.0,,,,,,,,,,,,,,,,,,,,,,,,,,,,,,,,,,,,,764.692350425059,None,764.692350425059,None,764.692350425059,None,1.0,1.2797757780645045,764.692350425059,None,764.692350425059,None,1.0,2.001829770160839,765.526964189019,None,764.692350425059,None,1.0,2.340056575834751,766.2592359469272,None,764.692350425059,None,space,0.1306475210003554,2.3678428484126925,None,764.692350425059,None,764.692350425059,None,,,,,,,,,1,2022_Apr_07_1616,SAR-soap,2021.1.2,
62,Trial # 58,Group1-stimuli/group1-block1/fake-group2-b1/encoded_Group2_IMG_0462.jpg,0,encoded_Group2_IMG_0462.jpg,,,,,0.0,57.0,57.0,57.0,,,,,,,,,,,,,,,,,,,,,,,,,,,,,,,,,,,,,767.2099012089893,None,767.2099012089893,None,767.2099012089893,None,3.0,1.6828111468348652,767.2099012089893,None,767.2099012089893,None,4.0,2.221112339990213,767.7265144078992,None,767.2099012089893,None,3.0,2.8936346450354904,768.994001485873,None,767.2099012089893,None,space,0.102546441135928,2.922082526376471,None,767.2099012089893,None,767.2099012089893,None,,,,,,,,,1,2022_Apr_07_1616,SAR-soap,2021.1.2,
63,Trial # 59,Group1-stimuli/group1-block1/real-group1-b1/Group1_IMG_0172.jpg,1,Group1_IMG_0172.jpg,,,,,0.0,58.0,58.0,58.0,,,,,,,,,,,,,,,,,,,,,,,,,,,,,,,,,,,,,770.2782063069753,None,770.2782063069753,None,770.2782063069753,None,2.0,1.4446115400642157,770.2782063069753,None,770.2782063069753,None,2.0,1.8341494852211329,771.2782039148733,None,770.2782063069753,None,2.0,2.4720856591593474,771.6782306130044,None,770.2782063069753,None,space,0.0524076810106635,2.498860139399767,None,770.2782063069753,None,770.2782063069753,None,,,,,,,,,1,2022_Apr_07_1616,SAR-soap,2021.1.2,
64,Trial # 60,Group1-stimuli/group1-block1/real-group1-b1/Group1_IMG_4841.jpg,1,Group1_IMG_4841.jpg,,,,,0.0,59.0,59.0,59.0,,,,,,,,,,,,,,,,,,,,,,,,,,,,,,,,,,,,,772.8609415770043,None,772.8609415770043,None,772.8609415770043,None,5.0,1.6966213011182845,772.8609415770043,None,772.8609415770043,None,5.0,2.252296331105754,774.1124409500044,None,772.8609415770043,None,7.0,3.190666244830936,774.679568425985,None,772.8609415770043,None,space,0.1429152640048414,3.2180372125003487,None,772.8609415770043,None,772.8609415770043,None,,,,,,,,,1,2022_Apr_07_1616,SAR-soap,2021.1.2,
65,Trial # 61,Group1-stimuli/group1-block1/fake-group2-b1/encoded_Group2_IMG_0352.jpg,0,encoded_Group2_IMG_0352.jpg,,,,,0.0,60.0,60.0,60.0,,,,,,,,,,,,,,,,,,,,,,,,,,,,,,,,,,,,,776.2633365869988,None,776.2633365869988,None,776.2633365869988,None,2.0,1.4150953970383853,776.2633365869988,None,776.2633365869988,None,2.0,1.969927700003609,777.2296699890867,None,776.2633365869988,None,1.0,2.5434321619104594,777.7964654089883,None,776.2633365869988,None,space,0.0876419150736182,2.5723590063862503,None,776.2633365869988,None,776.2633365869988,None,,,,,,,,,1,2022_Apr_07_1616,SAR-soap,2021.1.2,
66,Trial # 62,Group1-stimuli/group1-block1/fake-group2-b1/encoded_Group2_IMG_9726.jpg,0,encoded_Group2_IMG_9726.jpg,,,,,0.0,61.0,61.0,61.0,,,,,,,,,,,,,,,,,,,,,,,,,,,,,,,,,,,,,778.9468133701012,None,778.9468133701012,None,778.9468133701012,None,4.0,1.3304200840648264,778.9468133701012,None,778.9468133701012,None,3.0,1.8868921780958767,779.8307091200259,None,778.9468133701012,None,4.0,2.558402193011716,780.3982289209962,None,778.9468133701012,None,space,0.0436999250669032,2.587324554333464,None,778.9468133701012,None,778.9468133701012,None,,,,,,,,,1,2022_Apr_07_1616,SAR-soap,2021.1.2,
67,Trial # 63,Group1-stimuli/group1-block1/fake-group2-b1/encoded_Group2_IMG_9785.jpg,0,encoded_Group2_IMG_9785.jpg,,,,,0.0,62.0,62.0,62.0,,,,,,,,,,,,,,,,,,,,,,,,,,,,,,,,,,,,,781.6136713300366,None,781.6136713300366,None,781.6136713300366,None,4.0,1.347545119933784,781.6136713300366,None,781.6136713300366,None,4.0,2.1711303130723536,782.5149617269635,None,781.6136713300366,None,4.0,2.8760794829577208,783.3487113760784,None,781.6136713300366,None,space,0.1065809079445898,2.9049640614539385,None,781.6136713300366,None,781.6136713300366,None,,,,,,,,,1,2022_Apr_07_1616,SAR-soap,2021.1.2,
68,Trial # 64,Group1-stimuli/group1-block1/fake-group2-b1/encoded_Group2_IMG_0440.jpg,0,encoded_Group2_IMG_0440.jpg,,,,,0.0,63.0,63.0,63.0,,,,,,,,,,,,,,,,,,,,,,,,,,,,,,,,,,,,,784.6658932729624,None,784.6658932729624,None,784.6658932729624,None,4.0,1.3133555920794606,784.6658932729624,None,784.6658932729624,None,4.0,1.669490038882941,785.5332497390918,None,784.6658932729624,None,4.0,2.374908909201622,785.899410109967,None,784.6658932729624,None,space,0.0442219439428299,2.403518977342173,None,784.6658932729624,None,784.6658932729624,None,,,,,,,,,1,2022_Apr_07_1616,SAR-soap,2021.1.2,
69,Trial # 65,Group1-stimuli/group1-block1/fake-group2-b1/encoded_Group2_IMG_1695.jpg,0,encoded_Group2_IMG_1695.jpg,,,,,0.0,64.0,64.0,64.0,,,,,,,,,,,,,,,,,,,,,,,,,,,,,,,,,,,,,787.1495837450493,None,787.1495837450493,None,787.1495837450493,None,2.0,1.381436784984544,787.1495837450493,None,787.1495837450493,None,2.0,1.8043533959425984,788.0845967899077,None,787.1495837450493,None,2.0,2.208991971798241,788.5171107619535,None,787.1495837450493,None,space,0.0867933901026845,2.237578117288649,None,787.1495837450493,None,787.1495837450493,None,,,,,,,,,1,2022_Apr_07_1616,SAR-soap,2021.1.2,
70,Trial # 66,Group1-stimuli/group1-block1/real-group1-b1/Group1_IMG_0552.jpg,1,Group1_IMG_0552.jpg,,,,,0.0,65.0,65.0,65.0,,,,,,,,,,,,,,,,,,,,,,,,,,,,,,,,,,,,,789.5011422699317,None,789.5011422699317,None,789.5011422699317,None,1.0,1.446625643176958,789.5011422699317,None,789.5011422699317,None,1.0,1.885533913038671,790.1500462100375,None,789.5011422699317,None,1.0,2.5587019741069525,790.9509967330378,None,789.5011422699317,None,space,0.1459912480786442,2.5838411282747984,None,789.5011422699317,None,789.5011422699317,None,,,,,,,,,1,2022_Apr_07_1616,SAR-soap,2021.1.2,
71,Trial # 67,Group1-stimuli/group1-block1/real-group1-b1/Group1_IMG_1029.jpg,1,Group1_IMG_1029.jpg,,,,,0.0,66.0,66.0,66.0,,,,,,,,,,,,,,,,,,,,,,,,,,,,,,,,,,,,,792.2837239699438,None,792.2837239699438,None,792.2837239699438,None,2.0,1.8471950248349456,792.2837239699438,None,792.2837239699438,None,3.0,2.318287001922726,792.9014723140281,None,792.2837239699438,None,3.0,3.123817600077018,794.1525357740466,None,792.2837239699438,None,space,0.2758206510916352,3.14935537124984,None,792.2837239699438,None,792.2837239699438,None,,,,,,,,,1,2022_Apr_07_1616,SAR-soap,2021.1.2,
72,Trial # 68,Group1-stimuli/group1-block1/fake-group2-b1/encoded_Group2_IMG_6517.jpg,0,encoded_Group2_IMG_6517.jpg,,,,,0.0,67.0,67.0,67.0,,,,,,,,,,,,,,,,,,,,,,,,,,,,,,,,,,,,,795.7360830469988,None,795.7360830469988,None,795.7360830469988,None,1.0,75.51928137103096,795.7360830469988,None,795.7360830469988,None,1.0,76.17450892110355,870.8085577599704,None,795.7360830469988,None,1.0,76.67976290010847,871.4759034649469,None,795.7360830469988,None,space,4.907800318207592,76.70816729217768,None,795.7360830469988,None,795.7360830469988,None,,,,,,,,,1,2022_Apr_07_1616,SAR-soap,2021.1.2,
73,Trial # 69,Group1-stimuli/group1-block1/fake-group2-b1/encoded_Group2_IMG_0002.jpg,0,encoded_Group2_IMG_0002.jpg,,,,,0.0,68.0,68.0,68.0,,,,,,,,,,,,,,,,,,,,,,,,,,,,,,,,,,,,,877.3933824009728,None,877.3933824009728,None,877.3933824009728,None,2.0,2.048502513905987,877.3933824009728,None,877.3933824009728,None,2.0,2.553376799914986,878.7117326948792,None,877.3933824009728,None,3.0,3.2920982241630554,879.5122262479272,None,877.3933824009728,None,space,-1.0574277208652347,3.3193516933824867,None,877.3933824009728,None,877.3933824009728,None,,,,,,,,,1,2022_Apr_07_1616,SAR-soap,2021.1.2,
74,Trial # 70,Group1-stimuli/group1-block1/real-group1-b1/Group1_IMG_0495.jpg,1,Group1_IMG_0495.jpg,,,,,0.0,69.0,69.0,69.0,,,,,,,,,,,,,,,,,,,,,,,,,,,,,,,,,,,,,880.7282963450998,None,880.7282963450998,None,880.7282963450998,None,1.0,1.3955601318739357,880.7282963450998,None,880.7282963450998,None,1.0,1.7840184879023582,881.679076584056,None,880.7282963450998,None,1.0,2.156380934873596,882.0779726840556,None,880.7282963450998,None,space,0.9428833599667996,2.182815535226837,None,880.7282963450998,None,880.7282963450998,None,,,,,,,,,1,2022_Apr_07_1616,SAR-soap,2021.1.2,
75,Trial # 71,Group1-stimuli/group1-block1/real-group1-b1/Group1_IMG_1391.jpg,1,Group1_IMG_1391.jpg,,,,,0.0,70.0,70.0,70.0,,,,,,,,,,,,,,,,,,,,,,,,,,,,,,,,,,,,,883.9131473649759,None,883.9131473649759,None,883.9131473649759,None,2.0,2.395021186908707,883.9131473649759,None,883.9131473649759,None,2.0,2.783911934122443,885.8471246198751,None,883.9131473649759,None,5.0,3.4552174189593643,886.2464702420402,None,883.9131473649759,None,space,0.0903938859701156,3.4812590633518994,None,883.9131473649759,None,883.9131473649759,None,,,,,,,,,1,2022_Apr_07_1616,SAR-soap,2021.1.2,
76,Trial # 72,Group1-stimuli/group1-block1/real-group1-b1/Group1_IMG_0343.jpg,1,Group1_IMG_0343.jpg,,,,,0.0,71.0,71.0,71.0,,,,,,,,,,,,,,,,,,,,,,,,,,,,,,,,,,,,,887.5129831091035,None,887.5129831091035,None,887.5129831091035,None,1.0,1.4122676239348948,887.5129831091035,None,887.5129831091035,None,1.0,2.034979658899829,888.4658680590801,None,887.5129831091035,None,1.0,2.4741258120629936,889.0987021189649,None,887.5129831091035,None,space,0.096232775831595,2.499934784136713,None,887.5129831091035,None,887.5129831091035,None,,,,,,,,,1,2022_Apr_07_1616,SAR-soap,2021.1.2,
77,Trial # 73,Group1-stimuli/group1-block1/fake-group2-b1/encoded_Group2_IMG_9810.jpg,0,encoded_Group2_IMG_9810.jpg,,,,,0.0,72.0,72.0,72.0,,,,,,,,,,,,,,,,,,,,,,,,,,,,,,,,,,,,,890.1145966520999,None,890.1145966520999,None,890.1145966520999,None,1.0,1.329791588941589,890.1145966520999,None,890.1145966520999,None,1.0,1.6538300621323287,890.9990506120957,None,890.1145966520999,None,1.0,2.058025216916576,891.3310451570433,None,890.1145966520999,None,space,0.0958860509563237,2.085956860333681,None,890.1145966520999,None,890.1145966520999,None,,,,,,,,,1,2022_Apr_07_1616,SAR-soap,2021.1.2,
78,Trial # 74,Group1-stimuli/group1-block1/fake-group2-b1/encoded_Group2_IMG_5900.jpg,0,encoded_Group2_IMG_5900.jpg,,,,,0.0,73.0,73.0,73.0,,,,,,,,,,,,,,,,,,,,,,,,,,,,,,,,,,,,,892.3317366980482,None,892.3317366980482,None,892.3317366980482,None,1.0,1.025711413938552,892.3317366980482,None,892.3317366980482,None,1.0,1.31592669012025,892.8994295920711,None,892.3317366980482,None,1.0,1.6212852438911796,893.2003519220743,None,892.3317366980482,None,space,0.1350704510696232,1.6467308192513883,None,892.3317366980482,None,892.3317366980482,None,,,,,,,,,1,2022_Apr_07_1616,SAR-soap,2021.1.2,
79,Trial # 75,Group1-stimuli/group1-block1/real-group1-b1/Group1_IMG_9679.jpg,1,Group1_IMG_9679.jpg,,,,,0.0,74.0,74.0,74.0,,,,,,,,,,,,,,,,,,,,,,,,,,,,,,,,,,,,,894.1665516549256,None,894.1665516549256,None,894.1665516549256,None,1.0,1.0598175411578268,894.1665516549256,None,894.1665516549256,None,1.0,1.8165762810967865,894.7666647909209,None,894.1665516549256,None,1.0,2.121019554091617,895.5329922609963,None,894.1665516549256,None,space,0.1866242820397019,2.146742432145402,None,894.1665516549256,None,894.1665516549256,None,,,,,,,,,1,2022_Apr_07_1616,SAR-soap,2021.1.2,
80,Trial # 76,Group1-stimuli/group1-block1/fake-group2-b1/encoded_Group2_IMG_4249.jpg,0,encoded_Group2_IMG_4249.jpg,,,,,0.0,75.0,75.0,75.0,,,,,,,,,,,,,,,,,,,,,,,,,,,,,,,,,,,,,896.5163107221015,None,896.5163107221015,None,896.5163107221015,None,3.0,1.512803178047761,896.5163107221015,None,896.5163107221015,None,3.0,1.835897997021675,897.583422970958,None,896.5163107221015,None,3.0,2.1754624019376934,897.9161747670732,None,896.5163107221015,None,space,0.2325676931068301,2.203384055290371,None,896.5163107221015,None,896.5163107221015,None,,,,,,,,,1,2022_Apr_07_1616,SAR-soap,2021.1.2,
81,Trial # 77,Group1-stimuli/group1-block1/fake-group2-b1/encoded_Group2_IMG_0174.jpg,0,encoded_Group2_IMG_0174.jpg,,,,,0.0,76.0,76.0,76.0,,,,,,,,,,,,,,,,,,,,,,,,,,,,,,,,,,,,,898.9674708279781,None,898.9674708279781,None,898.9674708279781,None,3.0,1.948240637080744,898.9674708279781,None,898.9674708279781,None,3.0,2.3206760729663074,900.4529565260746,None,898.9674708279781,None,3.0,2.626281262142584,900.8517922840548,None,898.9674708279781,None,space,0.0927321990020573,2.6551040620543063,None,898.9674708279781,None,898.9674708279781,None,,,,,,,,,1,2022_Apr_07_1616,SAR-soap,2021.1.2,
82,Trial # 78,Group1-stimuli/group1-block1/fake-group2-b1/encoded_Group2_IMG_0475.jpg,0,encoded_Group2_IMG_0475.jpg,,,,,0.0,77.0,77.0,77.0,,,,,,,,,,,,,,,,,,,,,,,,,,,,,,,,,,,,,901.7344373699744,None,901.7344373699744,None,901.7344373699744,None,2.0,1.480814479989931,901.7344373699744,None,901.7344373699744,None,2.0,2.1381252070423216,902.768542341888,None,901.7344373699744,None,2.0,2.4423269091639668,903.4356940509751,None,901.7344373699744,None,space,0.0751802530139684,2.472809542203322,None,901.7344373699744,None,901.7344373699744,None,,,,,,,,,1,2022_Apr_07_1616,SAR-soap,2021.1.2,
83,Trial # 79,Group1-stimuli/group1-block1/fake-group2-b1/encoded_Group2_IMG_9751.jpg,0,encoded_Group2_IMG_9751.jpg,,,,,0.0,78.0,78.0,78.0,,,,,,,,,,,,,,,,,,,,,,,,,,,,,,,,,,,,,904.3194761769846,None,904.3194761769846,None,904.3194761769846,None,4.0,2.5972081429790705,904.3194761769846,None,904.3194761769846,None,4.0,3.36923557985574,905.4202994210646,None,904.3194761769846,None,4.0,4.07412980706431,907.2525688030292,None,904.3194761769846,None,space,0.0349251409061253,4.102845201268792,None,904.3194761769846,None,904.3194761769846,None,,,,,,,,,1,2022_Apr_07_1616,SAR-soap,2021.1.2,
84,Trial # 80,Group1-stimuli/group1-block1/fake-group2-b1/encoded_Group2_IMG_0492.jpg,0,encoded_Group2_IMG_0492.jpg,,,,,0.0,79.0,79.0,79.0,,,,,,,,,,,,,,,,,,,,,,,,,,,,,,,,,,,,,908.5035892419984,None,908.5035892419984,None,908.5035892419984,None,1.0,1.2646032879129052,908.5035892419984,None,908.5035892419984,None,1.0,1.8541481250431389,909.3212564329152,None,908.5035892419984,None,1.0,2.1263996390625834,909.920795523096,None,908.5035892419984,None,space,0.1039562649093568,2.1539170793257654,None,908.5035892419984,None,908.5035892419984,None,,,,,,,,,1,2022_Apr_07_1616,SAR-soap,2021.1.2,
85,Trial # 81,Group1-stimuli/group1-block1/real-group1-b1/Group1_IMG_0535.jpg,1,Group1_IMG_0535.jpg,,,,,0.0,80.0,80.0,80.0,,,,,,,,,,,,,,,,,,,,,,,,,,,,,,,,,,,,,910.80465899501,None,910.80465899501,None,910.80465899501,None,1.0,1.1948001538403332,910.80465899501,None,910.80465899501,None,1.0,1.8678517560474568,911.554123572074,None,910.80465899501,None,1.0,2.1721833960618824,912.2377940760924,None,910.80465899501,None,space,0.1216695860493928,2.198884788202122,None,910.80465899501,None,910.80465899501,None,,,,,,,,,1,2022_Apr_07_1616,SAR-soap,2021.1.2,
86,Trial # 82,Group1-stimuli/group1-block1/real-group1-b1/Group1_IMG_0077.jpg,1,Group1_IMG_0077.jpg,,,,,0.0,81.0,81.0,81.0,,,,,,,,,,,,,,,,,,,,,,,,,,,,,,,,,,,,,913.1723521959502,None,913.1723521959502,None,913.1723521959502,None,2.0,1.7281164601445198,913.1723521959502,None,913.1723521959502,None,2.0,2.0672712528612465,914.1222695040052,None,913.1723521959502,None,2.0,2.6393830499146134,914.7887124828994,None,913.1723521959502,None,space,0.0151500781066715,2.665878552244976,None,913.1723521959502,None,913.1723521959502,None,,,,,,,,,1,2022_Apr_07_1616,SAR-soap,2021.1.2,
87,Trial # 83,Group1-stimuli/group1-block1/fake-group2-b1/encoded_Group2_IMG_9702.jpg,0,encoded_Group2_IMG_9702.jpg,,,,,0.0,82.0,82.0,82.0,,,,,,,,,,,,,,,,,,,,,,,,,,,,,,,,,,,,,915.8730820440688,None,915.8730820440688,None,915.8730820440688,None,1.0,1.248478505993262,915.8730820440688,None,915.8730820440688,None,1.0,1.5041703190654516,916.6736251339316,None,915.8730820440688,None,1.0,1.8429028000682592,916.9398163489532,None,915.8730820440688,None,space,0.0589454181026667,1.8711061235517263,None,915.8730820440688,None,915.8730820440688,None,,,,,,,,,1,2022_Apr_07_1616,SAR-soap,2021.1.2,
88,Trial # 84,Group1-stimuli/group1-block1/real-group1-b1/Group1_IMG_0357.jpg,1,Group1_IMG_0357.jpg,,,,,0.0,83.0,83.0,83.0,,,,,,,,,,,,,,,,,,,,,,,,,,,,,,,,,,,,,917.839889829047,None,917.839889829047,None,917.839889829047,None,1.0,0.9783737198449672,917.839889829047,None,917.839889829047,None,1.0,1.5008306170348078,918.357418383006,None,917.839889829047,None,1.0,1.8403053479269147,918.8905952139758,None,917.839889829047,None,space,0.1241359862033277,1.8651705081574617,None,917.839889829047,None,917.839889829047,None,,,,,,,,,1,2022_Apr_07_1616,SAR-soap,2021.1.2,
89,Trial # 85,Group1-stimuli/group1-block1/real-group1-b1/Group1_IMG_9772.jpg,1,Group1_IMG_9772.jpg,,,,,0.0,84.0,84.0,84.0,,,,,,,,,,,,,,,,,,,,,,,,,,,,,,,,,,,,,919.8578465119936,None,919.8578465119936,None,919.8578465119936,None,4.0,1.4444476789794862,919.8578465119936,None,919.8578465119936,None,4.0,2.1998605499975383,920.8408673529048,None,919.8578465119936,None,4.0,2.506525354925543,921.6086478699,None,919.8578465119936,None,space,0.0720995808951556,2.531309069134295,None,919.8578465119936,None,919.8578465119936,None,,,,,,,,,1,2022_Apr_07_1616,SAR-soap,2021.1.2,
90,Trial # 86,Group1-stimuli/group1-block1/real-group1-b1/Group1_IMG_0482.jpg,1,Group1_IMG_0482.jpg,,,,,0.0,85.0,85.0,85.0,,,,,,,,,,,,,,,,,,,,,,,,,,,,,,,,,,,,,922.5082990990486,None,922.5082990990486,None,922.5082990990486,None,1.0,1.2115774808917197,922.5082990990486,None,922.5082990990486,None,1.0,1.499955381965265,923.2592200799844,None,922.5082990990486,None,1.0,1.8373761379625648,923.5594012199437,None,922.5082990990486,None,space,0.1351231879089027,1.8636234544683248,None,922.5082990990486,None,922.5082990990486,None,,,,,,,,,1,2022_Apr_07_1616,SAR-soap,2021.1.2,
91,Trial # 87,Group1-stimuli/group1-block1/real-group1-b1/Group1_IMG_0299.jpg,1,Group1_IMG_0299.jpg,,,,,0.0,86.0,86.0,86.0,,,,,,,,,,,,,,,,,,,,,,,,,,,,,,,,,,,,,924.5590644949116,None,924.5590644949116,None,924.5590644949116,None,3.0,1.3269886691123247,924.5590644949116,None,924.5590644949116,None,3.0,1.9813106970395893,925.4264047159812,None,924.5590644949116,None,3.0,2.28723359387368,926.0925865808968,None,924.5590644949116,None,space,0.0824344980064779,2.3123763201292604,None,924.5590644949116,None,924.5590644949116,None,,,,,,,,,1,2022_Apr_07_1616,SAR-soap,2021.1.2,
92,Trial # 88,Group1-stimuli/group1-block1/fake-group2-b1/encoded_Group2_IMG_0301.jpg,0,encoded_Group2_IMG_0301.jpg,,,,,0.0,87.0,87.0,87.0,,,,,,,,,,,,,,,,,,,,,,,,,,,,,,,,,,,,,926.9755189809948,None,926.9755189809948,None,926.9755189809948,None,4.0,1.4631404459942132,926.9755189809948,None,926.9755189809948,None,4.0,2.0863488449249417,927.9929781400132,None,926.9755189809948,None,4.0,2.391029283870012,928.6270311630796,None,926.9755189809948,None,space,0.0364271542057395,2.419972417410463,None,926.9755189809948,None,926.9755189809948,None,,,,,,,,,1,2022_Apr_07_1616,SAR-soap,2021.1.2,
93,Trial # 89,Group1-stimuli/group1-block1/fake-group2-b1/encoded_Group2_IMG_5136.jpg,0,encoded_Group2_IMG_5136.jpg,,,,,0.0,88.0,88.0,88.0,,,,,,,,,,,,,,,,,,,,,,,,,,,,,,,,,,,,,929.4776168710086,None,929.4776168710086,None,929.4776168710086,None,3.0,1.4459932479076087,929.4776168710086,None,929.4776168710086,None,3.0,1.835977752925828,930.4769184149336,None,929.4776168710086,None,3.0,2.141471571987495,930.8771480200812,None,929.4776168710086,None,space,0.0504854551982134,2.170194110367447,None,929.4776168710086,None,929.4776168710086,None,,,,,,,,,1,2022_Apr_07_1616,SAR-soap,2021.1.2,
94,Trial # 90,Group1-stimuli/group1-block1/real-group1-b1/Group1_IMG_0460.jpg,1,Group1_IMG_0460.jpg,,,,,0.0,89.0,89.0,89.0,,,,,,,,,,,,,,,,,,,,,,,,,,,,,,,,,,,,,931.7279678620398,None,931.7279678620398,None,931.7279678620398,None,4.0,1.4111279139760882,931.7279678620398,None,931.7279678620398,None,4.0,1.8004938689991832,932.6940150659066,None,931.7279678620398,None,4.0,2.339489415055141,933.094488943927,None,931.7279678620398,None,space,0.038739165989682,2.3670634170994163,None,931.7279678620398,None,931.7279678620398,None,,,,,,,,,1,2022_Apr_07_1616,SAR-soap,2021.1.2,
95,Trial # 91,Group1-stimuli/group1-block1/fake-group2-b1/encoded_Group2_IMG_0068.jpg,0,encoded_Group2_IMG_0068.jpg,,,,,0.0,90.0,90.0,90.0,,,,,,,,,,,,,,,,,,,,,,,,,,,,,,,,,,,,,934.1789419539272,None,934.1789419539272,None,934.1789419539272,None,3.0,1.363315112888813,934.1789419539272,None,934.1789419539272,None,3.0,1.986009266925976,935.0955701530912,None,934.1789419539272,None,3.0,2.2564026629552245,935.7283670129254,None,934.1789419539272,None,space,0.079284933861345,2.287233175477013,None,934.1789419539272,None,934.1789419539272,None,,,,,,,,,1,2022_Apr_07_1616,SAR-soap,2021.1.2,
96,Trial # 92,Group1-stimuli/group1-block1/real-group1-b1/Group1_IMG_0337.jpg,1,Group1_IMG_0337.jpg,,,,,0.0,91.0,91.0,91.0,,,,,,,,,,,,,,,,,,,,,,,,,,,,,,,,,,,,,936.5784728629516,None,936.5784728629516,None,936.5784728629516,None,1.0,1.4124798860866576,936.5784728629516,None,936.5784728629516,None,1.0,1.9681282169185577,937.5461779329926,None,936.5784728629516,None,1.0,2.2402148430701345,938.1128832539544,None,936.5784728629516,None,space,0.0960377999581396,2.266707992181182,None,936.5784728629516,None,936.5784728629516,None,,,,,,,,,1,2022_Apr_07_1616,SAR-soap,2021.1.2,
97,Trial # 93,Group1-stimuli/group1-block1/fake-group2-b1/encoded_Group2_IMG_0346.jpg,0,encoded_Group2_IMG_0346.jpg,,,,,0.0,92.0,92.0,92.0,,,,,,,,,,,,,,,,,,,,,,,,,,,,,,,,,,,,,938.9638903029264,None,938.9638903029264,None,938.9638903029264,None,1.0,1.498288008151576,938.9638903029264,None,938.9638903029264,None,1.0,2.0702465379145,940.0135901230389,None,938.9638903029264,None,1.0,2.6076731379143894,940.5965535358991,None,938.9638903029264,None,space,0.0416348159778863,2.6376040873583406,None,938.9638903029264,None,938.9638903029264,None,,,,,,,,,1,2022_Apr_07_1616,SAR-soap,2021.1.2,
98,Trial # 94,Group1-stimuli/group1-block1/real-group1-b1/Group1_IMG_4253.jpg,1,Group1_IMG_4253.jpg,,,,,0.0,93.0,93.0,93.0,,,,,,,,,,,,,,,,,,,,,,,,,,,,,,,,,,,,,941.6972121130676,None,941.6972121130676,None,941.6972121130676,None,4.0,1.4288231530226767,941.6972121130676,None,941.6972121130676,None,4.0,1.7844435980077833,942.6642471989616,None,941.6972121130676,None,4.0,2.089608418988064,943.030220625922,None,941.6972121130676,None,space,0.0483414609916508,2.116045124363154,None,941.6972121130676,None,941.6972121130676,None,,,,,,,,,1,2022_Apr_07_1616,SAR-soap,2021.1.2,
99,Trial # 95,Group1-stimuli/group1-block1/fake-group2-b1/encoded_Group2_IMG_9280.jpg,0,encoded_Group2_IMG_9280.jpg,,,,,0.0,94.0,94.0,94.0,,,,,,,,,,,,,,,,,,,,,,,,,,,,,,,,,,,,,943.8822066648864,None,943.8822066648864,None,943.8822066648864,None,3.0,1.5630852070171386,943.8822066648864,None,943.8822066648864,None,3.0,2.085590134840458,944.9996129609644,None,943.8822066648864,None,3.0,2.323715154081583,945.5319997558836,None,943.8822066648864,None,space,0.1099994969554245,2.3534617151599377,None,943.8822066648864,None,943.8822066648864,None,,,,,,,,,1,2022_Apr_07_1616,SAR-soap,2021.1.2,
100,Trial # 96,Group1-stimuli/group1-block1/real-group1-b1/Group1_IMG_0417.jpg,1,Group1_IMG_0417.jpg,,,,,0.0,95.0,95.0,95.0,,,,,,,,,,,,,,,,,,,,,,,,,,,,,,,,,,,,,946.398138208082,None,946.398138208082,None,946.398138208082,None,2.0,1.2281426819972694,946.398138208082,None,946.398138208082,None,2.0,1.5172746069729328,947.1659276040735,None,946.398138208082,None,2.0,2.0894759299699217,947.4654654040932,None,946.398138208082,None,space,0.0671407638583332,2.115839247126132,None,946.398138208082,None,946.398138208082,None,,,,,,,,,1,2022_Apr_07_1616,SAR-soap,2021.1.2,
101,Trial # 97,Group1-stimuli/group1-block1/fake-group2-b1/encoded_Group2_IMG_9695.jpg,0,encoded_Group2_IMG_9695.jpg,,,,,0.0,96.0,96.0,96.0,,,,,,,,,,,,,,,,,,,,,,,,,,,,,,,,,,,,,948.616588163888,None,948.616588163888,None,948.616588163888,None,1.0,1.7145078699104488,948.616588163888,None,948.616588163888,None,1.0,2.019091947004199,949.3003851650284,None,948.616588163888,None,1.0,2.291143116774037,950.2001644349656,None,948.616588163888,None,space,0.0959105382207781,2.3189810193143785,None,948.616588163888,None,948.616588163888,None,,,,,,,,,1,2022_Apr_07_1616,SAR-soap,2021.1.2,
102,Trial # 98,Group1-stimuli/group1-block1/real-group1-b1/Group1_IMG_1160.jpg,1,Group1_IMG_1160.jpg,,,,,0.0,97.0,97.0,97.0,,,,,,,,,,,,,,,,,,,,,,,,,,,,,,,,,,,,,951.0667557269336,None,951.0667557269336,None,951.0667557269336,None,2.0,1.2273680809885263,951.0667557269336,None,951.0667557269336,None,2.0,1.817045146133751,951.8340090459678,None,951.0667557269336,None,2.0,2.05606525298208,952.433574623894,None,951.0667557269336,None,space,0.1683787221554666,2.0808942595031112,None,951.0667557269336,None,951.0667557269336,None,,,,,,,,,1,2022_Apr_07_1616,SAR-soap,2021.1.2,
103,Trial # 99,Group1-stimuli/group1-block1/real-group1-b1/Group1_IMG_0448.jpg,1,Group1_IMG_0448.jpg,,,,,0.0,98.0,98.0,98.0,,,,,,,,,,,,,,,,,,,,,,,,,,,,,,,,,,,,,953.3519726919476,None,953.3519726919476,None,953.3519726919476,None,3.0,1.2474667851347476,953.3519726919476,None,953.3519726919476,None,3.0,1.76923932810314,954.1515665610788,None,953.3519726919476,None,3.0,2.0406371119897813,954.6845584888944,None,953.3519726919476,None,space,0.0437467850279063,2.066356463357806,None,953.3519726919476,None,953.3519726919476,None,,,,,,,,,1,2022_Apr_07_1616,SAR-soap,2021.1.2,
104,Trial # 100,Group1-stimuli/group1-block1/fake-group2-b1/encoded_Group2_IMG_0393.jpg,0,encoded_Group2_IMG_0393.jpg,,,,,0.0,99.0,99.0,99.0,,,,,,,,,,,,,,,,,,,,,,,,,,,,,,,,,,,,,955.501466102898,None,955.501466102898,None,955.501466102898,None,2.0,1.3487698510289192,955.501466102898,None,955.501466102898,None,2.0,1.6047463600989431,956.4025127019268,None,955.501466102898,None,2.0,1.8751399649772795,956.6685003899038,None,955.501466102898,None,space,0.0204399870708584,1.9048502843361348,None,955.501466102898,None,955.501466102898,None,,,,,,,,,1,2022_Apr_07_1616,SAR-soap,2021.1.2,
105,Trial # 101,Group1-stimuli/group1-block1/real-group1-b1/Group1_IMG_0090.jpg,1,Group1_IMG_0090.jpg,,,,,0.0,100.0,100.0,100.0,,,,,,,,,,,,,,,,,,,,,,,,,,,,,,,,,,,,,957.4687937069684,None,957.4687937069684,None,957.4687937069684,None,1.0,1.562185116810724,957.4687937069684,None,957.4687937069684,None,1.0,1.8169779579620808,958.5698279710488,None,957.4687937069684,None,1.0,2.089923581806943,958.836706358008,None,957.4687937069684,None,space,0.068778112065047,2.114228473510593,None,957.4687937069684,None,957.4687937069684,None,,,,,,,,,1,2022_Apr_07_1616,SAR-soap,2021.1.2,
106,Trial # 102,Group1-stimuli/group1-block1/real-group1-b1/Group1_IMG_0310.jpg,1,Group1_IMG_0310.jpg,,,,,0.0,101.0,101.0,101.0,,,,,,,,,,,,,,,,,,,,,,,,,,,,,,,,,,,,,959.6858651279472,None,959.6858651279472,None,959.6858651279472,None,1.0,1.3470087531022727,959.6858651279472,None,959.6858651279472,None,1.0,1.58376704598777,960.4033175650984,None,959.6858651279472,None,1.0,1.82301187585108,960.8362990228924,None,959.6858651279472,None,space,0.0377253598999232,1.848580127581954,None,959.6858651279472,None,959.6858651279472,None,,,,,,,,,1,2022_Apr_07_1616,SAR-soap,2021.1.2,
107,Trial # 103,Group1-stimuli/group1-block1/fake-group2-b1/encoded_Group2_IMG_0528.jpg,0,encoded_Group2_IMG_0528.jpg,,,,,0.0,102.0,102.0,102.0,,,,,,,,,,,,,,,,,,,,,,,,,,,,,,,,,,,,,961.6196378578898,None,961.6196378578898,None,961.6196378578898,None,1.0,1.3639866840094328,961.6196378578898,None,961.6196378578898,None,1.0,2.0198649698868394,962.5375638511032,None,961.6196378578898,None,1.0,2.2262130309827626,963.2047924699727,None,961.6196378578898,None,space,0.1023726789280772,2.255575438030064,None,961.6196378578898,None,961.6196378578898,None,,,,,,,,,1,2022_Apr_07_1616,SAR-soap,2021.1.2,
108,Trial # 104,Group1-stimuli/group1-block1/fake-group2-b1/encoded_Group2_IMG_1975.jpg,0,encoded_Group2_IMG_1975.jpg,,,,,0.0,103.0,103.0,103.0,,,,,,,,,,,,,,,,,,,,,,,,,,,,,,,,,,,,,964.0215410778763,None,964.0215410778763,None,964.0215410778763,None,1.0,1.3972003478556871,964.0215410778763,None,964.0215410778763,None,1.0,2.1180473889689893,964.9720854701008,None,964.0215410778763,None,4.0,2.7247531851753592,965.704479422886,None,964.0215410778763,None,space,0.0671454360708594,2.751912886509672,None,964.0215410778763,None,964.0215410778763,None,,,,,,,,,1,2022_Apr_07_1616,SAR-soap,2021.1.2,
109,Trial # 105,Group1-stimuli/group1-block1/fake-group2-b1/encoded_Group2_IMG_0052.jpg,0,encoded_Group2_IMG_0052.jpg,,,,,0.0,104.0,104.0,104.0,,,,,,,,,,,,,,,,,,,,,,,,,,,,,,,,,,,,,966.8874391159044,None,966.8874391159044,None,966.8874391159044,None,1.0,1.596216145902872,966.8874391159044,None,966.8874391159044,None,1.0,1.8700095480307937,967.4544005349744,None,966.8874391159044,None,5.0,2.474316672887653,968.3227078639902,None,966.8874391159044,None,space,0.0646634430158883,2.503233798081056,None,966.8874391159044,None,966.8874391159044,None,,,,,,,,,1,2022_Apr_07_1616,SAR-soap,2021.1.2,
110,Trial # 106,Group1-stimuli/group1-block1/fake-group2-b1/encoded_Group2_IMG_0225.jpg,0,encoded_Group2_IMG_0225.jpg,,,,,0.0,105.0,105.0,105.0,,,,,,,,,,,,,,,,,,,,,,,,,,,,,,,,,,,,,969.4726443090476,None,969.4726443090476,None,969.4726443090476,None,3.0,2.3139254220295697,969.4726443090476,None,969.4726443090476,None,3.0,2.7526949939783663,970.922731063096,None,969.4726443090476,None,3.0,3.0591041028965265,971.7893988529686,None,969.4726443090476,None,space,0.1544261879753321,3.0867291344329715,None,969.4726443090476,None,969.4726443090476,None,,,,,,,,,1,2022_Apr_07_1616,SAR-soap,2021.1.2,
111,Trial # 107,Group1-stimuli/group1-block1/real-group1-b1/Group1_IMG_2231.jpg,1,Group1_IMG_2231.jpg,,,,,0.0,106.0,106.0,106.0,,,,,,,,,,,,,,,,,,,,,,,,,,,,,,,,,,,,,972.75570354308,None,972.75570354308,None,972.75570354308,None,3.0,1.2620964299421755,972.75570354308,None,972.75570354308,None,4.0,1.9512211410328744,973.5580429499968,None,972.75570354308,None,4.0,2.62354202196002,974.2582789519802,None,972.75570354308,None,space,-0.2972438260912895,2.64993117027916,None,972.75570354308,None,972.75570354308,None,,,,,,,,,1,2022_Apr_07_1616,SAR-soap,2021.1.2,
112,Trial # 108,Group1-stimuli/group1-block1/real-group1-b1/Group1_IMG_0217.jpg,1,Group1_IMG_0217.jpg,,,,,0.0,107.0,107.0,107.0,,,,,,,,,,,,,,,,,,,,,,,,,,,,,,,,,,,,,975.4247861988842,None,975.4247861988842,None,975.4247861988842,None,5.0,1.994907092070207,975.4247861988842,None,975.4247861988842,None,5.0,2.267439207062125,976.6088072489948,None,975.4247861988842,None,5.0,2.97243704716675,977.2411862690932,None,975.4247861988842,None,space,-2.73048750590533,2.999288869323209,None,975.4247861988842,None,975.4247861988842,None,,,,,,,,,1,2022_Apr_07_1616,SAR-soap,2021.1.2,
113,Trial # 109,Group1-stimuli/group1-block1/real-group1-b1/Group1_IMG_0264.jpg,1,Group1_IMG_0264.jpg,,,,,0.0,108.0,108.0,108.0,,,,,,,,,,,,,,,,,,,,,,,,,,,,,,,,,,,,,978.4419644330628,None,978.4419644330628,None,978.4419644330628,None,5.0,1.427735905861482,978.4419644330628,None,978.4419644330628,None,5.0,1.7178524259943515,979.4095545550808,None,978.4419644330628,None,5.0,2.3220397219993174,979.7087298510596,None,978.4419644330628,None,space,-0.2172968848608434,2.347033470403403,None,978.4419644330628,None,978.4419644330628,None,,,,,,,,,1,2022_Apr_07_1616,SAR-soap,2021.1.2,
114,Trial # 110,Group1-stimuli/group1-block1/fake-group2-b1/encoded_Group2_IMG_0254.jpg,0,encoded_Group2_IMG_0254.jpg,,,,,0.0,109.0,109.0,109.0,,,,,,,,,,,,,,,,,,,,,,,,,,,,,,,,,,,,,980.7922147030476,None,980.7922147030476,None,980.7922147030476,None,1.0,1.6993937860243022,980.7922147030476,None,980.7922147030476,None,1.0,2.0031724609434605,981.7267392349896,None,980.7922147030476,None,1.0,2.2756768388208,982.3591615210752,None,980.7922147030476,None,space,-2.230930224992335,2.3050472382456064,None,980.7922147030476,None,980.7922147030476,None,,,,,,,,,1,2022_Apr_07_1616,SAR-soap,2021.1.2,
115,Trial # 111,Group1-stimuli/group1-block1/fake-group2-b1/encoded_Group2_IMG_5433.jpg,0,encoded_Group2_IMG_5433.jpg,,,,,0.0,110.0,110.0,110.0,,,,,,,,,,,,,,,,,,,,,,,,,,,,,,,,,,,,,983.110114271054,None,983.110114271054,None,983.110114271054,None,1.0,0.9486165209673344,983.110114271054,None,983.110114271054,None,1.0,1.7372104849200696,983.6105038661044,None,983.110114271054,None,1.0,1.9757384289987383,984.4108927429188,None,983.110114271054,None,space,-1.952660762006417,2.004766514291987,None,983.110114271054,None,983.110114271054,None,,,,,,,,,1,2022_Apr_07_1616,SAR-soap,2021.1.2,
116,Trial # 112,Group1-stimuli/group1-block1/real-group1-b1/Group1_IMG_0252.jpg,1,Group1_IMG_0252.jpg,,,,,0.0,111.0,111.0,111.0,,,,,,,,,,,,,,,,,,,,,,,,,,,,,,,,,,,,,985.1439846758732,None,985.1439846758732,None,985.1439846758732,None,1.0,0.8933678090106696,985.1439846758732,None,985.1439846758732,None,1.0,1.6168475630693138,985.5773185119032,None,985.1439846758732,None,1.0,1.8889855111483485,986.3107047809754,None,985.1439846758732,None,space,-1.854700286872685,1.914640284376219,None,985.1439846758732,None,985.1439846758732,None,,,,,,,,,1,2022_Apr_07_1616,SAR-soap,2021.1.2,
117,Trial # 113,Group1-stimuli/group1-block1/real-group1-b1/Group1_IMG_9720.jpg,1,Group1_IMG_9720.jpg,,,,,0.0,112.0,112.0,112.0,,,,,,,,,,,,,,,,,,,,,,,,,,,,,,,,,,,,,987.078180857934,None,987.078180857934,None,987.078180857934,None,3.0,1.3611872920300812,987.078180857934,None,987.078180857934,None,4.0,1.717708195792511,987.9782796360088,None,987.078180857934,None,4.0,2.3553862411063164,988.3456689189188,None,987.078180857934,None,space,-2.311634270939976,2.382530033355579,None,987.078180857934,None,987.078180857934,None,,,,,,,,,1,2022_Apr_07_1616,SAR-soap,2021.1.2,
118,Trial # 114,Group1-stimuli/group1-block1/fake-group2-b1/encoded_Group2_IMG_0550.jpg,0,encoded_Group2_IMG_0550.jpg,,,,,0.0,113.0,113.0,113.0,,,,,,,,,,,,,,,,,,,,,,,,,,,,,,,,,,,,,989.4621525700204,None,989.4621525700204,None,989.4621525700204,None,1.0,1.9631782618816944,989.4621525700204,None,989.4621525700204,None,3.0,2.4035170800052583,990.2292459339368,None,989.4621525700204,None,4.0,3.074206789024174,991.4300173348748,None,989.4621525700204,None,space,-3.083762484136969,3.103265799116344,None,989.4621525700204,None,989.4621525700204,None,,,,,,,,,1,2022_Apr_07_1616,SAR-soap,2021.1.2,
119,Trial # 115,Group1-stimuli/group1-block1/real-group1-b1/Group1_IMG_9915.jpg,1,Group1_IMG_9915.jpg,,,,,0.0,114.0,114.0,114.0,,,,,,,,,,,,,,,,,,,,,,,,,,,,,,,,,,,,,992.595853505889,None,992.595853505889,None,992.595853505889,None,1.0,1.2607387630268931,992.595853505889,None,992.595853505889,None,1.0,1.517255064100027,993.3969815128949,None,992.595853505889,None,1.0,2.1898338641040027,993.6643250100316,None,992.595853505889,None,space,-2.022901021875441,2.214011082192883,None,992.595853505889,None,992.595853505889,None,,,,,,,,,1,2022_Apr_07_1616,SAR-soap,2021.1.2,
120,Trial # 116,Group1-stimuli/group1-block1/real-group1-b1/Group1_IMG_9850.jpg,1,Group1_IMG_9850.jpg,,,,,0.0,115.0,115.0,115.0,,,,,,,,,,,,,,,,,,,,,,,,,,,,,,,,,,,,,994.8300967339892,None,994.8300967339892,None,994.8300967339892,None,1.0,0.827453285921365,994.8300967339892,None,994.8300967339892,None,1.0,1.115511961048469,995.1973405359312,None,994.8300967339892,None,1.0,1.6568795500788838,995.4976858540904,None,994.8300967339892,None,space,-1.5626591709442437,1.6805721363052726,None,994.8300967339892,None,994.8300967339892,None,,,,,,,,,1,2022_Apr_07_1616,SAR-soap,2021.1.2,
121,Trial # 117,Group1-stimuli/group1-block1/real-group1-b1/Group1_IMG_3579.jpg,1,Group1_IMG_3579.jpg,,,,,0.0,116.0,116.0,116.0,,,,,,,,,,,,,,,,,,,,,,,,,,,,,,,,,,,,,996.5309261051008,None,996.5309261051008,None,996.5309261051008,None,4.0,1.6447587229777128,996.5309261051008,None,996.5309261051008,None,3.0,2.30180435301736,997.714016693877,None,996.5309261051008,None,4.0,2.9410697750281543,998.3819231758824,None,996.5309261051008,None,space,-2.907759069930762,2.965576064307242,None,996.5309261051008,None,996.5309261051008,None,,,,,,,,,1,2022_Apr_07_1616,SAR-soap,2021.1.2,
122,Trial # 118,Group1-stimuli/group1-block1/fake-group2-b1/encoded_Group2_IMG_0377.jpg,0,encoded_Group2_IMG_0377.jpg,,,,,0.0,117.0,117.0,117.0,,,,,,,,,,,,,,,,,,,,,,,,,,,,,,,,,,,,,999.4994281660764,None,999.4994281660764,None,999.4994281660764,None,2.0,1.0131548920180649,999.4994281660764,None,999.4994281660764,None,2.0,1.368694580858573,1000.0652915169484,None,999.4994281660764,None,1.0,2.042377123143524,1000.4331221459432,None,999.4994281660764,None,space,-1.9591457638889551,2.0697262363974005,None,999.4994281660764,None,999.4994281660764,None,,,,,,,,,1,2022_Apr_07_1616,SAR-soap,2021.1.2,
123,Trial # 119,Group1-stimuli/group1-block1/real-group1-b1/Group1_IMG_0469.jpg,1,Group1_IMG_0469.jpg,,,,,0.0,118.0,118.0,118.0,,,,,,,,,,,,,,,,,,,,,,,,,,,,,,,,,,,,,1001.5984891250264,None,1001.5984891250264,None,1001.5984891250264,None,1.0,1.1450641059782356,1001.5984891250264,None,1001.5984891250264,None,1.0,1.4003368539270014,1002.2830127840862,None,1001.5984891250264,None,1.0,1.7391988469753414,1002.5486160658766,None,1001.5984891250264,None,space,-1.7503924800548702,1.765176804270595,None,1001.5984891250264,None,1001.5984891250264,None,,,,,,,,,1,2022_Apr_07_1616,SAR-soap,2021.1.2,
124,Trial # 120,Group1-stimuli/group1-block1/fake-group2-b1/encoded_Group2_IMG_0100.jpg,0,encoded_Group2_IMG_0100.jpg,,,,,0.0,119.0,119.0,119.0,,,,,,,,,,,,,,,,,,,,,,,,,,,,,,,,,,,,,1003.3663375400938,None,1003.3663375400938,None,1003.3663375400938,None,1.0,1.7479709889739752,1003.3663375400938,None,1003.3663375400938,None,1.0,2.004563617985696,1004.666606318904,None,1003.3663375400938,None,1.0,2.376089917961508,1004.9345125870312,None,1003.3663375400938,None,space,-2.336308249970898,2.403849251102656,None,1003.3663375400938,None,1003.3663375400938,None,,,,,,,,,1,2022_Apr_07_1616,SAR-soap,2021.1.2,
125,Trial # 121,Group1-stimuli/group1-block1/real-group1-b1/Group1_IMG_5359.jpg,1,Group1_IMG_5359.jpg,,,,,0.0,120.0,120.0,120.0,,,,,,,,,,,,,,,,,,,,,,,,,,,,,,,,,,,,,1005.7835846969392,None,1005.7835846969392,None,1005.7835846969392,None,1.0,0.7276385561563075,1005.7835846969392,None,1005.7835846969392,None,1.0,1.0163948710542172,1006.0680559650064,None,1005.7835846969392,None,1.0,1.35508294403553,1006.3672439591028,None,1005.7835846969392,None,space,-1.31316501297988,1.382209051400423,None,1005.7835846969392,None,1005.7835846969392,None,,,,,,,,,1,2022_Apr_07_1616,SAR-soap,2021.1.2,
126,Trial # 122,Group1-stimuli/group1-block1/fake-group2-b1/encoded_Group2_IMG_0304.jpg,0,encoded_Group2_IMG_0304.jpg,,,,,0.0,121.0,121.0,121.0,,,,,,,,,,,,,,,,,,,,,,,,,,,,,,,,,,,,,1007.1838580819312,None,1007.1838580819312,None,1007.1838580819312,None,3.0,0.6474873828701675,1007.1838580819312,None,1007.1838580819312,None,3.0,1.035657071042806,1007.383805966936,None,1007.1838580819312,None,4.0,2.2767306899186224,1007.7840862560552,None,1007.1838580819312,None,space,-0.4628950569313019,2.3051874013617635,None,1007.1838580819312,None,1007.1838580819312,None,,,,,,,,,1,2022_Apr_07_1616,SAR-soap,2021.1.2,
127,Trial # 123,Group1-stimuli/group1-block1/real-group1-b1/Group1_IMG_0306.jpg,1,Group1_IMG_0306.jpg,,,,,0.0,122.0,122.0,122.0,,,,,,,,,,,,,,,,,,,,,,,,,,,,,,,,,,,,,1009.5178712590132,None,1009.5178712590132,None,1009.5178712590132,None,5.0,0.7780718230642378,1009.5178712590132,None,1009.5178712590132,None,5.0,2.367869109846652,1009.8350847670808,None,1009.5178712590132,None,6.0,3.2399378730915487,1011.435799380066,None,1009.5178712590132,None,space,-3.2749839450698346,3.266706495312974,None,1009.5178712590132,None,1009.5178712590132,None,,,,,,,,,1,2022_Apr_07_1616,SAR-soap,2021.1.2,
128,Trial # 124,Group1-stimuli/group1-block1/real-group1-b1/Group1_IMG_0224.jpg,1,Group1_IMG_0224.jpg,,,,,0.0,123.0,123.0,123.0,,,,,,,,,,,,,,,,,,,,,,,,,,,,,,,,,,,,,1012.8019127398728,None,1012.8019127398728,None,1012.8019127398728,None,4.0,0.8945826818235219,1012.8019127398728,None,1012.8019127398728,None,4.0,1.484497059835121,1013.2363273310476,None,1012.8019127398728,None,5.0,2.522437711013481,1013.8362836178858,None,1012.8019127398728,None,space,-0.2835184449795633,2.5502415783703327,None,1012.8019127398728,None,1012.8019127398728,None,,,,,,,,,1,2022_Apr_07_1616,SAR-soap,2021.1.2,
129,Trial # 125,Group1-stimuli/group1-block1/real-group1-b1/Group1_IMG_9889.jpg,1,Group1_IMG_9889.jpg,,,,,0.0,124.0,124.0,124.0,,,,,,,,,,,,,,,,,,,,,,,,,,,,,,,,,,,,,1015.3705579589588,None,1015.3705579589588,None,1015.3705579589588,None,1.0,1.3946830797940493,1015.3705579589588,None,1015.3705579589588,None,1.0,1.683796571101993,1016.3038015658968,None,1015.3705579589588,None,2.0,2.289184593129903,1016.6034252909012,None,1015.3705579589588,None,space,-2.2800294677726924,2.3146459204144776,None,1015.3705579589588,None,1015.3705579589588,None,,,,,,,,,1,2022_Apr_07_1616,SAR-soap,2021.1.2,
130,Trial # 126,Group1-stimuli/group1-block1/real-group1-b1/Group1_IMG_0293.jpg,1,Group1_IMG_0293.jpg,,,,,0.0,125.0,125.0,125.0,,,,,,,,,,,,,,,,,,,,,,,,,,,,,,,,,,,,,1017.7041234769858,None,1017.7041234769858,None,1017.7041234769858,None,1.0,1.079210976138711,1017.7041234769858,None,1017.7041234769858,None,1.0,1.3686859998852017,1018.32097904291,None,1017.7041234769858,None,1.0,1.7061944960150868,1018.6219766510184,None,1017.7041234769858,None,space,-1.679422080051154,1.7331375824287534,None,1017.7041234769858,None,1017.7041234769858,None,,,,,,,,,1,2022_Apr_07_1616,SAR-soap,2021.1.2,
131,Trial # 127,Group1-stimuli/group1-block1/fake-group2-b1/encoded_Group2_IMG_0321.jpg,0,encoded_Group2_IMG_0321.jpg,,,,,0.0,126.0,126.0,126.0,,,,,,,,,,,,,,,,,,,,,,,,,,,,,,,,,,,,,1019.4382058160844,None,1019.4382058160844,None,1019.4382058160844,None,1.0,1.4638830088078976,1019.4382058160844,None,1019.4382058160844,None,1.0,1.7536760841030627,1020.455389566021,None,1019.4382058160844,None,1.0,2.291068013058976,1020.7546056020074,None,1019.4382058160844,None,space,-2.268300465075299,2.320394220994785,None,1019.4382058160844,None,1019.4382058160844,None,,,,,,,,,1,2022_Apr_07_1616,SAR-soap,2021.1.2,
132,Trial # 128,Group1-stimuli/group1-block1/fake-group2-b1/encoded_Group2_IMG_0400.jpg,0,encoded_Group2_IMG_0400.jpg,,,,,0.0,127.0,127.0,127.0,,,,,,,,,,,,,,,,,,,,,,,,,,,,,,,,,,,,,1021.772062016884,None,1021.772062016884,None,1021.772062016884,None,2.0,1.814102430129424,1021.772062016884,None,1021.772062016884,None,3.0,2.304593792185188,1023.1394793090876,None,1021.772062016884,None,3.0,2.57684176391922,1023.6397393099032,None,1021.772062016884,None,space,-2.5909298700280488,2.605415192199871,None,1021.772062016884,None,1021.772062016884,None,,,,,,,,,1,2022_Apr_07_1616,SAR-soap,2021.1.2,
133,Trial # 129,Group1-stimuli/group1-block1/fake-group2-b1/encoded_Group2_IMG_0443.jpg,0,encoded_Group2_IMG_0443.jpg,,,,,0.0,128.0,128.0,128.0,,,,,,,,,,,,,,,,,,,,,,,,,,,,,,,,,,,,,1024.3894439970609,None,1024.3894439970609,None,1024.3894439970609,None,4.0,1.430879503954202,1024.3894439970609,None,1024.3894439970609,None,3.0,2.1201352099888027,1025.3735024330672,None,1024.3894439970609,None,3.0,2.559090059949085,1026.0737597430125,None,1024.3894439970609,None,space,-2.31883375486359,2.5862908042036,None,1024.3894439970609,None,1024.3894439970609,None,,,,,,,,,1,2022_Apr_07_1616,SAR-soap,2021.1.2,
134,Trial # 130,Group1-stimuli/group1-block1/fake-group2-b1/encoded_Group2_IMG_0542.jpg,0,encoded_Group2_IMG_0542.jpg,,,,,0.0,129.0,129.0,129.0,,,,,,,,,,,,,,,,,,,,,,,,,,,,,,,,,,,,,1026.9893941639457,None,1026.9893941639457,None,1026.9893941639457,None,1.0,1.6471211740281433,1026.9893941639457,None,1026.9893941639457,None,1.0,2.238311363151297,1028.1912453449331,None,1026.9893941639457,None,1.0,2.7766818299423903,1028.791204718873,None,1026.9893941639457,None,space,-2.5612756269983947,2.8053372383583337,None,1026.9893941639457,None,1026.9893941639457,None,,,,,,,,,1,2022_Apr_07_1616,SAR-soap,2021.1.2,
135,Trial # 131,Group1-stimuli/group1-block1/real-group1-b1/Group1_IMG_0885.jpg,1,Group1_IMG_0885.jpg,,,,,0.0,130.0,130.0,130.0,,,,,,,,,,,,,,,,,,,,,,,,,,,,,,,,,,,,,1029.8078047919553,None,1029.8078047919553,None,1029.8078047919553,None,7.0,1.7290906799025834,1029.8078047919553,None,1029.8078047919553,None,7.0,2.150881822919473,1031.0919213900345,None,1029.8078047919553,None,7.0,2.622056629974395,1031.5243183190469,None,1029.8078047919553,None,space,-2.572294077137485,2.6496314003597945,None,1029.8078047919553,None,1029.8078047919553,None,,,,,,,,,1,2022_Apr_07_1616,SAR-soap,2021.1.2,
136,Trial # 132,Group1-stimuli/group1-block1/real-group1-b1/Group1_IMG_0375.jpg,1,Group1_IMG_0375.jpg,,,,,0.0,131.0,131.0,131.0,,,,,,,,,,,,,,,,,,,,,,,,,,,,,,,,,,,,,1032.491731961025,None,1032.491731961025,None,1032.491731961025,None,1.0,1.879081838997081,1032.491731961025,None,1032.491731961025,None,1.0,2.268098563188687,1033.9095147659536,None,1032.491731961025,None,1.0,3.007407377939672,1034.3100729100406,None,1032.491731961025,None,space,-0.2790297491010278,3.032608166337013,None,1032.491731961025,None,1032.491731961025,None,,,,,,,,,1,2022_Apr_07_1616,SAR-soap,2021.1.2,
137,Trial # 133,Group1-stimuli/group1-block1/fake-group2-b1/encoded_Group2_IMG_7351.jpg,0,encoded_Group2_IMG_7351.jpg,,,,,0.0,132.0,132.0,132.0,,,,,,,,,,,,,,,,,,,,,,,,,,,,,,,,,,,,,1035.5259401518852,None,1035.5259401518852,None,1035.5259401518852,None,1.0,1.3144495910964906,1035.5259401518852,None,1035.5259401518852,None,1.0,2.1696549151092768,1036.392811324913,None,1035.5259401518852,None,1.0,2.808440116932616,1037.2597182320897,None,1035.5259401518852,None,space,-2.63306956901215,2.835823676316068,None,1035.5259401518852,None,1035.5259401518852,None,,,,,,,,,1,2022_Apr_07_1616,SAR-soap,2021.1.2,
138,Trial # 134,Group1-stimuli/group1-block1/fake-group2-b1/encoded_Group2_IMG_0416.jpg,0,encoded_Group2_IMG_0416.jpg,,,,,0.0,133.0,133.0,133.0,,,,,,,,,,,,,,,,,,,,,,,,,,,,,,,,,,,,,1038.3776132329367,None,1038.3776132329367,None,1038.3776132329367,None,3.0,1.5480818920768795,1038.3776132329367,None,1038.3776132329367,None,3.0,2.1381134029943496,1039.478347670054,None,1038.3776132329367,None,4.0,2.709666962968185,1040.078288641991,None,1038.3776132329367,None,space,-0.2087101170327514,2.736715925158933,None,1038.3776132329367,None,1038.3776132329367,None,,,,,,,,,1,2022_Apr_07_1616,SAR-soap,2021.1.2,
139,Trial # 135,Group1-stimuli/group1-block1/fake-group2-b1/encoded_Group2_IMG_0139.jpg,0,encoded_Group2_IMG_0139.jpg,,,,,0.0,134.0,134.0,134.0,,,,,,,,,,,,,,,,,,,,,,,,,,,,,,,,,,,,,1041.1274707370903,None,1041.1274707370903,None,1041.1274707370903,None,1.0,1.6312337040435525,1041.1274707370903,None,1041.1274707370903,None,1.0,2.136289765127003,1041.9943584268913,None,1041.1274707370903,None,1.0,2.4404633240774274,1042.8278899020515,None,1041.1274707370903,None,space,-2.380831710994244,2.470740706427023,None,1041.1274707370903,None,1041.1274707370903,None,,,,,,,,,1,2022_Apr_07_1616,SAR-soap,2021.1.2,
140,Trial # 136,Group1-stimuli/group1-block1/real-group1-b1/Group1_IMG_9677.jpg,1,Group1_IMG_9677.jpg,,,,,0.0,135.0,135.0,135.0,,,,,,,,,,,,,,,,,,,,,,,,,,,,,,,,,,,,,1043.612209063023,None,1043.612209063023,None,1043.612209063023,None,1.0,1.5460471441037953,1043.612209063023,None,1043.612209063023,None,1.0,2.236102669034153,1044.7133419439197,None,1043.612209063023,None,1.0,2.440919348970056,1045.4124169819988,None,1043.612209063023,None,space,-2.448847636813298,2.467333915410564,None,1043.612209063023,None,1043.612209063023,None,,,,,,,,,1,2022_Apr_07_1616,SAR-soap,2021.1.2,
141,Trial # 137,Group1-stimuli/group1-block1/fake-group2-b1/encoded_Group2_IMG_5982.jpg,0,encoded_Group2_IMG_5982.jpg,,,,,0.0,136.0,136.0,136.0,,,,,,,,,,,,,,,,,,,,,,,,,,,,,,,,,,,,,1046.095372308977,None,1046.095372308977,None,1046.095372308977,None,1.0,1.0809972169809043,1046.095372308977,None,1046.095372308977,None,1.0,1.4039212088100612,1046.7294200370088,None,1046.095372308977,None,1.0,1.8068214799277484,1047.0631417289842,None,1046.095372308977,None,space,-1.667438522912562,1.8361546823289243,None,1046.095372308977,None,1046.095372308977,None,,,,,,,,,1,2022_Apr_07_1616,SAR-soap,2021.1.2,
142,Trial # 138,Group1-stimuli/group1-block1/fake-group2-b1/encoded_Group2_IMG_1144.jpg,0,encoded_Group2_IMG_1144.jpg,,,,,0.0,137.0,137.0,137.0,,,,,,,,,,,,,,,,,,,,,,,,,,,,,,,,,,,,,1047.9456296900753,None,1047.9456296900753,None,1047.9456296900753,None,5.0,1.698030610801652,1047.9456296900753,None,1047.9456296900753,None,4.0,2.136721394956112,1048.647873033071,None,1047.9456296900753,None,4.0,2.40971713908948,1049.6469486269634,None,1047.9456296900753,None,space,-2.3984927099663764,2.436925388406962,None,1047.9456296900753,None,1047.9456296900753,None,,,,,,,,,1,2022_Apr_07_1616,SAR-soap,2021.1.2,
143,Trial # 139,Group1-stimuli/group1-block1/fake-group2-b1/encoded_Group2_IMG_0315.jpg,0,encoded_Group2_IMG_0315.jpg,,,,,0.0,138.0,138.0,138.0,,,,,,,,,,,,,,,,,,,,,,,,,,,,,,,,,,,,,1050.397976445034,None,1050.397976445034,None,1050.397976445034,None,2.0,2.0975036330055445,1050.397976445034,None,1050.397976445034,None,3.0,2.5701090169604868,1051.3306564090308,None,1050.397976445034,None,2.0,2.97688702098094,1052.53149502608,None,1050.397976445034,None,space,-2.926987947896123,3.003929292084649,None,1050.397976445034,None,1050.397976445034,None,,,,,,,,,1,2022_Apr_07_1616,SAR-soap,2021.1.2,
144,Trial # 140,Group1-stimuli/group1-block1/real-group1-b1/Group1_IMG_130.jpg,1,Group1_IMG_130.jpg,,,,,0.0,139.0,139.0,139.0,,,,,,,,,,,,,,,,,,,,,,,,,,,,,,,,,,,,,1053.4318261588924,None,1053.4318261588924,None,1053.4318261588924,None,7.0,1.7459671990945935,1053.4318261588924,None,1053.4318261588924,None,6.0,2.2011769390664995,1054.715268220054,None,1053.4318261588924,None,7.0,2.9407260299194604,1055.1821114239283,None,1053.4318261588924,None,space,-2.800569074926898,2.965278660180047,None,1053.4318261588924,None,1053.4318261588924,None,,,,,,,,,1,2022_Apr_07_1616,SAR-soap,2021.1.2,
145,Trial # 141,Group1-stimuli/group1-block1/real-group1-b1/Group1_IMG_0024.jpg,1,Group1_IMG_0024.jpg,,,,,0.0,140.0,140.0,140.0,,,,,,,,,,,,,,,,,,,,,,,,,,,,,,,,,,,,,1056.4156983669382,None,1056.4156983669382,None,1056.4156983669382,None,6.0,1.6100594729650766,1056.4156983669382,None,1056.4156983669382,None,5.0,2.332396588055417,1057.566312158946,None,1056.4156983669382,None,6.0,2.637957362923771,1058.3006238020023,None,1056.4156983669382,None,space,-2.4857788637746125,2.663331229472533,None,1056.4156983669382,None,1056.4156983669382,None,,,,,,,,,1,2022_Apr_07_1616,SAR-soap,2021.1.2,
146,Trial # 142,Group1-stimuli/group1-block1/fake-group2-b1/encoded_Group2_IMG_5012.jpg,0,encoded_Group2_IMG_5012.jpg,,,,,0.0,141.0,141.0,141.0,,,,,,,,,,,,,,,,,,,,,,,,,,,,,,,,,,,,,1059.0839628889223,None,1059.0839628889223,None,1059.0839628889223,None,2.0,1.4303818689659238,1059.0839628889223,None,1059.0839628889223,None,2.0,2.0862588519230485,1060.0674291190226,None,1059.0839628889223,None,3.0,2.424657733878121,1060.5672454610467,None,1059.0839628889223,None,space,-2.3836674918420613,2.4534185831435025,None,1059.0839628889223,None,1059.0839628889223,None,,,,,,,,,1,2022_Apr_07_1616,SAR-soap,2021.1.2,
147,Trial # 143,Group1-stimuli/group1-block1/fake-group2-b1/encoded_Group2_IMG_0209.jpg,0,encoded_Group2_IMG_0209.jpg,,,,,0.0,142.0,142.0,142.0,,,,,,,,,,,,,,,,,,,,,,,,,,,,,,,,,,,,,1061.5505872929934,None,1061.5505872929934,None,1061.5505872929934,None,1.0,1.363656948087737,1061.5505872929934,None,1061.5505872929934,None,1.0,1.7530962899327278,1062.4676130919252,None,1061.5505872929934,None,1.0,2.0937640618067235,1062.8677020799369,None,1061.5505872929934,None,space,-2.05307428794913,2.120436034165323,None,1061.5505872929934,None,1061.5505872929934,None,,,,,,,,,1,2022_Apr_07_1616,SAR-soap,2021.1.2,
148,Trial # 144,Group1-stimuli/group1-block1/real-group1-b1/Group1_IMG_0373.jpg,1,Group1_IMG_0373.jpg,,,,,0.0,143.0,143.0,143.0,,,,,,,,,,,,,,,,,,,,,,,,,,,,,,,,,,,,,1063.7019169800917,None,1063.7019169800917,None,1063.7019169800917,None,1.0,1.5797515760641545,1063.7019169800917,None,1063.7019169800917,None,1.0,2.318551459116861,1064.3354152890388,None,1063.7019169800917,None,1.0,2.5908333668485284,1065.5683405860327,None,1063.7019169800917,None,space,-2.5517020891420543,2.6150335343554616,None,1063.7019169800917,None,1063.7019169800917,None,,,,,,,,,1,2022_Apr_07_1616,SAR-soap,2021.1.2,
149,Trial # 145,Group1-stimuli/group1-block1/real-group1-b1/Group1_IMG_5899.jpg,1,Group1_IMG_5899.jpg,,,,,0.0,144.0,144.0,144.0,,,,,,,,,,,,,,,,,,,,,,,,,,,,,,,,,,,,,1066.3357037371024,None,1066.3357037371024,None,1066.3357037371024,None,1.0,0.9614693359471858,1066.3357037371024,None,1066.3357037371024,None,1.0,1.6173367071896791,1066.8368777919095,None,1066.3357037371024,None,1.0,2.322717617964372,1067.5026051988823,None,1066.3357037371024,None,space,-2.254696461139247,2.347319566411897,None,1066.3357037371024,None,1066.3357037371024,None,,,,,,,,,1,2022_Apr_07_1616,SAR-soap,2021.1.2,
150,Trial # 146,Group1-stimuli/group1-block1/real-group1-b1/Group1_IMG_0162.jpg,1,Group1_IMG_0162.jpg,,,,,0.0,145.0,145.0,145.0,,,,,,,,,,,,,,,,,,,,,,,,,,,,,,,,,,,,,1068.7037741940003,None,1068.7037741940003,None,1068.7037741940003,None,4.0,1.6953805501107126,1068.7037741940003,None,1068.7037741940003,None,4.0,2.250394753180444,1069.9372961269692,None,1068.7037741940003,None,4.0,2.856791488826275,1070.5035659330897,None,1068.7037741940003,None,space,-0.2440681338775903,2.8815078954212368,None,1068.7037741940003,None,1068.7037741940003,None,,,,,,,,,1,2022_Apr_07_1616,SAR-soap,2021.1.2,
151,Trial # 147,Group1-stimuli/group1-block1/real-group1-b1/Group1_IMG_0543.jpg,1,Group1_IMG_0543.jpg,,,,,0.0,146.0,146.0,146.0,,,,,,,,,,,,,,,,,,,,,,,,,,,,,,,,,,,,,1071.5869130210483,None,1071.5869130210483,None,1071.5869130210483,None,2.0,1.395455109886825,1071.5869130210483,None,1071.5869130210483,None,2.0,2.285539158852771,1072.5379385519773,None,1071.5869130210483,None,1.0,2.758335034130141,1073.4386417639907,None,1071.5869130210483,None,space,-2.709572638850659,2.784166515106336,None,1071.5869130210483,None,1071.5869130210483,None,,,,,,,,,1,2022_Apr_07_1616,SAR-soap,2021.1.2,
152,Trial # 148,Group1-stimuli/group1-block1/fake-group2-b1/encoded_Group2_IMG_0355.jpg,0,encoded_Group2_IMG_0355.jpg,,,,,0.0,147.0,147.0,147.0,,,,,,,,,,,,,,,,,,,,,,,,,,,,,,,,,,,,,1074.3886504180264,None,1074.3886504180264,None,1074.3886504180264,None,1.0,1.2650548699311912,1074.3886504180264,None,1074.3886504180264,None,1.0,1.619342006975785,1075.2058096919209,None,1074.3886504180264,None,1.0,1.9249538988806307,1075.572815910913,None,1074.3886504180264,None,space,-1.853339263005182,1.955043230438605,None,1074.3886504180264,None,1074.3886504180264,None,,,,,,,,,1,2022_Apr_07_1616,SAR-soap,2021.1.2,
153,Trial # 149,Group1-stimuli/group1-block1/real-group1-b1/Group1_IMG_9765.jpg,1,Group1_IMG_9765.jpg,,,,,0.0,148.0,148.0,148.0,,,,,,,,,,,,,,,,,,,,,,,,,,,,,,,,,,,,,1076.3715965501033,None,1076.3715965501033,None,1076.3715965501033,None,5.0,1.844489510869608,1076.3715965501033,None,1076.3715965501033,None,5.0,2.517605760134757,1076.8724093090275,None,1076.3715965501033,None,4.0,3.156498831929639,1078.440109682968,None,1076.3715965501033,None,space,-3.109701595036313,3.182669772300869,None,1076.3715965501033,None,1076.3715965501033,None,,,,,,,,,1,2022_Apr_07_1616,SAR-soap,2021.1.2,
154,Trial # 150,Group1-stimuli/group1-block1/fake-group2-b1/encoded_Group2_IMG_1378.jpg,0,encoded_Group2_IMG_1378.jpg,,,,,0.0,149.0,149.0,149.0,,,,,,,,,,,,,,,,,,,,,,,,,,,,,,,,,,,,,1079.5565801209304,None,1079.5565801209304,None,1079.5565801209304,None,4.0,2.2640885948203504,1079.5565801209304,None,1079.5565801209304,None,4.0,2.536436611087993,1080.4573084570002,None,1079.5565801209304,None,4.0,3.108911046059802,1081.6568760850932,None,1079.5565801209304,None,space,-3.044492067070678,3.137104238383472,None,1079.5565801209304,None,1079.5565801209304,None,,,,,,,,,1,2022_Apr_07_1616,SAR-soap,2021.1.2,
155,Trial # 1,Group1-stimuli/group1-block2/fake-group2-b2/encoded_Group2_IMG_0155.jpg,0,encoded_Group2_IMG_0155.jpg,,,,,,,,,0.0,0.0,0.0,0.0,,,,,,,,,,,,,,,,,,,,,,,,,,,,,,,,,1250.5923015440349,None,1250.5923015440349,None,1250.5923015440349,None,6.0,4.45450574089773,1250.5923015440349,None,1250.5923015440349,None,6.0,4.927461884915829,1253.710579484003,None,1250.5923015440349,None,4.0,5.964603889035061,1255.077583020087,None,1250.5923015440349,None,space,0.196662584785372,6.000092012807727,None,1250.5923015440349,None,1250.5923015440349,None,1158.2484142130706,None,1158.2484142130706,None,1158.2484142130706,None,1082.2073076718953,None,1,2022_Apr_07_1616,SAR-soap,2021.1.2,
156,Trial # 2,Group1-stimuli/group1-block2/real-group1-b2/Group1_IMG_0519.jpg,1,Group1_IMG_0519.jpg,,,,,,,,,0.0,1.0,1.0,1.0,,,,,,,,,,,,,,,,,,,,,,,,,,,,,,,,,1256.810585404979,None,1256.810585404979,None,1256.810585404979,None,1.0,1.837832712801173,1256.810585404979,None,1256.810585404979,None,1.0,2.3962429699022323,1258.1942099379376,None,1256.810585404979,None,1.0,2.967734574107453,1258.76248728903,None,1256.810585404979,None,space,0.147265160921961,2.9869311372749507,None,1256.810585404979,None,1256.810585404979,None,,,,,,,,,1,2022_Apr_07_1616,SAR-soap,2021.1.2,
157,Trial # 3,Group1-stimuli/group1-block2/fake-group2-b2/encoded_Group2_IMG_0135.jpg,0,encoded_Group2_IMG_0135.jpg,,,,,,,,,0.0,2.0,2.0,2.0,,,,,,,,,,,,,,,,,,,,,,,,,,,,,,,,,1259.9955438950565,None,1259.9955438950565,None,1259.9955438950565,None,2.0,0.7253781310282648,1259.9955438950565,None,1259.9955438950565,None,2.0,1.947170280851424,1260.2630711470265,None,1259.9955438950565,None,1.0,2.2200211631134152,1261.4964805899654,None,1259.9955438950565,None,space,0.1931404368951916,2.2422148631885648,None,1259.9955438950565,None,1259.9955438950565,None,,,,,,,,,1,2022_Apr_07_1616,SAR-soap,2021.1.2,
158,Trial # 4,Group1-stimuli/group1-block2/real-group1-b2/Group1_IMG_5310.jpg,1,Group1_IMG_5310.jpg,,,,,,,,,0.0,3.0,3.0,3.0,,,,,,,,,,,,,,,,,,,,,,,,,,,,,,,,,1262.4621092730667,None,1262.4621092730667,None,1262.4621092730667,None,4.0,1.8739145919680595,1262.4621092730667,None,1262.4621092730667,None,4.0,2.3957583338487893,1262.729773893021,None,1262.4621092730667,None,4.0,2.899983745068312,1264.414237163961,None,1262.4621092730667,None,space,0.0890908860601484,2.922601656522602,None,1262.4621092730667,None,1262.4621092730667,None,,,,,,,,,1,2022_Apr_07_1616,SAR-soap,2021.1.2,
159,Trial # 5,Group1-stimuli/group1-block2/real-group1-b2/Group1_IMG_0522.jpg,1,Group1_IMG_0522.jpg,,,,,,,,,0.0,4.0,4.0,4.0,,,,,,,,,,,,,,,,,,,,,,,,,,,,,,,,,1265.5138087770902,None,1265.5138087770902,None,1265.5138087770902,None,5.0,1.507470953045413,1265.5138087770902,None,1265.5138087770902,None,5.0,2.1456885510124266,1266.047782636946,None,1265.5138087770902,None,6.0,2.483841560781002,1267.2139089670964,None,1265.5138087770902,None,space,0.1285866920370608,2.504403157159686,None,1265.5138087770902,None,1265.5138087770902,None,,,,,,,,,1,2022_Apr_07_1616,SAR-soap,2021.1.2,
160,Trial # 6,Group1-stimuli/group1-block2/fake-group2-b2/encoded_Group2_IMG_0484.jpg,0,encoded_Group2_IMG_0484.jpg,,,,,,,,,0.0,5.0,5.0,5.0,,,,,,,,,,,,,,,,,,,,,,,,,,,,,,,,,1268.164671130944,None,1268.164671130944,None,1268.164671130944,None,1.0,1.8817958231084049,1268.164671130944,None,1268.164671130944,None,2.0,2.421005842043087,1269.0819464679807,None,1268.164671130944,None,2.0,2.8268840447999537,1270.1483964629006,None,1268.164671130944,None,space,0.1111794479656964,2.854574846336618,None,1268.164671130944,None,1268.164671130944,None,,,,,,,,,1,2022_Apr_07_1616,SAR-soap,2021.1.2,
161,Trial # 7,Group1-stimuli/group1-block2/fake-group2-b2/encoded_Group2_IMG_5948.jpg,0,encoded_Group2_IMG_5948.jpg,,,,,,,,,0.0,6.0,6.0,6.0,,,,,,,,,,,,,,,,,,,,,,,,,,,,,,,,,1271.181837539887,None,1271.181837539887,None,1271.181837539887,None,1.0,1.061277030967176,1271.181837539887,None,1271.181837539887,None,1.0,1.4171218208502978,1271.7823188400362,None,1271.181837539887,None,1.0,1.7228952830191702,1272.148497224087,None,1271.181837539887,None,space,0.0983573198318481,1.747193629387766,None,1271.181837539887,None,1271.181837539887,None,,,,,,,,,1,2022_Apr_07_1616,SAR-soap,2021.1.2,
162,Trial # 8,Group1-stimuli/group1-block2/fake-group2-b2/encoded_Group2_IMG_3591.jpg,0,encoded_Group2_IMG_3591.jpg,,,,,,,,,0.0,7.0,7.0,7.0,,,,,,,,,,,,,,,,,,,,,,,,,,,,,,,,,1273.0329287850764,None,1273.0329287850764,None,1273.0329287850764,None,1.0,0.5642628609202802,1273.0329287850764,None,1273.0329287850764,None,1.0,0.952560953097418,1273.1500136030372,None,1273.0329287850764,None,1.0,1.292626579059288,1273.549791784957,None,1273.0329287850764,None,space,0.1044369512237608,1.3205885842908174,None,1273.0329287850764,None,1273.0329287850764,None,,,,,,,,,1,2022_Apr_07_1616,SAR-soap,2021.1.2,
163,Trial # 9,Group1-stimuli/group1-block2/real-group1-b2/Group1_IMG_9835.jpg,1,Group1_IMG_9835.jpg,,,,,,,,,0.0,8.0,8.0,8.0,,,,,,,,,,,,,,,,,,,,,,,,,,,,,,,,,1274.5165782910772,None,1274.5165782910772,None,1274.5165782910772,None,1.0,0.972900282824412,1274.5165782910772,None,1274.5165782910772,None,1.0,1.229633156908676,1275.03380580293,None,1274.5165782910772,None,1.0,1.5011542229913175,1275.3005325431004,None,1274.5165782910772,None,space,0.2036133790388703,1.520737609360367,None,1274.5165782910772,None,1274.5165782910772,None,,,,,,,,,1,2022_Apr_07_1616,SAR-soap,2021.1.2,
164,Trial # 10,Group1-stimuli/group1-block2/real-group1-b2/Group1_IMG_0556.jpg,1,Group1_IMG_0556.jpg,,,,,,,,,0.0,9.0,9.0,9.0,,,,,,,,,,,,,,,,,,,,,,,,,,,,,,,,,1276.3003165388943,None,1276.3003165388943,None,1276.3003165388943,None,1.0,0.6777792319189757,1276.3003165388943,None,1276.3003165388943,None,1.0,1.233036408899352,1276.5176588390025,None,1276.3003165388943,None,1.0,1.738894501933828,1277.0841377449688,None,1276.3003165388943,None,space,0.1555132630746811,1.7646777322515843,None,1276.3003165388943,None,1276.3003165388943,None,,,,,,,,,1,2022_Apr_07_1616,SAR-soap,2021.1.2,
165,Trial # 11,Group1-stimuli/group1-block2/fake-group2-b2/encoded_Group2_IMG_9736.jpg,0,encoded_Group2_IMG_9736.jpg,,,,,,,,,0.0,10.0,10.0,10.0,,,,,,,,,,,,,,,,,,,,,,,,,,,,,,,,,1278.2522089120466,None,1278.2522089120466,None,1278.2522089120466,None,5.0,1.4446535599417984,1278.2522089120466,None,1278.2522089120466,None,4.0,1.783136002952233,1278.5515704629945,None,1278.2522089120466,None,4.0,2.055948944063857,1279.585698904004,None,1278.2522089120466,None,space,0.0955839410889893,2.079273184062913,None,1278.2522089120466,None,1278.2522089120466,None,,,,,,,,,1,2022_Apr_07_1616,SAR-soap,2021.1.2,
166,Trial # 12,Group1-stimuli/group1-block2/real-group1-b2/Group1_IMG_9867.jpg,1,Group1_IMG_9867.jpg,,,,,,,,,0.0,11.0,11.0,11.0,,,,,,,,,,,,,,,,,,,,,,,,,,,,,,,,,1280.45234324201,None,1280.45234324201,None,1280.45234324201,None,2.0,1.728173416107893,1280.45234324201,None,1280.45234324201,None,2.0,2.1670658928342164,1281.135422898922,None,1280.45234324201,None,2.0,2.50516914203763,1282.1684294810984,None,1280.45234324201,None,space,0.276348008075729,2.5322461233008653,None,1280.45234324201,None,1280.45234324201,None,,,,,,,,,1,2022_Apr_07_1616,SAR-soap,2021.1.2,
167,Trial # 13,Group1-stimuli/group1-block2/fake-group2-b2/encoded_Group2_IMG_9886.jpg,0,encoded_Group2_IMG_9886.jpg,,,,,,,,,0.0,12.0,12.0,12.0,,,,,,,,,,,,,,,,,,,,,,,,,,,,,,,,,1283.3036430820357,None,1283.3036430820357,None,1283.3036430820357,None,1.0,0.9585216490086168,1283.3036430820357,None,1283.3036430820357,None,1.0,1.614731129957363,1283.8041803790256,None,1283.3036430820357,None,2.0,1.8547769531141969,1284.470350754913,None,1283.3036430820357,None,space,0.1233495371416211,1.8780276384204624,None,1283.3036430820357,None,1283.3036430820357,None,,,,,,,,,1,2022_Apr_07_1616,SAR-soap,2021.1.2,
168,Trial # 14,Group1-stimuli/group1-block2/fake-group2-b2/encoded_Group2_IMG_2245.jpg,0,encoded_Group2_IMG_2245.jpg,,,,,,,,,0.0,13.0,13.0,13.0,,,,,,,,,,,,,,,,,,,,,,,,,,,,,,,,,1285.3374946250117,None,1285.3374946250117,None,1285.3374946250117,None,1.0,0.8092321888543665,1285.3374946250117,None,1285.3374946250117,None,1.0,1.1651582098565996,1285.6876808030063,None,1285.3374946250117,None,3.0,1.8031087468843907,1286.0540614360943,None,1285.3374946250117,None,space,0.1329197091981768,1.8277231170795856,None,1285.3374946250117,None,1285.3374946250117,None,,,,,,,,,1,2022_Apr_07_1616,SAR-soap,2021.1.2,
